"success","timeout","failed_images","failed_audio","failed_video","trial_type","trial_index","time_elapsed","internal_node_id","subject_id","study_id","session_id","view_history","rt","stimulus","response","task","image_index","folder","sequence_type","valuable_image_index","reward_type","chosen_image_index","target_X","correct_choice"
"true","false","[]","[]","[]","preload","0","26905","0.0-0.0","2975D6DE931C4CBF967518C31A717263","019cf549-29c0-7e44-9efe-c77cb64b1d56","019cf509-e3f1-72d9-bf6b-e2f1118fdaab","","","","","","","","","","","","",""
"","","","","","instructions","1","33089","0.0-1.0","2975D6DE931C4CBF967518C31A717263","019cf549-29c0-7e44-9efe-c77cb64b1d56","019cf509-e3f1-72d9-bf6b-e2f1118fdaab","[{""page_index"":0,""viewing_time"":6180}]","6181","","","","","","","","","","",""
"","","","","","instructions","2","43032","0.0-2.0","2975D6DE931C4CBF967518C31A717263","019cf549-29c0-7e44-9efe-c77cb64b1d56","019cf509-e3f1-72d9-bf6b-e2f1118fdaab","[{""page_index"":0,""viewing_time"":9942}]","9942","","","","","","","","","","",""
"true","","","","","fullscreen","3","53443","0.0-3.0","2975D6DE931C4CBF967518C31A717263","019cf549-29c0-7e44-9efe-c77cb64b1d56","019cf509-e3f1-72d9-bf6b-e2f1118fdaab","","9402","","","","","","","","","","",""
"","","","","","instructions","4","126221","0.0-4.0","2975D6DE931C4CBF967518C31A717263","019cf549-29c0-7e44-9efe-c77cb64b1d56","019cf509-e3f1-72d9-bf6b-e2f1118fdaab","[{""page_index"":0,""viewing_time"":72777}]","72777","","","","","","","","","","",""
"","","","","","instructions","5","143218","0.0-5.0","2975D6DE931C4CBF967518C31A717263","019cf549-29c0-7e44-9efe-c77cb64b1d56","019cf509-e3f1-72d9-bf6b-e2f1118fdaab","[{""page_index"":0,""viewing_time"":16997}]","16997","","","","","","","","","","",""
"","","","","","html-keyboard-response","6","147220","0.0-6.0","2975D6DE931C4CBF967518C31A717263","019cf549-29c0-7e44-9efe-c77cb64b1d56","019cf509-e3f1-72d9-bf6b-e2f1118fdaab","","null","
                <div class=""stimulus-container"">
                    <img src=""images/instructions/movie_1.png"" class=""exp-image"">
                    <div class=""question-area""></div> 
                </div>","null","","","","","","","","",""
"","","","","","html-button-response","7","150221","0.0-7.0","2975D6DE931C4CBF967518C31A717263","019cf549-29c0-7e44-9efe-c77cb64b1d56","019cf509-e3f1-72d9-bf6b-e2f1118fdaab","","null","
                <div class=""stimulus-container"">
                    <img src=""images/instructions/movie_1.png"" class=""exp-image"">
                    <div class=""question-area"">
                        <p style=""font-size: 20px; font-weight: bold; margin: 0;"">Was there a person in this image?</p>
                    </div>
                </div>","null","example_question","1","","","","","","",""
"","","","","","html-keyboard-response","8","154223","0.0-8.0","2975D6DE931C4CBF967518C31A717263","019cf549-29c0-7e44-9efe-c77cb64b1d56","019cf509-e3f1-72d9-bf6b-e2f1118fdaab","","null","
                <div class=""stimulus-container"">
                    <img src=""images/instructions/movie_2.png"" class=""exp-image"">
                    <div class=""question-area""></div> 
                </div>","null","","","","","","","","",""
"","","","","","html-button-response","9","155442","0.0-9.0","2975D6DE931C4CBF967518C31A717263","019cf549-29c0-7e44-9efe-c77cb64b1d56","019cf509-e3f1-72d9-bf6b-e2f1118fdaab","","1219","
                <div class=""stimulus-container"">
                    <img src=""images/instructions/movie_2.png"" class=""exp-image"">
                    <div class=""question-area"">
                        <p style=""font-size: 20px; font-weight: bold; margin: 0;"">Was there a person in this image?</p>
                    </div>
                </div>","0","example_question","2","","","","","","",""
"","","","","","html-keyboard-response","10","159443","0.0-10.0","2975D6DE931C4CBF967518C31A717263","019cf549-29c0-7e44-9efe-c77cb64b1d56","019cf509-e3f1-72d9-bf6b-e2f1118fdaab","","null","
                <div class=""stimulus-container"">
                    <img src=""images/instructions/movie_3.png"" class=""exp-image"">
                    <div class=""question-area""></div> 
                </div>","null","","","","","","","","",""
"","","","","","html-button-response","11","160417","0.0-11.0","2975D6DE931C4CBF967518C31A717263","019cf549-29c0-7e44-9efe-c77cb64b1d56","019cf509-e3f1-72d9-bf6b-e2f1118fdaab","","973","
                <div class=""stimulus-container"">
                    <img src=""images/instructions/movie_3.png"" class=""exp-image"">
                    <div class=""question-area"">
                        <p style=""font-size: 20px; font-weight: bold; margin: 0;"">Was there a person in this image?</p>
                    </div>
                </div>","0","example_question","3","","","","","","",""
"","","","","","html-keyboard-response","12","164418","0.0-12.0","2975D6DE931C4CBF967518C31A717263","019cf549-29c0-7e44-9efe-c77cb64b1d56","019cf509-e3f1-72d9-bf6b-e2f1118fdaab","","null","
                <div class=""stimulus-container"">
                    <img src=""images/instructions/movie_4.png"" class=""exp-image"">
                    <div class=""question-area""></div> 
                </div>","null","","","","","","","","",""
"","","","","","html-button-response","13","165380","0.0-13.0","2975D6DE931C4CBF967518C31A717263","019cf549-29c0-7e44-9efe-c77cb64b1d56","019cf509-e3f1-72d9-bf6b-e2f1118fdaab","","961","
                <div class=""stimulus-container"">
                    <img src=""images/instructions/movie_4.png"" class=""exp-image"">
                    <div class=""question-area"">
                        <p style=""font-size: 20px; font-weight: bold; margin: 0;"">Was there a person in this image?</p>
                    </div>
                </div>","0","example_question","4","","","","","","",""
"","","","","","instructions","14","174729","0.0-14.0","2975D6DE931C4CBF967518C31A717263","019cf549-29c0-7e44-9efe-c77cb64b1d56","019cf509-e3f1-72d9-bf6b-e2f1118fdaab","[{""page_index"":0,""viewing_time"":9349}]","9349","","","","","","","","","","",""
"","","","","","instructions","15","183350","0.0-15.0","2975D6DE931C4CBF967518C31A717263","019cf549-29c0-7e44-9efe-c77cb64b1d56","019cf509-e3f1-72d9-bf6b-e2f1118fdaab","[{""page_index"":0,""viewing_time"":8621}]","8621","","","","","","","","","","",""
"","","","","","html-keyboard-response","16","184351","0.0-16.0","2975D6DE931C4CBF967518C31A717263","019cf549-29c0-7e44-9efe-c77cb64b1d56","019cf509-e3f1-72d9-bf6b-e2f1118fdaab","","null","<div style=""background-color: white; width: 100vw; height: 100vh;""></div>","null","","","","","","","","",""
"","","","","","html-keyboard-response","17","189353","0.0-17.0","2975D6DE931C4CBF967518C31A717263","019cf549-29c0-7e44-9efe-c77cb64b1d56","019cf509-e3f1-72d9-bf6b-e2f1118fdaab","","null","
                <div class=""stimulus-container"">
                    <img src=""images/causal_sequence/saving_a_cat_causal/saving_a_cat_causal_1.png"" class=""exp-image"">
                    <div class=""question-area""></div> 
                </div>","null","","","","","","","","",""
"","","","","","html-button-response","18","190194","0.0-18.0","2975D6DE931C4CBF967518C31A717263","019cf549-29c0-7e44-9efe-c77cb64b1d56","019cf509-e3f1-72d9-bf6b-e2f1118fdaab","","841","
                <div class=""stimulus-container"">
                    <img src=""images/causal_sequence/saving_a_cat_causal/saving_a_cat_causal_1.png"" class=""exp-image"">
                    <div class=""question-area"">
                        <p style=""font-size: 20px; font-weight: bold; margin: 0;"">Is there a person in this image?</p>
                    </div>
                </div>","0","main_experiment_trial","1","saving_a_cat_causal","causal_sequence","","","","",""
"","","","","","html-keyboard-response","19","195196","0.0-19.0","2975D6DE931C4CBF967518C31A717263","019cf549-29c0-7e44-9efe-c77cb64b1d56","019cf509-e3f1-72d9-bf6b-e2f1118fdaab","","null","
                <div class=""stimulus-container"">
                    <img src=""images/causal_sequence/saving_a_cat_causal/saving_a_cat_causal_2.png"" class=""exp-image"">
                    <div class=""question-area""></div> 
                </div>","null","","","","","","","","",""
"","","","","","html-button-response","20","196622","0.0-20.0","2975D6DE931C4CBF967518C31A717263","019cf549-29c0-7e44-9efe-c77cb64b1d56","019cf509-e3f1-72d9-bf6b-e2f1118fdaab","","1426","
                <div class=""stimulus-container"">
                    <img src=""images/causal_sequence/saving_a_cat_causal/saving_a_cat_causal_2.png"" class=""exp-image"">
                    <div class=""question-area"">
                        <p style=""font-size: 20px; font-weight: bold; margin: 0;"">Is there a person in this image?</p>
                    </div>
                </div>","1","main_experiment_trial","2","saving_a_cat_causal","causal_sequence","","","","",""
"","","","","","html-keyboard-response","21","201623","0.0-21.0","2975D6DE931C4CBF967518C31A717263","019cf549-29c0-7e44-9efe-c77cb64b1d56","019cf509-e3f1-72d9-bf6b-e2f1118fdaab","","null","
                <div class=""stimulus-container"">
                    <img src=""images/causal_sequence/saving_a_cat_causal/saving_a_cat_causal_3.png"" class=""exp-image"">
                    <div class=""question-area""></div> 
                </div>","null","","","","","","","","",""
"","","","","","html-button-response","22","203027","0.0-22.0","2975D6DE931C4CBF967518C31A717263","019cf549-29c0-7e44-9efe-c77cb64b1d56","019cf509-e3f1-72d9-bf6b-e2f1118fdaab","","1403","
                <div class=""stimulus-container"">
                    <img src=""images/causal_sequence/saving_a_cat_causal/saving_a_cat_causal_3.png"" class=""exp-image"">
                    <div class=""question-area"">
                        <p style=""font-size: 20px; font-weight: bold; margin: 0;"">Is there a person in this image?</p>
                    </div>
                </div>","1","main_experiment_trial","3","saving_a_cat_causal","causal_sequence","","","","",""
"","","","","","html-keyboard-response","23","208028","0.0-23.0","2975D6DE931C4CBF967518C31A717263","019cf549-29c0-7e44-9efe-c77cb64b1d56","019cf509-e3f1-72d9-bf6b-e2f1118fdaab","","null","
                <div class=""stimulus-container"">
                    <img src=""images/causal_sequence/saving_a_cat_causal/saving_a_cat_causal_4.png"" class=""exp-image"">
                    <div class=""question-area""></div> 
                </div>","null","","","","","","","","",""
"","","","","","html-button-response","24","209093","0.0-24.0","2975D6DE931C4CBF967518C31A717263","019cf549-29c0-7e44-9efe-c77cb64b1d56","019cf509-e3f1-72d9-bf6b-e2f1118fdaab","","1064","
                <div class=""stimulus-container"">
                    <img src=""images/causal_sequence/saving_a_cat_causal/saving_a_cat_causal_4.png"" class=""exp-image"">
                    <div class=""question-area"">
                        <p style=""font-size: 20px; font-weight: bold; margin: 0;"">Is there a person in this image?</p>
                    </div>
                </div>","0","main_experiment_trial","4","saving_a_cat_causal","causal_sequence","","","","",""
"","","","","","html-keyboard-response","25","214093","0.0-25.0","2975D6DE931C4CBF967518C31A717263","019cf549-29c0-7e44-9efe-c77cb64b1d56","019cf509-e3f1-72d9-bf6b-e2f1118fdaab","","null","
                <div class=""stimulus-container"">
                    <img src=""images/causal_sequence/saving_a_cat_causal/saving_a_cat_causal_5.png"" class=""exp-image"">
                    <div class=""question-area""></div> 
                </div>","null","","","","","","","","",""
"","","","","","html-button-response","26","215329","0.0-26.0","2975D6DE931C4CBF967518C31A717263","019cf549-29c0-7e44-9efe-c77cb64b1d56","019cf509-e3f1-72d9-bf6b-e2f1118fdaab","","1235","
                <div class=""stimulus-container"">
                    <img src=""images/causal_sequence/saving_a_cat_causal/saving_a_cat_causal_5.png"" class=""exp-image"">
                    <div class=""question-area"">
                        <p style=""font-size: 20px; font-weight: bold; margin: 0;"">Is there a person in this image?</p>
                    </div>
                </div>","0","main_experiment_trial","5","saving_a_cat_causal","causal_sequence","","","","",""
"","","","","","html-keyboard-response","27","220330","0.0-27.0","2975D6DE931C4CBF967518C31A717263","019cf549-29c0-7e44-9efe-c77cb64b1d56","019cf509-e3f1-72d9-bf6b-e2f1118fdaab","","null","
                <div class=""stimulus-container"">
                    <img src=""images/causal_sequence/saving_a_cat_causal/saving_a_cat_causal_6.png"" class=""exp-image"">
                    <div class=""question-area""></div> 
                </div>","null","","","","","","","","",""
"","","","","","html-button-response","28","221505","0.0-28.0","2975D6DE931C4CBF967518C31A717263","019cf549-29c0-7e44-9efe-c77cb64b1d56","019cf509-e3f1-72d9-bf6b-e2f1118fdaab","","1175","
                <div class=""stimulus-container"">
                    <img src=""images/causal_sequence/saving_a_cat_causal/saving_a_cat_causal_6.png"" class=""exp-image"">
                    <div class=""question-area"">
                        <p style=""font-size: 20px; font-weight: bold; margin: 0;"">Is there a person in this image?</p>
                    </div>
                </div>","0","main_experiment_trial","6","saving_a_cat_causal","causal_sequence","","","","",""
"","","","","","html-keyboard-response","29","226506","0.0-29.0","2975D6DE931C4CBF967518C31A717263","019cf549-29c0-7e44-9efe-c77cb64b1d56","019cf509-e3f1-72d9-bf6b-e2f1118fdaab","","null","
                <div class=""stimulus-container"">
                    <img src=""images/causal_sequence/saving_a_cat_causal/saving_a_cat_causal_7.png"" class=""exp-image"">
                    <div class=""question-area""></div> 
                </div>","null","","","","","","","","",""
"","","","","","html-button-response","30","227684","0.0-30.0","2975D6DE931C4CBF967518C31A717263","019cf549-29c0-7e44-9efe-c77cb64b1d56","019cf509-e3f1-72d9-bf6b-e2f1118fdaab","","1177","
                <div class=""stimulus-container"">
                    <img src=""images/causal_sequence/saving_a_cat_causal/saving_a_cat_causal_7.png"" class=""exp-image"">
                    <div class=""question-area"">
                        <p style=""font-size: 20px; font-weight: bold; margin: 0;"">Is there a person in this image?</p>
                    </div>
                </div>","0","main_experiment_trial","7","saving_a_cat_causal","causal_sequence","","","","",""
"","","","","","html-keyboard-response","31","232686","0.0-31.0","2975D6DE931C4CBF967518C31A717263","019cf549-29c0-7e44-9efe-c77cb64b1d56","019cf509-e3f1-72d9-bf6b-e2f1118fdaab","","null","
                <div class=""stimulus-container"">
                    <img src=""images/causal_sequence/saving_a_cat_causal/saving_a_cat_causal_8.png"" class=""exp-image"">
                    <div class=""question-area""></div> 
                </div>","null","","","","","","","","",""
"","","","","","html-button-response","32","233917","0.0-32.0","2975D6DE931C4CBF967518C31A717263","019cf549-29c0-7e44-9efe-c77cb64b1d56","019cf509-e3f1-72d9-bf6b-e2f1118fdaab","","1230","
                <div class=""stimulus-container"">
                    <img src=""images/causal_sequence/saving_a_cat_causal/saving_a_cat_causal_8.png"" class=""exp-image"">
                    <div class=""question-area"">
                        <p style=""font-size: 20px; font-weight: bold; margin: 0;"">Is there a person in this image?</p>
                    </div>
                </div>","0","main_experiment_trial","8","saving_a_cat_causal","causal_sequence","","","","",""
"","","","","","html-keyboard-response","33","238919","0.0-33.0","2975D6DE931C4CBF967518C31A717263","019cf549-29c0-7e44-9efe-c77cb64b1d56","019cf509-e3f1-72d9-bf6b-e2f1118fdaab","","null","
                <div class=""stimulus-container"">
                    <img src=""images/causal_sequence/saving_a_cat_causal/saving_a_cat_causal_9.png"" class=""exp-image"">
                    <div class=""question-area""></div> 
                </div>","null","","","","","","","","",""
"","","","","","html-button-response","34","239981","0.0-34.0","2975D6DE931C4CBF967518C31A717263","019cf549-29c0-7e44-9efe-c77cb64b1d56","019cf509-e3f1-72d9-bf6b-e2f1118fdaab","","1060","
                <div class=""stimulus-container"">
                    <img src=""images/causal_sequence/saving_a_cat_causal/saving_a_cat_causal_9.png"" class=""exp-image"">
                    <div class=""question-area"">
                        <p style=""font-size: 20px; font-weight: bold; margin: 0;"">Is there a person in this image?</p>
                    </div>
                </div>","0","main_experiment_trial","9","saving_a_cat_causal","causal_sequence","","","","",""
"","","","","","html-keyboard-response","35","244982","0.0-35.0","2975D6DE931C4CBF967518C31A717263","019cf549-29c0-7e44-9efe-c77cb64b1d56","019cf509-e3f1-72d9-bf6b-e2f1118fdaab","","null","
                <div class=""stimulus-container"">
                    <img src=""images/causal_sequence/saving_a_cat_causal/saving_a_cat_causal_ten.png"" class=""exp-image"">
                    <div class=""question-area""></div> 
                </div>","null","","","","","","","","",""
"","","","","","html-button-response","36","245928","0.0-36.0","2975D6DE931C4CBF967518C31A717263","019cf549-29c0-7e44-9efe-c77cb64b1d56","019cf509-e3f1-72d9-bf6b-e2f1118fdaab","","945","
                <div class=""stimulus-container"">
                    <img src=""images/causal_sequence/saving_a_cat_causal/saving_a_cat_causal_ten.png"" class=""exp-image"">
                    <div class=""question-area"">
                        <p style=""font-size: 20px; font-weight: bold; margin: 0;"">Is there a person in this image?</p>
                    </div>
                </div>","0","main_experiment_trial","ten","saving_a_cat_causal","causal_sequence","","","","",""
"","","","","","html-keyboard-response","37","246928","0.0-37.0","2975D6DE931C4CBF967518C31A717263","019cf549-29c0-7e44-9efe-c77cb64b1d56","019cf509-e3f1-72d9-bf6b-e2f1118fdaab","","null","<div style=""background-color: white; width: 100vw; height: 100vh;""></div>","null","","","","","","","","",""
"","","","","","html-keyboard-response","38","251929","0.0-38.0","2975D6DE931C4CBF967518C31A717263","019cf549-29c0-7e44-9efe-c77cb64b1d56","019cf509-e3f1-72d9-bf6b-e2f1118fdaab","","null","
                <div class=""stimulus-container"">
                    <img src=""images/schematic_sequence/interview_scheme/interview_scheme_1.png"" class=""exp-image"">
                    <div class=""question-area""></div> 
                </div>","null","","","","","","","","",""
"","","","","","html-button-response","39","253231","0.0-39.0","2975D6DE931C4CBF967518C31A717263","019cf549-29c0-7e44-9efe-c77cb64b1d56","019cf509-e3f1-72d9-bf6b-e2f1118fdaab","","1302","
                <div class=""stimulus-container"">
                    <img src=""images/schematic_sequence/interview_scheme/interview_scheme_1.png"" class=""exp-image"">
                    <div class=""question-area"">
                        <p style=""font-size: 20px; font-weight: bold; margin: 0;"">Is there a person in this image?</p>
                    </div>
                </div>","1","main_experiment_trial","1","interview_scheme","schematic_sequence","","","","",""
"","","","","","html-keyboard-response","40","258232","0.0-40.0","2975D6DE931C4CBF967518C31A717263","019cf549-29c0-7e44-9efe-c77cb64b1d56","019cf509-e3f1-72d9-bf6b-e2f1118fdaab","","null","
                <div class=""stimulus-container"">
                    <img src=""images/schematic_sequence/interview_scheme/interview_scheme_2.png"" class=""exp-image"">
                    <div class=""question-area""></div> 
                </div>","null","","","","","","","","",""
"","","","","","html-button-response","41","261234","0.0-41.0","2975D6DE931C4CBF967518C31A717263","019cf549-29c0-7e44-9efe-c77cb64b1d56","019cf509-e3f1-72d9-bf6b-e2f1118fdaab","","null","
                <div class=""stimulus-container"">
                    <img src=""images/schematic_sequence/interview_scheme/interview_scheme_2.png"" class=""exp-image"">
                    <div class=""question-area"">
                        <p style=""font-size: 20px; font-weight: bold; margin: 0;"">Is there a person in this image?</p>
                    </div>
                </div>","null","main_experiment_trial","2","interview_scheme","schematic_sequence","","","","",""
"","","","","","html-keyboard-response","42","266236","0.0-42.0","2975D6DE931C4CBF967518C31A717263","019cf549-29c0-7e44-9efe-c77cb64b1d56","019cf509-e3f1-72d9-bf6b-e2f1118fdaab","","null","
                <div class=""stimulus-container"">
                    <img src=""images/schematic_sequence/interview_scheme/interview_scheme_3.png"" class=""exp-image"">
                    <div class=""question-area""></div> 
                </div>","null","","","","","","","","",""
"","","","","","html-button-response","43","269238","0.0-43.0","2975D6DE931C4CBF967518C31A717263","019cf549-29c0-7e44-9efe-c77cb64b1d56","019cf509-e3f1-72d9-bf6b-e2f1118fdaab","","null","
                <div class=""stimulus-container"">
                    <img src=""images/schematic_sequence/interview_scheme/interview_scheme_3.png"" class=""exp-image"">
                    <div class=""question-area"">
                        <p style=""font-size: 20px; font-weight: bold; margin: 0;"">Is there a person in this image?</p>
                    </div>
                </div>","null","main_experiment_trial","3","interview_scheme","schematic_sequence","","","","",""
"","","","","","html-keyboard-response","44","274239","0.0-44.0","2975D6DE931C4CBF967518C31A717263","019cf549-29c0-7e44-9efe-c77cb64b1d56","019cf509-e3f1-72d9-bf6b-e2f1118fdaab","","null","
                <div class=""stimulus-container"">
                    <img src=""images/schematic_sequence/interview_scheme/interview_scheme_4.png"" class=""exp-image"">
                    <div class=""question-area""></div> 
                </div>","null","","","","","","","","",""
"","","","","","html-button-response","45","274886","0.0-45.0","2975D6DE931C4CBF967518C31A717263","019cf549-29c0-7e44-9efe-c77cb64b1d56","019cf509-e3f1-72d9-bf6b-e2f1118fdaab","","646","
                <div class=""stimulus-container"">
                    <img src=""images/schematic_sequence/interview_scheme/interview_scheme_4.png"" class=""exp-image"">
                    <div class=""question-area"">
                        <p style=""font-size: 20px; font-weight: bold; margin: 0;"">Is there a person in this image?</p>
                    </div>
                </div>","1","main_experiment_trial","4","interview_scheme","schematic_sequence","","","","",""
"","","","","","html-keyboard-response","46","279887","0.0-46.0","2975D6DE931C4CBF967518C31A717263","019cf549-29c0-7e44-9efe-c77cb64b1d56","019cf509-e3f1-72d9-bf6b-e2f1118fdaab","","null","
                <div class=""stimulus-container"">
                    <img src=""images/schematic_sequence/interview_scheme/interview_scheme_5.png"" class=""exp-image"">
                    <div class=""question-area""></div> 
                </div>","null","","","","","","","","",""
"","","","","","html-button-response","47","281606","0.0-47.0","2975D6DE931C4CBF967518C31A717263","019cf549-29c0-7e44-9efe-c77cb64b1d56","019cf509-e3f1-72d9-bf6b-e2f1118fdaab","","1718","
                <div class=""stimulus-container"">
                    <img src=""images/schematic_sequence/interview_scheme/interview_scheme_5.png"" class=""exp-image"">
                    <div class=""question-area"">
                        <p style=""font-size: 20px; font-weight: bold; margin: 0;"">Is there a person in this image?</p>
                    </div>
                </div>","0","main_experiment_trial","5","interview_scheme","schematic_sequence","","","","",""
"","","","","","html-keyboard-response","48","286606","0.0-48.0","2975D6DE931C4CBF967518C31A717263","019cf549-29c0-7e44-9efe-c77cb64b1d56","019cf509-e3f1-72d9-bf6b-e2f1118fdaab","","null","
                <div class=""stimulus-container"">
                    <img src=""images/schematic_sequence/interview_scheme/interview_scheme_6.png"" class=""exp-image"">
                    <div class=""question-area""></div> 
                </div>","null","","","","","","","","",""
"","","","","","html-button-response","49","287535","0.0-49.0","2975D6DE931C4CBF967518C31A717263","019cf549-29c0-7e44-9efe-c77cb64b1d56","019cf509-e3f1-72d9-bf6b-e2f1118fdaab","","928","
                <div class=""stimulus-container"">
                    <img src=""images/schematic_sequence/interview_scheme/interview_scheme_6.png"" class=""exp-image"">
                    <div class=""question-area"">
                        <p style=""font-size: 20px; font-weight: bold; margin: 0;"">Is there a person in this image?</p>
                    </div>
                </div>","0","main_experiment_trial","6","interview_scheme","schematic_sequence","","","","",""
"","","","","","html-keyboard-response","50","292536","0.0-50.0","2975D6DE931C4CBF967518C31A717263","019cf549-29c0-7e44-9efe-c77cb64b1d56","019cf509-e3f1-72d9-bf6b-e2f1118fdaab","","null","
                <div class=""stimulus-container"">
                    <img src=""images/schematic_sequence/interview_scheme/interview_scheme_7.png"" class=""exp-image"">
                    <div class=""question-area""></div> 
                </div>","null","","","","","","","","",""
"","","","","","html-button-response","51","293861","0.0-51.0","2975D6DE931C4CBF967518C31A717263","019cf549-29c0-7e44-9efe-c77cb64b1d56","019cf509-e3f1-72d9-bf6b-e2f1118fdaab","","1325","
                <div class=""stimulus-container"">
                    <img src=""images/schematic_sequence/interview_scheme/interview_scheme_7.png"" class=""exp-image"">
                    <div class=""question-area"">
                        <p style=""font-size: 20px; font-weight: bold; margin: 0;"">Is there a person in this image?</p>
                    </div>
                </div>","0","main_experiment_trial","7","interview_scheme","schematic_sequence","","","","",""
"","","","","","html-keyboard-response","52","298862","0.0-52.0","2975D6DE931C4CBF967518C31A717263","019cf549-29c0-7e44-9efe-c77cb64b1d56","019cf509-e3f1-72d9-bf6b-e2f1118fdaab","","null","
                <div class=""stimulus-container"">
                    <img src=""images/schematic_sequence/interview_scheme/interview_scheme_8.png"" class=""exp-image"">
                    <div class=""question-area""></div> 
                </div>","null","","","","","","","","",""
"","","","","","html-button-response","53","299683","0.0-53.0","2975D6DE931C4CBF967518C31A717263","019cf549-29c0-7e44-9efe-c77cb64b1d56","019cf509-e3f1-72d9-bf6b-e2f1118fdaab","","820","
                <div class=""stimulus-container"">
                    <img src=""images/schematic_sequence/interview_scheme/interview_scheme_8.png"" class=""exp-image"">
                    <div class=""question-area"">
                        <p style=""font-size: 20px; font-weight: bold; margin: 0;"">Is there a person in this image?</p>
                    </div>
                </div>","0","main_experiment_trial","8","interview_scheme","schematic_sequence","","","","",""
"","","","","","html-keyboard-response","54","304685","0.0-54.0","2975D6DE931C4CBF967518C31A717263","019cf549-29c0-7e44-9efe-c77cb64b1d56","019cf509-e3f1-72d9-bf6b-e2f1118fdaab","","null","
                <div class=""stimulus-container"">
                    <img src=""images/schematic_sequence/interview_scheme/interview_scheme_9.png"" class=""exp-image"">
                    <div class=""question-area""></div> 
                </div>","null","","","","","","","","",""
"","","","","","html-button-response","55","305589","0.0-55.0","2975D6DE931C4CBF967518C31A717263","019cf549-29c0-7e44-9efe-c77cb64b1d56","019cf509-e3f1-72d9-bf6b-e2f1118fdaab","","903","
                <div class=""stimulus-container"">
                    <img src=""images/schematic_sequence/interview_scheme/interview_scheme_9.png"" class=""exp-image"">
                    <div class=""question-area"">
                        <p style=""font-size: 20px; font-weight: bold; margin: 0;"">Is there a person in this image?</p>
                    </div>
                </div>","0","main_experiment_trial","9","interview_scheme","schematic_sequence","","","","",""
"","","","","","html-keyboard-response","56","310590","0.0-56.0","2975D6DE931C4CBF967518C31A717263","019cf549-29c0-7e44-9efe-c77cb64b1d56","019cf509-e3f1-72d9-bf6b-e2f1118fdaab","","null","
                <div class=""stimulus-container"">
                    <img src=""images/schematic_sequence/interview_scheme/interview_scheme_ten.png"" class=""exp-image"">
                    <div class=""question-area""></div> 
                </div>","null","","","","","","","","",""
"","","","","","html-button-response","57","311434","0.0-57.0","2975D6DE931C4CBF967518C31A717263","019cf549-29c0-7e44-9efe-c77cb64b1d56","019cf509-e3f1-72d9-bf6b-e2f1118fdaab","","843","
                <div class=""stimulus-container"">
                    <img src=""images/schematic_sequence/interview_scheme/interview_scheme_ten.png"" class=""exp-image"">
                    <div class=""question-area"">
                        <p style=""font-size: 20px; font-weight: bold; margin: 0;"">Is there a person in this image?</p>
                    </div>
                </div>","0","main_experiment_trial","ten","interview_scheme","schematic_sequence","","","","",""
"","","","","","html-keyboard-response","58","312436","0.0-58.0","2975D6DE931C4CBF967518C31A717263","019cf549-29c0-7e44-9efe-c77cb64b1d56","019cf509-e3f1-72d9-bf6b-e2f1118fdaab","","null","<div style=""background-color: white; width: 100vw; height: 100vh;""></div>","null","","","","","","","","",""
"","","","","","html-keyboard-response","59","317440","0.0-59.0","2975D6DE931C4CBF967518C31A717263","019cf549-29c0-7e44-9efe-c77cb64b1d56","019cf509-e3f1-72d9-bf6b-e2f1118fdaab","","null","
                <div class=""stimulus-container"">
                    <img src=""images/causal_sequence/package_causal/package_causal_1.png"" class=""exp-image"">
                    <div class=""question-area""></div> 
                </div>","null","","","","","","","","",""
"","","","","","html-button-response","60","318335","0.0-60.0","2975D6DE931C4CBF967518C31A717263","019cf549-29c0-7e44-9efe-c77cb64b1d56","019cf509-e3f1-72d9-bf6b-e2f1118fdaab","","895","
                <div class=""stimulus-container"">
                    <img src=""images/causal_sequence/package_causal/package_causal_1.png"" class=""exp-image"">
                    <div class=""question-area"">
                        <p style=""font-size: 20px; font-weight: bold; margin: 0;"">Is there a person in this image?</p>
                    </div>
                </div>","0","main_experiment_trial","1","package_causal","causal_sequence","","","","",""
"","","","","","html-keyboard-response","61","323336","0.0-61.0","2975D6DE931C4CBF967518C31A717263","019cf549-29c0-7e44-9efe-c77cb64b1d56","019cf509-e3f1-72d9-bf6b-e2f1118fdaab","","null","
                <div class=""stimulus-container"">
                    <img src=""images/causal_sequence/package_causal/package_causal_2.png"" class=""exp-image"">
                    <div class=""question-area""></div> 
                </div>","null","","","","","","","","",""
"","","","","","html-button-response","62","324403","0.0-62.0","2975D6DE931C4CBF967518C31A717263","019cf549-29c0-7e44-9efe-c77cb64b1d56","019cf509-e3f1-72d9-bf6b-e2f1118fdaab","","1066","
                <div class=""stimulus-container"">
                    <img src=""images/causal_sequence/package_causal/package_causal_2.png"" class=""exp-image"">
                    <div class=""question-area"">
                        <p style=""font-size: 20px; font-weight: bold; margin: 0;"">Is there a person in this image?</p>
                    </div>
                </div>","0","main_experiment_trial","2","package_causal","causal_sequence","","","","",""
"","","","","","html-keyboard-response","63","329404","0.0-63.0","2975D6DE931C4CBF967518C31A717263","019cf549-29c0-7e44-9efe-c77cb64b1d56","019cf509-e3f1-72d9-bf6b-e2f1118fdaab","","null","
                <div class=""stimulus-container"">
                    <img src=""images/causal_sequence/package_causal/package_causal_3.png"" class=""exp-image"">
                    <div class=""question-area""></div> 
                </div>","null","","","","","","","","",""
"","","","","","html-button-response","64","330381","0.0-64.0","2975D6DE931C4CBF967518C31A717263","019cf549-29c0-7e44-9efe-c77cb64b1d56","019cf509-e3f1-72d9-bf6b-e2f1118fdaab","","977","
                <div class=""stimulus-container"">
                    <img src=""images/causal_sequence/package_causal/package_causal_3.png"" class=""exp-image"">
                    <div class=""question-area"">
                        <p style=""font-size: 20px; font-weight: bold; margin: 0;"">Is there a person in this image?</p>
                    </div>
                </div>","0","main_experiment_trial","3","package_causal","causal_sequence","","","","",""
"","","","","","html-keyboard-response","65","335383","0.0-65.0","2975D6DE931C4CBF967518C31A717263","019cf549-29c0-7e44-9efe-c77cb64b1d56","019cf509-e3f1-72d9-bf6b-e2f1118fdaab","","null","
                <div class=""stimulus-container"">
                    <img src=""images/causal_sequence/package_causal/package_causal_4.png"" class=""exp-image"">
                    <div class=""question-area""></div> 
                </div>","null","","","","","","","","",""
"","","","","","html-button-response","66","336928","0.0-66.0","2975D6DE931C4CBF967518C31A717263","019cf549-29c0-7e44-9efe-c77cb64b1d56","019cf509-e3f1-72d9-bf6b-e2f1118fdaab","","1544","
                <div class=""stimulus-container"">
                    <img src=""images/causal_sequence/package_causal/package_causal_4.png"" class=""exp-image"">
                    <div class=""question-area"">
                        <p style=""font-size: 20px; font-weight: bold; margin: 0;"">Is there a person in this image?</p>
                    </div>
                </div>","1","main_experiment_trial","4","package_causal","causal_sequence","","","","",""
"","","","","","html-keyboard-response","67","341930","0.0-67.0","2975D6DE931C4CBF967518C31A717263","019cf549-29c0-7e44-9efe-c77cb64b1d56","019cf509-e3f1-72d9-bf6b-e2f1118fdaab","","null","
                <div class=""stimulus-container"">
                    <img src=""images/causal_sequence/package_causal/package_causal_5.png"" class=""exp-image"">
                    <div class=""question-area""></div> 
                </div>","null","","","","","","","","",""
"","","","","","html-button-response","68","343111","0.0-68.0","2975D6DE931C4CBF967518C31A717263","019cf549-29c0-7e44-9efe-c77cb64b1d56","019cf509-e3f1-72d9-bf6b-e2f1118fdaab","","1180","
                <div class=""stimulus-container"">
                    <img src=""images/causal_sequence/package_causal/package_causal_5.png"" class=""exp-image"">
                    <div class=""question-area"">
                        <p style=""font-size: 20px; font-weight: bold; margin: 0;"">Is there a person in this image?</p>
                    </div>
                </div>","0","main_experiment_trial","5","package_causal","causal_sequence","","","","",""
"","","","","","html-keyboard-response","69","348111","0.0-69.0","2975D6DE931C4CBF967518C31A717263","019cf549-29c0-7e44-9efe-c77cb64b1d56","019cf509-e3f1-72d9-bf6b-e2f1118fdaab","","null","
                <div class=""stimulus-container"">
                    <img src=""images/causal_sequence/package_causal/package_causal_6.png"" class=""exp-image"">
                    <div class=""question-area""></div> 
                </div>","null","","","","","","","","",""
"","","","","","html-button-response","70","349646","0.0-70.0","2975D6DE931C4CBF967518C31A717263","019cf549-29c0-7e44-9efe-c77cb64b1d56","019cf509-e3f1-72d9-bf6b-e2f1118fdaab","","1534","
                <div class=""stimulus-container"">
                    <img src=""images/causal_sequence/package_causal/package_causal_6.png"" class=""exp-image"">
                    <div class=""question-area"">
                        <p style=""font-size: 20px; font-weight: bold; margin: 0;"">Is there a person in this image?</p>
                    </div>
                </div>","0","main_experiment_trial","6","package_causal","causal_sequence","","","","",""
"","","","","","html-keyboard-response","71","354647","0.0-71.0","2975D6DE931C4CBF967518C31A717263","019cf549-29c0-7e44-9efe-c77cb64b1d56","019cf509-e3f1-72d9-bf6b-e2f1118fdaab","","null","
                <div class=""stimulus-container"">
                    <img src=""images/causal_sequence/package_causal/package_causal_7.png"" class=""exp-image"">
                    <div class=""question-area""></div> 
                </div>","null","","","","","","","","",""
"","","","","","html-button-response","72","355932","0.0-72.0","2975D6DE931C4CBF967518C31A717263","019cf549-29c0-7e44-9efe-c77cb64b1d56","019cf509-e3f1-72d9-bf6b-e2f1118fdaab","","1285","
                <div class=""stimulus-container"">
                    <img src=""images/causal_sequence/package_causal/package_causal_7.png"" class=""exp-image"">
                    <div class=""question-area"">
                        <p style=""font-size: 20px; font-weight: bold; margin: 0;"">Is there a person in this image?</p>
                    </div>
                </div>","0","main_experiment_trial","7","package_causal","causal_sequence","","","","",""
"","","","","","html-keyboard-response","73","360934","0.0-73.0","2975D6DE931C4CBF967518C31A717263","019cf549-29c0-7e44-9efe-c77cb64b1d56","019cf509-e3f1-72d9-bf6b-e2f1118fdaab","","null","
                <div class=""stimulus-container"">
                    <img src=""images/causal_sequence/package_causal/package_causal_8.png"" class=""exp-image"">
                    <div class=""question-area""></div> 
                </div>","null","","","","","","","","",""
"","","","","","html-button-response","74","362560","0.0-74.0","2975D6DE931C4CBF967518C31A717263","019cf549-29c0-7e44-9efe-c77cb64b1d56","019cf509-e3f1-72d9-bf6b-e2f1118fdaab","","1626","
                <div class=""stimulus-container"">
                    <img src=""images/causal_sequence/package_causal/package_causal_8.png"" class=""exp-image"">
                    <div class=""question-area"">
                        <p style=""font-size: 20px; font-weight: bold; margin: 0;"">Is there a person in this image?</p>
                    </div>
                </div>","0","main_experiment_trial","8","package_causal","causal_sequence","","","","",""
"","","","","","html-keyboard-response","75","367561","0.0-75.0","2975D6DE931C4CBF967518C31A717263","019cf549-29c0-7e44-9efe-c77cb64b1d56","019cf509-e3f1-72d9-bf6b-e2f1118fdaab","","null","
                <div class=""stimulus-container"">
                    <img src=""images/causal_sequence/package_causal/package_causal_9.png"" class=""exp-image"">
                    <div class=""question-area""></div> 
                </div>","null","","","","","","","","",""
"","","","","","html-button-response","76","368832","0.0-76.0","2975D6DE931C4CBF967518C31A717263","019cf549-29c0-7e44-9efe-c77cb64b1d56","019cf509-e3f1-72d9-bf6b-e2f1118fdaab","","1271","
                <div class=""stimulus-container"">
                    <img src=""images/causal_sequence/package_causal/package_causal_9.png"" class=""exp-image"">
                    <div class=""question-area"">
                        <p style=""font-size: 20px; font-weight: bold; margin: 0;"">Is there a person in this image?</p>
                    </div>
                </div>","0","main_experiment_trial","9","package_causal","causal_sequence","","","","",""
"","","","","","html-keyboard-response","77","373834","0.0-77.0","2975D6DE931C4CBF967518C31A717263","019cf549-29c0-7e44-9efe-c77cb64b1d56","019cf509-e3f1-72d9-bf6b-e2f1118fdaab","","null","
                <div class=""stimulus-container"">
                    <img src=""images/causal_sequence/package_causal/package_causal_ten.png"" class=""exp-image"">
                    <div class=""question-area""></div> 
                </div>","null","","","","","","","","",""
"","","","","","html-button-response","78","376835","0.0-78.0","2975D6DE931C4CBF967518C31A717263","019cf549-29c0-7e44-9efe-c77cb64b1d56","019cf509-e3f1-72d9-bf6b-e2f1118fdaab","","null","
                <div class=""stimulus-container"">
                    <img src=""images/causal_sequence/package_causal/package_causal_ten.png"" class=""exp-image"">
                    <div class=""question-area"">
                        <p style=""font-size: 20px; font-weight: bold; margin: 0;"">Is there a person in this image?</p>
                    </div>
                </div>","null","main_experiment_trial","ten","package_causal","causal_sequence","","","","",""
"","","","","","html-keyboard-response","79","377837","0.0-79.0","2975D6DE931C4CBF967518C31A717263","019cf549-29c0-7e44-9efe-c77cb64b1d56","019cf509-e3f1-72d9-bf6b-e2f1118fdaab","","null","<div style=""background-color: white; width: 100vw; height: 100vh;""></div>","null","","","","","","","","",""
"","","","","","html-keyboard-response","80","382839","0.0-80.0","2975D6DE931C4CBF967518C31A717263","019cf549-29c0-7e44-9efe-c77cb64b1d56","019cf509-e3f1-72d9-bf6b-e2f1118fdaab","","null","
                <div class=""stimulus-container"">
                    <img src=""images/schematic_sequence/flight_scheme/flight_scheme_1.png"" class=""exp-image"">
                    <div class=""question-area""></div> 
                </div>","null","","","","","","","","",""
"","","","","","html-button-response","81","385425","0.0-81.0","2975D6DE931C4CBF967518C31A717263","019cf549-29c0-7e44-9efe-c77cb64b1d56","019cf509-e3f1-72d9-bf6b-e2f1118fdaab","","2587","
                <div class=""stimulus-container"">
                    <img src=""images/schematic_sequence/flight_scheme/flight_scheme_1.png"" class=""exp-image"">
                    <div class=""question-area"">
                        <p style=""font-size: 20px; font-weight: bold; margin: 0;"">Is there a person in this image?</p>
                    </div>
                </div>","0","main_experiment_trial","1","flight_scheme","schematic_sequence","","","","",""
"","","","","","html-keyboard-response","82","390426","0.0-82.0","2975D6DE931C4CBF967518C31A717263","019cf549-29c0-7e44-9efe-c77cb64b1d56","019cf509-e3f1-72d9-bf6b-e2f1118fdaab","","null","
                <div class=""stimulus-container"">
                    <img src=""images/schematic_sequence/flight_scheme/flight_scheme_2.png"" class=""exp-image"">
                    <div class=""question-area""></div> 
                </div>","null","","","","","","","","",""
"","","","","","html-button-response","83","391255","0.0-83.0","2975D6DE931C4CBF967518C31A717263","019cf549-29c0-7e44-9efe-c77cb64b1d56","019cf509-e3f1-72d9-bf6b-e2f1118fdaab","","828","
                <div class=""stimulus-container"">
                    <img src=""images/schematic_sequence/flight_scheme/flight_scheme_2.png"" class=""exp-image"">
                    <div class=""question-area"">
                        <p style=""font-size: 20px; font-weight: bold; margin: 0;"">Is there a person in this image?</p>
                    </div>
                </div>","1","main_experiment_trial","2","flight_scheme","schematic_sequence","","","","",""
"","","","","","html-keyboard-response","84","396257","0.0-84.0","2975D6DE931C4CBF967518C31A717263","019cf549-29c0-7e44-9efe-c77cb64b1d56","019cf509-e3f1-72d9-bf6b-e2f1118fdaab","","null","
                <div class=""stimulus-container"">
                    <img src=""images/schematic_sequence/flight_scheme/flight_scheme_3.png"" class=""exp-image"">
                    <div class=""question-area""></div> 
                </div>","null","","","","","","","","",""
"","","","","","html-button-response","85","397889","0.0-85.0","2975D6DE931C4CBF967518C31A717263","019cf549-29c0-7e44-9efe-c77cb64b1d56","019cf509-e3f1-72d9-bf6b-e2f1118fdaab","","1632","
                <div class=""stimulus-container"">
                    <img src=""images/schematic_sequence/flight_scheme/flight_scheme_3.png"" class=""exp-image"">
                    <div class=""question-area"">
                        <p style=""font-size: 20px; font-weight: bold; margin: 0;"">Is there a person in this image?</p>
                    </div>
                </div>","0","main_experiment_trial","3","flight_scheme","schematic_sequence","","","","",""
"","","","","","html-keyboard-response","86","402891","0.0-86.0","2975D6DE931C4CBF967518C31A717263","019cf549-29c0-7e44-9efe-c77cb64b1d56","019cf509-e3f1-72d9-bf6b-e2f1118fdaab","","null","
                <div class=""stimulus-container"">
                    <img src=""images/schematic_sequence/flight_scheme/flight_scheme_4.png"" class=""exp-image"">
                    <div class=""question-area""></div> 
                </div>","null","","","","","","","","",""
"","","","","","html-button-response","87","405893","0.0-87.0","2975D6DE931C4CBF967518C31A717263","019cf549-29c0-7e44-9efe-c77cb64b1d56","019cf509-e3f1-72d9-bf6b-e2f1118fdaab","","null","
                <div class=""stimulus-container"">
                    <img src=""images/schematic_sequence/flight_scheme/flight_scheme_4.png"" class=""exp-image"">
                    <div class=""question-area"">
                        <p style=""font-size: 20px; font-weight: bold; margin: 0;"">Is there a person in this image?</p>
                    </div>
                </div>","null","main_experiment_trial","4","flight_scheme","schematic_sequence","","","","",""
"","","","","","html-keyboard-response","88","410894","0.0-88.0","2975D6DE931C4CBF967518C31A717263","019cf549-29c0-7e44-9efe-c77cb64b1d56","019cf509-e3f1-72d9-bf6b-e2f1118fdaab","","null","
                <div class=""stimulus-container"">
                    <img src=""images/schematic_sequence/flight_scheme/flight_scheme_5.png"" class=""exp-image"">
                    <div class=""question-area""></div> 
                </div>","null","","","","","","","","",""
"","","","","","html-button-response","89","412026","0.0-89.0","2975D6DE931C4CBF967518C31A717263","019cf549-29c0-7e44-9efe-c77cb64b1d56","019cf509-e3f1-72d9-bf6b-e2f1118fdaab","","1132","
                <div class=""stimulus-container"">
                    <img src=""images/schematic_sequence/flight_scheme/flight_scheme_5.png"" class=""exp-image"">
                    <div class=""question-area"">
                        <p style=""font-size: 20px; font-weight: bold; margin: 0;"">Is there a person in this image?</p>
                    </div>
                </div>","0","main_experiment_trial","5","flight_scheme","schematic_sequence","","","","",""
"","","","","","html-keyboard-response","90","417028","0.0-90.0","2975D6DE931C4CBF967518C31A717263","019cf549-29c0-7e44-9efe-c77cb64b1d56","019cf509-e3f1-72d9-bf6b-e2f1118fdaab","","null","
                <div class=""stimulus-container"">
                    <img src=""images/schematic_sequence/flight_scheme/flight_scheme_6.png"" class=""exp-image"">
                    <div class=""question-area""></div> 
                </div>","null","","","","","","","","",""
"","","","","","html-button-response","91","418446","0.0-91.0","2975D6DE931C4CBF967518C31A717263","019cf549-29c0-7e44-9efe-c77cb64b1d56","019cf509-e3f1-72d9-bf6b-e2f1118fdaab","","1417","
                <div class=""stimulus-container"">
                    <img src=""images/schematic_sequence/flight_scheme/flight_scheme_6.png"" class=""exp-image"">
                    <div class=""question-area"">
                        <p style=""font-size: 20px; font-weight: bold; margin: 0;"">Is there a person in this image?</p>
                    </div>
                </div>","1","main_experiment_trial","6","flight_scheme","schematic_sequence","","","","",""
"","","","","","html-keyboard-response","92","423447","0.0-92.0","2975D6DE931C4CBF967518C31A717263","019cf549-29c0-7e44-9efe-c77cb64b1d56","019cf509-e3f1-72d9-bf6b-e2f1118fdaab","","null","
                <div class=""stimulus-container"">
                    <img src=""images/schematic_sequence/flight_scheme/flight_scheme_7.png"" class=""exp-image"">
                    <div class=""question-area""></div> 
                </div>","null","","","","","","","","",""
"","","","","","html-button-response","93","425978","0.0-93.0","2975D6DE931C4CBF967518C31A717263","019cf549-29c0-7e44-9efe-c77cb64b1d56","019cf509-e3f1-72d9-bf6b-e2f1118fdaab","","2530","
                <div class=""stimulus-container"">
                    <img src=""images/schematic_sequence/flight_scheme/flight_scheme_7.png"" class=""exp-image"">
                    <div class=""question-area"">
                        <p style=""font-size: 20px; font-weight: bold; margin: 0;"">Is there a person in this image?</p>
                    </div>
                </div>","0","main_experiment_trial","7","flight_scheme","schematic_sequence","","","","",""
"","","","","","html-keyboard-response","94","430979","0.0-94.0","2975D6DE931C4CBF967518C31A717263","019cf549-29c0-7e44-9efe-c77cb64b1d56","019cf509-e3f1-72d9-bf6b-e2f1118fdaab","","null","
                <div class=""stimulus-container"">
                    <img src=""images/schematic_sequence/flight_scheme/flight_scheme_8.png"" class=""exp-image"">
                    <div class=""question-area""></div> 
                </div>","null","","","","","","","","",""
"","","","","","html-button-response","95","433064","0.0-95.0","2975D6DE931C4CBF967518C31A717263","019cf549-29c0-7e44-9efe-c77cb64b1d56","019cf509-e3f1-72d9-bf6b-e2f1118fdaab","","2085","
                <div class=""stimulus-container"">
                    <img src=""images/schematic_sequence/flight_scheme/flight_scheme_8.png"" class=""exp-image"">
                    <div class=""question-area"">
                        <p style=""font-size: 20px; font-weight: bold; margin: 0;"">Is there a person in this image?</p>
                    </div>
                </div>","1","main_experiment_trial","8","flight_scheme","schematic_sequence","","","","",""
"","","","","","html-keyboard-response","96","438065","0.0-96.0","2975D6DE931C4CBF967518C31A717263","019cf549-29c0-7e44-9efe-c77cb64b1d56","019cf509-e3f1-72d9-bf6b-e2f1118fdaab","","null","
                <div class=""stimulus-container"">
                    <img src=""images/schematic_sequence/flight_scheme/flight_scheme_9.png"" class=""exp-image"">
                    <div class=""question-area""></div> 
                </div>","null","","","","","","","","",""
"","","","","","html-button-response","97","440401","0.0-97.0","2975D6DE931C4CBF967518C31A717263","019cf549-29c0-7e44-9efe-c77cb64b1d56","019cf509-e3f1-72d9-bf6b-e2f1118fdaab","","2335","
                <div class=""stimulus-container"">
                    <img src=""images/schematic_sequence/flight_scheme/flight_scheme_9.png"" class=""exp-image"">
                    <div class=""question-area"">
                        <p style=""font-size: 20px; font-weight: bold; margin: 0;"">Is there a person in this image?</p>
                    </div>
                </div>","0","main_experiment_trial","9","flight_scheme","schematic_sequence","","","","",""
"","","","","","html-keyboard-response","98","445402","0.0-98.0","2975D6DE931C4CBF967518C31A717263","019cf549-29c0-7e44-9efe-c77cb64b1d56","019cf509-e3f1-72d9-bf6b-e2f1118fdaab","","null","
                <div class=""stimulus-container"">
                    <img src=""images/schematic_sequence/flight_scheme/flight_scheme_ten.png"" class=""exp-image"">
                    <div class=""question-area""></div> 
                </div>","null","","","","","","","","",""
"","","","","","html-button-response","99","446259","0.0-99.0","2975D6DE931C4CBF967518C31A717263","019cf549-29c0-7e44-9efe-c77cb64b1d56","019cf509-e3f1-72d9-bf6b-e2f1118fdaab","","857","
                <div class=""stimulus-container"">
                    <img src=""images/schematic_sequence/flight_scheme/flight_scheme_ten.png"" class=""exp-image"">
                    <div class=""question-area"">
                        <p style=""font-size: 20px; font-weight: bold; margin: 0;"">Is there a person in this image?</p>
                    </div>
                </div>","0","main_experiment_trial","ten","flight_scheme","schematic_sequence","","","","",""
"","","","","","html-keyboard-response","100","447260","0.0-100.0","2975D6DE931C4CBF967518C31A717263","019cf549-29c0-7e44-9efe-c77cb64b1d56","019cf509-e3f1-72d9-bf6b-e2f1118fdaab","","null","<div style=""background-color: white; width: 100vw; height: 100vh;""></div>","null","","","","","","","","",""
"","","","","","html-keyboard-response","101","452261","0.0-101.0","2975D6DE931C4CBF967518C31A717263","019cf549-29c0-7e44-9efe-c77cb64b1d56","019cf509-e3f1-72d9-bf6b-e2f1118fdaab","","null","
                <div class=""stimulus-container"">
                    <img src=""images/causal_sequence/dog_causal/dog_causal_1.png"" class=""exp-image"">
                    <div class=""question-area""></div> 
                </div>","null","","","","","","","","",""
"","","","","","html-button-response","102","455063","0.0-102.0","2975D6DE931C4CBF967518C31A717263","019cf549-29c0-7e44-9efe-c77cb64b1d56","019cf509-e3f1-72d9-bf6b-e2f1118fdaab","","2800","
                <div class=""stimulus-container"">
                    <img src=""images/causal_sequence/dog_causal/dog_causal_1.png"" class=""exp-image"">
                    <div class=""question-area"">
                        <p style=""font-size: 20px; font-weight: bold; margin: 0;"">Is there a person in this image?</p>
                    </div>
                </div>","0","main_experiment_trial","1","dog_causal","causal_sequence","","","","",""
"","","","","","html-keyboard-response","103","460064","0.0-103.0","2975D6DE931C4CBF967518C31A717263","019cf549-29c0-7e44-9efe-c77cb64b1d56","019cf509-e3f1-72d9-bf6b-e2f1118fdaab","","null","
                <div class=""stimulus-container"">
                    <img src=""images/causal_sequence/dog_causal/dog_causal_2.png"" class=""exp-image"">
                    <div class=""question-area""></div> 
                </div>","null","","","","","","","","",""
"","","","","","html-button-response","104","461349","0.0-104.0","2975D6DE931C4CBF967518C31A717263","019cf549-29c0-7e44-9efe-c77cb64b1d56","019cf509-e3f1-72d9-bf6b-e2f1118fdaab","","1284","
                <div class=""stimulus-container"">
                    <img src=""images/causal_sequence/dog_causal/dog_causal_2.png"" class=""exp-image"">
                    <div class=""question-area"">
                        <p style=""font-size: 20px; font-weight: bold; margin: 0;"">Is there a person in this image?</p>
                    </div>
                </div>","0","main_experiment_trial","2","dog_causal","causal_sequence","","","","",""
"","","","","","html-keyboard-response","105","466351","0.0-105.0","2975D6DE931C4CBF967518C31A717263","019cf549-29c0-7e44-9efe-c77cb64b1d56","019cf509-e3f1-72d9-bf6b-e2f1118fdaab","","null","
                <div class=""stimulus-container"">
                    <img src=""images/causal_sequence/dog_causal/dog_causal_3.png"" class=""exp-image"">
                    <div class=""question-area""></div> 
                </div>","null","","","","","","","","",""
"","","","","","html-button-response","106","469352","0.0-106.0","2975D6DE931C4CBF967518C31A717263","019cf549-29c0-7e44-9efe-c77cb64b1d56","019cf509-e3f1-72d9-bf6b-e2f1118fdaab","","null","
                <div class=""stimulus-container"">
                    <img src=""images/causal_sequence/dog_causal/dog_causal_3.png"" class=""exp-image"">
                    <div class=""question-area"">
                        <p style=""font-size: 20px; font-weight: bold; margin: 0;"">Is there a person in this image?</p>
                    </div>
                </div>","null","main_experiment_trial","3","dog_causal","causal_sequence","","","","",""
"","","","","","html-keyboard-response","107","474354","0.0-107.0","2975D6DE931C4CBF967518C31A717263","019cf549-29c0-7e44-9efe-c77cb64b1d56","019cf509-e3f1-72d9-bf6b-e2f1118fdaab","","null","
                <div class=""stimulus-container"">
                    <img src=""images/causal_sequence/dog_causal/dog_causal_4.png"" class=""exp-image"">
                    <div class=""question-area""></div> 
                </div>","null","","","","","","","","",""
"","","","","","html-button-response","108","475435","0.0-108.0","2975D6DE931C4CBF967518C31A717263","019cf549-29c0-7e44-9efe-c77cb64b1d56","019cf509-e3f1-72d9-bf6b-e2f1118fdaab","","1081","
                <div class=""stimulus-container"">
                    <img src=""images/causal_sequence/dog_causal/dog_causal_4.png"" class=""exp-image"">
                    <div class=""question-area"">
                        <p style=""font-size: 20px; font-weight: bold; margin: 0;"">Is there a person in this image?</p>
                    </div>
                </div>","0","main_experiment_trial","4","dog_causal","causal_sequence","","","","",""
"","","","","","html-keyboard-response","109","480436","0.0-109.0","2975D6DE931C4CBF967518C31A717263","019cf549-29c0-7e44-9efe-c77cb64b1d56","019cf509-e3f1-72d9-bf6b-e2f1118fdaab","","null","
                <div class=""stimulus-container"">
                    <img src=""images/causal_sequence/dog_causal/dog_causal_5.png"" class=""exp-image"">
                    <div class=""question-area""></div> 
                </div>","null","","","","","","","","",""
"","","","","","html-button-response","110","482425","0.0-110.0","2975D6DE931C4CBF967518C31A717263","019cf549-29c0-7e44-9efe-c77cb64b1d56","019cf509-e3f1-72d9-bf6b-e2f1118fdaab","","1988","
                <div class=""stimulus-container"">
                    <img src=""images/causal_sequence/dog_causal/dog_causal_5.png"" class=""exp-image"">
                    <div class=""question-area"">
                        <p style=""font-size: 20px; font-weight: bold; margin: 0;"">Is there a person in this image?</p>
                    </div>
                </div>","0","main_experiment_trial","5","dog_causal","causal_sequence","","","","",""
"","","","","","html-keyboard-response","111","487426","0.0-111.0","2975D6DE931C4CBF967518C31A717263","019cf549-29c0-7e44-9efe-c77cb64b1d56","019cf509-e3f1-72d9-bf6b-e2f1118fdaab","","null","
                <div class=""stimulus-container"">
                    <img src=""images/causal_sequence/dog_causal/dog_causal_6.png"" class=""exp-image"">
                    <div class=""question-area""></div> 
                </div>","null","","","","","","","","",""
"","","","","","html-button-response","112","488244","0.0-112.0","2975D6DE931C4CBF967518C31A717263","019cf549-29c0-7e44-9efe-c77cb64b1d56","019cf509-e3f1-72d9-bf6b-e2f1118fdaab","","818","
                <div class=""stimulus-container"">
                    <img src=""images/causal_sequence/dog_causal/dog_causal_6.png"" class=""exp-image"">
                    <div class=""question-area"">
                        <p style=""font-size: 20px; font-weight: bold; margin: 0;"">Is there a person in this image?</p>
                    </div>
                </div>","0","main_experiment_trial","6","dog_causal","causal_sequence","","","","",""
"","","","","","html-keyboard-response","113","493246","0.0-113.0","2975D6DE931C4CBF967518C31A717263","019cf549-29c0-7e44-9efe-c77cb64b1d56","019cf509-e3f1-72d9-bf6b-e2f1118fdaab","","null","
                <div class=""stimulus-container"">
                    <img src=""images/causal_sequence/dog_causal/dog_causal_7.png"" class=""exp-image"">
                    <div class=""question-area""></div> 
                </div>","null","","","","","","","","",""
"","","","","","html-button-response","114","495304","0.0-114.0","2975D6DE931C4CBF967518C31A717263","019cf549-29c0-7e44-9efe-c77cb64b1d56","019cf509-e3f1-72d9-bf6b-e2f1118fdaab","","2058","
                <div class=""stimulus-container"">
                    <img src=""images/causal_sequence/dog_causal/dog_causal_7.png"" class=""exp-image"">
                    <div class=""question-area"">
                        <p style=""font-size: 20px; font-weight: bold; margin: 0;"">Is there a person in this image?</p>
                    </div>
                </div>","0","main_experiment_trial","7","dog_causal","causal_sequence","","","","",""
"","","","","","html-keyboard-response","115","500306","0.0-115.0","2975D6DE931C4CBF967518C31A717263","019cf549-29c0-7e44-9efe-c77cb64b1d56","019cf509-e3f1-72d9-bf6b-e2f1118fdaab","","null","
                <div class=""stimulus-container"">
                    <img src=""images/causal_sequence/dog_causal/dog_causal_8.png"" class=""exp-image"">
                    <div class=""question-area""></div> 
                </div>","null","","","","","","","","",""
"","","","","","html-button-response","116","503029","0.0-116.0","2975D6DE931C4CBF967518C31A717263","019cf549-29c0-7e44-9efe-c77cb64b1d56","019cf509-e3f1-72d9-bf6b-e2f1118fdaab","","2722","
                <div class=""stimulus-container"">
                    <img src=""images/causal_sequence/dog_causal/dog_causal_8.png"" class=""exp-image"">
                    <div class=""question-area"">
                        <p style=""font-size: 20px; font-weight: bold; margin: 0;"">Is there a person in this image?</p>
                    </div>
                </div>","0","main_experiment_trial","8","dog_causal","causal_sequence","","","","",""
"","","","","","html-keyboard-response","117","508030","0.0-117.0","2975D6DE931C4CBF967518C31A717263","019cf549-29c0-7e44-9efe-c77cb64b1d56","019cf509-e3f1-72d9-bf6b-e2f1118fdaab","","null","
                <div class=""stimulus-container"">
                    <img src=""images/causal_sequence/dog_causal/dog_causal_9.png"" class=""exp-image"">
                    <div class=""question-area""></div> 
                </div>","null","","","","","","","","",""
"","","","","","html-button-response","118","510232","0.0-118.0","2975D6DE931C4CBF967518C31A717263","019cf549-29c0-7e44-9efe-c77cb64b1d56","019cf509-e3f1-72d9-bf6b-e2f1118fdaab","","2202","
                <div class=""stimulus-container"">
                    <img src=""images/causal_sequence/dog_causal/dog_causal_9.png"" class=""exp-image"">
                    <div class=""question-area"">
                        <p style=""font-size: 20px; font-weight: bold; margin: 0;"">Is there a person in this image?</p>
                    </div>
                </div>","0","main_experiment_trial","9","dog_causal","causal_sequence","","","","",""
"","","","","","html-keyboard-response","119","515234","0.0-119.0","2975D6DE931C4CBF967518C31A717263","019cf549-29c0-7e44-9efe-c77cb64b1d56","019cf509-e3f1-72d9-bf6b-e2f1118fdaab","","null","
                <div class=""stimulus-container"">
                    <img src=""images/causal_sequence/dog_causal/dog_causal_ten.png"" class=""exp-image"">
                    <div class=""question-area""></div> 
                </div>","null","","","","","","","","",""
"","","","","","html-button-response","120","517080","0.0-120.0","2975D6DE931C4CBF967518C31A717263","019cf549-29c0-7e44-9efe-c77cb64b1d56","019cf509-e3f1-72d9-bf6b-e2f1118fdaab","","1845","
                <div class=""stimulus-container"">
                    <img src=""images/causal_sequence/dog_causal/dog_causal_ten.png"" class=""exp-image"">
                    <div class=""question-area"">
                        <p style=""font-size: 20px; font-weight: bold; margin: 0;"">Is there a person in this image?</p>
                    </div>
                </div>","0","main_experiment_trial","ten","dog_causal","causal_sequence","","","","",""
"","","","","","html-keyboard-response","121","518081","0.0-121.0","2975D6DE931C4CBF967518C31A717263","019cf549-29c0-7e44-9efe-c77cb64b1d56","019cf509-e3f1-72d9-bf6b-e2f1118fdaab","","null","<div style=""background-color: white; width: 100vw; height: 100vh;""></div>","null","","","","","","","","",""
"","","","","","html-keyboard-response","122","523083","0.0-122.0","2975D6DE931C4CBF967518C31A717263","019cf549-29c0-7e44-9efe-c77cb64b1d56","019cf509-e3f1-72d9-bf6b-e2f1118fdaab","","null","
                <div class=""stimulus-container"">
                    <img src=""images/schematic_sequence/supermarket_scheme/supermarket_scheme_1.png"" class=""exp-image"">
                    <div class=""question-area""></div> 
                </div>","null","","","","","","","","",""
"","","","","","html-button-response","123","525243","0.0-123.0","2975D6DE931C4CBF967518C31A717263","019cf549-29c0-7e44-9efe-c77cb64b1d56","019cf509-e3f1-72d9-bf6b-e2f1118fdaab","","2160","
                <div class=""stimulus-container"">
                    <img src=""images/schematic_sequence/supermarket_scheme/supermarket_scheme_1.png"" class=""exp-image"">
                    <div class=""question-area"">
                        <p style=""font-size: 20px; font-weight: bold; margin: 0;"">Is there a person in this image?</p>
                    </div>
                </div>","1","main_experiment_trial","1","supermarket_scheme","schematic_sequence","","","","",""
"","","","","","html-keyboard-response","124","530245","0.0-124.0","2975D6DE931C4CBF967518C31A717263","019cf549-29c0-7e44-9efe-c77cb64b1d56","019cf509-e3f1-72d9-bf6b-e2f1118fdaab","","null","
                <div class=""stimulus-container"">
                    <img src=""images/schematic_sequence/supermarket_scheme/supermarket_scheme_2.png"" class=""exp-image"">
                    <div class=""question-area""></div> 
                </div>","null","","","","","","","","",""
"","","","","","html-button-response","125","532738","0.0-125.0","2975D6DE931C4CBF967518C31A717263","019cf549-29c0-7e44-9efe-c77cb64b1d56","019cf509-e3f1-72d9-bf6b-e2f1118fdaab","","2493","
                <div class=""stimulus-container"">
                    <img src=""images/schematic_sequence/supermarket_scheme/supermarket_scheme_2.png"" class=""exp-image"">
                    <div class=""question-area"">
                        <p style=""font-size: 20px; font-weight: bold; margin: 0;"">Is there a person in this image?</p>
                    </div>
                </div>","1","main_experiment_trial","2","supermarket_scheme","schematic_sequence","","","","",""
"","","","","","html-keyboard-response","126","537739","0.0-126.0","2975D6DE931C4CBF967518C31A717263","019cf549-29c0-7e44-9efe-c77cb64b1d56","019cf509-e3f1-72d9-bf6b-e2f1118fdaab","","null","
                <div class=""stimulus-container"">
                    <img src=""images/schematic_sequence/supermarket_scheme/supermarket_scheme_3.png"" class=""exp-image"">
                    <div class=""question-area""></div> 
                </div>","null","","","","","","","","",""
"","","","","","html-button-response","127","540295","0.0-127.0","2975D6DE931C4CBF967518C31A717263","019cf549-29c0-7e44-9efe-c77cb64b1d56","019cf509-e3f1-72d9-bf6b-e2f1118fdaab","","2556","
                <div class=""stimulus-container"">
                    <img src=""images/schematic_sequence/supermarket_scheme/supermarket_scheme_3.png"" class=""exp-image"">
                    <div class=""question-area"">
                        <p style=""font-size: 20px; font-weight: bold; margin: 0;"">Is there a person in this image?</p>
                    </div>
                </div>","1","main_experiment_trial","3","supermarket_scheme","schematic_sequence","","","","",""
"","","","","","html-keyboard-response","128","545296","0.0-128.0","2975D6DE931C4CBF967518C31A717263","019cf549-29c0-7e44-9efe-c77cb64b1d56","019cf509-e3f1-72d9-bf6b-e2f1118fdaab","","null","
                <div class=""stimulus-container"">
                    <img src=""images/schematic_sequence/supermarket_scheme/supermarket_scheme_4.png"" class=""exp-image"">
                    <div class=""question-area""></div> 
                </div>","null","","","","","","","","",""
"","","","","","html-button-response","129","547180","0.0-129.0","2975D6DE931C4CBF967518C31A717263","019cf549-29c0-7e44-9efe-c77cb64b1d56","019cf509-e3f1-72d9-bf6b-e2f1118fdaab","","1883","
                <div class=""stimulus-container"">
                    <img src=""images/schematic_sequence/supermarket_scheme/supermarket_scheme_4.png"" class=""exp-image"">
                    <div class=""question-area"">
                        <p style=""font-size: 20px; font-weight: bold; margin: 0;"">Is there a person in this image?</p>
                    </div>
                </div>","0","main_experiment_trial","4","supermarket_scheme","schematic_sequence","","","","",""
"","","","","","html-keyboard-response","130","552181","0.0-130.0","2975D6DE931C4CBF967518C31A717263","019cf549-29c0-7e44-9efe-c77cb64b1d56","019cf509-e3f1-72d9-bf6b-e2f1118fdaab","","null","
                <div class=""stimulus-container"">
                    <img src=""images/schematic_sequence/supermarket_scheme/supermarket_scheme_5.png"" class=""exp-image"">
                    <div class=""question-area""></div> 
                </div>","null","","","","","","","","",""
"","","","","","html-button-response","131","555182","0.0-131.0","2975D6DE931C4CBF967518C31A717263","019cf549-29c0-7e44-9efe-c77cb64b1d56","019cf509-e3f1-72d9-bf6b-e2f1118fdaab","","null","
                <div class=""stimulus-container"">
                    <img src=""images/schematic_sequence/supermarket_scheme/supermarket_scheme_5.png"" class=""exp-image"">
                    <div class=""question-area"">
                        <p style=""font-size: 20px; font-weight: bold; margin: 0;"">Is there a person in this image?</p>
                    </div>
                </div>","null","main_experiment_trial","5","supermarket_scheme","schematic_sequence","","","","",""
"","","","","","html-keyboard-response","132","560184","0.0-132.0","2975D6DE931C4CBF967518C31A717263","019cf549-29c0-7e44-9efe-c77cb64b1d56","019cf509-e3f1-72d9-bf6b-e2f1118fdaab","","null","
                <div class=""stimulus-container"">
                    <img src=""images/schematic_sequence/supermarket_scheme/supermarket_scheme_6.png"" class=""exp-image"">
                    <div class=""question-area""></div> 
                </div>","null","","","","","","","","",""
"","","","","","html-button-response","133","561053","0.0-133.0","2975D6DE931C4CBF967518C31A717263","019cf549-29c0-7e44-9efe-c77cb64b1d56","019cf509-e3f1-72d9-bf6b-e2f1118fdaab","","869","
                <div class=""stimulus-container"">
                    <img src=""images/schematic_sequence/supermarket_scheme/supermarket_scheme_6.png"" class=""exp-image"">
                    <div class=""question-area"">
                        <p style=""font-size: 20px; font-weight: bold; margin: 0;"">Is there a person in this image?</p>
                    </div>
                </div>","0","main_experiment_trial","6","supermarket_scheme","schematic_sequence","","","","",""
"","","","","","html-keyboard-response","134","566054","0.0-134.0","2975D6DE931C4CBF967518C31A717263","019cf549-29c0-7e44-9efe-c77cb64b1d56","019cf509-e3f1-72d9-bf6b-e2f1118fdaab","","null","
                <div class=""stimulus-container"">
                    <img src=""images/schematic_sequence/supermarket_scheme/supermarket_scheme_7.png"" class=""exp-image"">
                    <div class=""question-area""></div> 
                </div>","null","","","","","","","","",""
"","","","","","html-button-response","135","567471","0.0-135.0","2975D6DE931C4CBF967518C31A717263","019cf549-29c0-7e44-9efe-c77cb64b1d56","019cf509-e3f1-72d9-bf6b-e2f1118fdaab","","1416","
                <div class=""stimulus-container"">
                    <img src=""images/schematic_sequence/supermarket_scheme/supermarket_scheme_7.png"" class=""exp-image"">
                    <div class=""question-area"">
                        <p style=""font-size: 20px; font-weight: bold; margin: 0;"">Is there a person in this image?</p>
                    </div>
                </div>","0","main_experiment_trial","7","supermarket_scheme","schematic_sequence","","","","",""
"","","","","","html-keyboard-response","136","572472","0.0-136.0","2975D6DE931C4CBF967518C31A717263","019cf549-29c0-7e44-9efe-c77cb64b1d56","019cf509-e3f1-72d9-bf6b-e2f1118fdaab","","null","
                <div class=""stimulus-container"">
                    <img src=""images/schematic_sequence/supermarket_scheme/supermarket_scheme_8.png"" class=""exp-image"">
                    <div class=""question-area""></div> 
                </div>","null","","","","","","","","",""
"","","","","","html-button-response","137","575473","0.0-137.0","2975D6DE931C4CBF967518C31A717263","019cf549-29c0-7e44-9efe-c77cb64b1d56","019cf509-e3f1-72d9-bf6b-e2f1118fdaab","","null","
                <div class=""stimulus-container"">
                    <img src=""images/schematic_sequence/supermarket_scheme/supermarket_scheme_8.png"" class=""exp-image"">
                    <div class=""question-area"">
                        <p style=""font-size: 20px; font-weight: bold; margin: 0;"">Is there a person in this image?</p>
                    </div>
                </div>","null","main_experiment_trial","8","supermarket_scheme","schematic_sequence","","","","",""
"","","","","","html-keyboard-response","138","580474","0.0-138.0","2975D6DE931C4CBF967518C31A717263","019cf549-29c0-7e44-9efe-c77cb64b1d56","019cf509-e3f1-72d9-bf6b-e2f1118fdaab","","null","
                <div class=""stimulus-container"">
                    <img src=""images/schematic_sequence/supermarket_scheme/supermarket_scheme_9.png"" class=""exp-image"">
                    <div class=""question-area""></div> 
                </div>","null","","","","","","","","",""
"","","","","","html-button-response","139","581757","0.0-139.0","2975D6DE931C4CBF967518C31A717263","019cf549-29c0-7e44-9efe-c77cb64b1d56","019cf509-e3f1-72d9-bf6b-e2f1118fdaab","","1282","
                <div class=""stimulus-container"">
                    <img src=""images/schematic_sequence/supermarket_scheme/supermarket_scheme_9.png"" class=""exp-image"">
                    <div class=""question-area"">
                        <p style=""font-size: 20px; font-weight: bold; margin: 0;"">Is there a person in this image?</p>
                    </div>
                </div>","0","main_experiment_trial","9","supermarket_scheme","schematic_sequence","","","","",""
"","","","","","html-keyboard-response","140","586758","0.0-140.0","2975D6DE931C4CBF967518C31A717263","019cf549-29c0-7e44-9efe-c77cb64b1d56","019cf509-e3f1-72d9-bf6b-e2f1118fdaab","","null","
                <div class=""stimulus-container"">
                    <img src=""images/schematic_sequence/supermarket_scheme/supermarket_scheme_ten.png"" class=""exp-image"">
                    <div class=""question-area""></div> 
                </div>","null","","","","","","","","",""
"","","","","","html-button-response","141","587774","0.0-141.0","2975D6DE931C4CBF967518C31A717263","019cf549-29c0-7e44-9efe-c77cb64b1d56","019cf509-e3f1-72d9-bf6b-e2f1118fdaab","","1015","
                <div class=""stimulus-container"">
                    <img src=""images/schematic_sequence/supermarket_scheme/supermarket_scheme_ten.png"" class=""exp-image"">
                    <div class=""question-area"">
                        <p style=""font-size: 20px; font-weight: bold; margin: 0;"">Is there a person in this image?</p>
                    </div>
                </div>","1","main_experiment_trial","ten","supermarket_scheme","schematic_sequence","","","","",""
"","","","","","html-keyboard-response","142","588775","0.0-142.0","2975D6DE931C4CBF967518C31A717263","019cf549-29c0-7e44-9efe-c77cb64b1d56","019cf509-e3f1-72d9-bf6b-e2f1118fdaab","","null","<div style=""background-color: white; width: 100vw; height: 100vh;""></div>","null","","","","","","","","",""
"","","","","","html-keyboard-response","143","593775","0.0-143.0","2975D6DE931C4CBF967518C31A717263","019cf549-29c0-7e44-9efe-c77cb64b1d56","019cf509-e3f1-72d9-bf6b-e2f1118fdaab","","null","
                <div class=""stimulus-container"">
                    <img src=""images/causal_sequence/museum_causal/museum_causal_1.png"" class=""exp-image"">
                    <div class=""question-area""></div> 
                </div>","null","","","","","","","","",""
"","","","","","html-button-response","144","594979","0.0-144.0","2975D6DE931C4CBF967518C31A717263","019cf549-29c0-7e44-9efe-c77cb64b1d56","019cf509-e3f1-72d9-bf6b-e2f1118fdaab","","1203","
                <div class=""stimulus-container"">
                    <img src=""images/causal_sequence/museum_causal/museum_causal_1.png"" class=""exp-image"">
                    <div class=""question-area"">
                        <p style=""font-size: 20px; font-weight: bold; margin: 0;"">Is there a person in this image?</p>
                    </div>
                </div>","0","main_experiment_trial","1","museum_causal","causal_sequence","","","","",""
"","","","","","html-keyboard-response","145","599980","0.0-145.0","2975D6DE931C4CBF967518C31A717263","019cf549-29c0-7e44-9efe-c77cb64b1d56","019cf509-e3f1-72d9-bf6b-e2f1118fdaab","","null","
                <div class=""stimulus-container"">
                    <img src=""images/causal_sequence/museum_causal/museum_causal_2.png"" class=""exp-image"">
                    <div class=""question-area""></div> 
                </div>","null","","","","","","","","",""
"","","","","","html-button-response","146","602357","0.0-146.0","2975D6DE931C4CBF967518C31A717263","019cf549-29c0-7e44-9efe-c77cb64b1d56","019cf509-e3f1-72d9-bf6b-e2f1118fdaab","","2377","
                <div class=""stimulus-container"">
                    <img src=""images/causal_sequence/museum_causal/museum_causal_2.png"" class=""exp-image"">
                    <div class=""question-area"">
                        <p style=""font-size: 20px; font-weight: bold; margin: 0;"">Is there a person in this image?</p>
                    </div>
                </div>","1","main_experiment_trial","2","museum_causal","causal_sequence","","","","",""
"","","","","","html-keyboard-response","147","607358","0.0-147.0","2975D6DE931C4CBF967518C31A717263","019cf549-29c0-7e44-9efe-c77cb64b1d56","019cf509-e3f1-72d9-bf6b-e2f1118fdaab","","null","
                <div class=""stimulus-container"">
                    <img src=""images/causal_sequence/museum_causal/museum_causal_3.png"" class=""exp-image"">
                    <div class=""question-area""></div> 
                </div>","null","","","","","","","","",""
"","","","","","html-button-response","148","609581","0.0-148.0","2975D6DE931C4CBF967518C31A717263","019cf549-29c0-7e44-9efe-c77cb64b1d56","019cf509-e3f1-72d9-bf6b-e2f1118fdaab","","2223","
                <div class=""stimulus-container"">
                    <img src=""images/causal_sequence/museum_causal/museum_causal_3.png"" class=""exp-image"">
                    <div class=""question-area"">
                        <p style=""font-size: 20px; font-weight: bold; margin: 0;"">Is there a person in this image?</p>
                    </div>
                </div>","0","main_experiment_trial","3","museum_causal","causal_sequence","","","","",""
"","","","","","html-keyboard-response","149","614583","0.0-149.0","2975D6DE931C4CBF967518C31A717263","019cf549-29c0-7e44-9efe-c77cb64b1d56","019cf509-e3f1-72d9-bf6b-e2f1118fdaab","","null","
                <div class=""stimulus-container"">
                    <img src=""images/causal_sequence/museum_causal/museum_causal_4.png"" class=""exp-image"">
                    <div class=""question-area""></div> 
                </div>","null","","","","","","","","",""
"","","","","","html-button-response","150","616261","0.0-150.0","2975D6DE931C4CBF967518C31A717263","019cf549-29c0-7e44-9efe-c77cb64b1d56","019cf509-e3f1-72d9-bf6b-e2f1118fdaab","","1678","
                <div class=""stimulus-container"">
                    <img src=""images/causal_sequence/museum_causal/museum_causal_4.png"" class=""exp-image"">
                    <div class=""question-area"">
                        <p style=""font-size: 20px; font-weight: bold; margin: 0;"">Is there a person in this image?</p>
                    </div>
                </div>","1","main_experiment_trial","4","museum_causal","causal_sequence","","","","",""
"","","","","","html-keyboard-response","151","621262","0.0-151.0","2975D6DE931C4CBF967518C31A717263","019cf549-29c0-7e44-9efe-c77cb64b1d56","019cf509-e3f1-72d9-bf6b-e2f1118fdaab","","null","
                <div class=""stimulus-container"">
                    <img src=""images/causal_sequence/museum_causal/museum_causal_5.png"" class=""exp-image"">
                    <div class=""question-area""></div> 
                </div>","null","","","","","","","","",""
"","","","","","html-button-response","152","622031","0.0-152.0","2975D6DE931C4CBF967518C31A717263","019cf549-29c0-7e44-9efe-c77cb64b1d56","019cf509-e3f1-72d9-bf6b-e2f1118fdaab","","769","
                <div class=""stimulus-container"">
                    <img src=""images/causal_sequence/museum_causal/museum_causal_5.png"" class=""exp-image"">
                    <div class=""question-area"">
                        <p style=""font-size: 20px; font-weight: bold; margin: 0;"">Is there a person in this image?</p>
                    </div>
                </div>","0","main_experiment_trial","5","museum_causal","causal_sequence","","","","",""
"","","","","","html-keyboard-response","153","627033","0.0-153.0","2975D6DE931C4CBF967518C31A717263","019cf549-29c0-7e44-9efe-c77cb64b1d56","019cf509-e3f1-72d9-bf6b-e2f1118fdaab","","null","
                <div class=""stimulus-container"">
                    <img src=""images/causal_sequence/museum_causal/museum_causal_6.png"" class=""exp-image"">
                    <div class=""question-area""></div> 
                </div>","null","","","","","","","","",""
"","","","","","html-button-response","154","627874","0.0-154.0","2975D6DE931C4CBF967518C31A717263","019cf549-29c0-7e44-9efe-c77cb64b1d56","019cf509-e3f1-72d9-bf6b-e2f1118fdaab","","841","
                <div class=""stimulus-container"">
                    <img src=""images/causal_sequence/museum_causal/museum_causal_6.png"" class=""exp-image"">
                    <div class=""question-area"">
                        <p style=""font-size: 20px; font-weight: bold; margin: 0;"">Is there a person in this image?</p>
                    </div>
                </div>","0","main_experiment_trial","6","museum_causal","causal_sequence","","","","",""
"","","","","","html-keyboard-response","155","632876","0.0-155.0","2975D6DE931C4CBF967518C31A717263","019cf549-29c0-7e44-9efe-c77cb64b1d56","019cf509-e3f1-72d9-bf6b-e2f1118fdaab","","null","
                <div class=""stimulus-container"">
                    <img src=""images/causal_sequence/museum_causal/museum_causal_7.png"" class=""exp-image"">
                    <div class=""question-area""></div> 
                </div>","null","","","","","","","","",""
"","","","","","html-button-response","156","633803","0.0-156.0","2975D6DE931C4CBF967518C31A717263","019cf549-29c0-7e44-9efe-c77cb64b1d56","019cf509-e3f1-72d9-bf6b-e2f1118fdaab","","926","
                <div class=""stimulus-container"">
                    <img src=""images/causal_sequence/museum_causal/museum_causal_7.png"" class=""exp-image"">
                    <div class=""question-area"">
                        <p style=""font-size: 20px; font-weight: bold; margin: 0;"">Is there a person in this image?</p>
                    </div>
                </div>","1","main_experiment_trial","7","museum_causal","causal_sequence","","","","",""
"","","","","","html-keyboard-response","157","638805","0.0-157.0","2975D6DE931C4CBF967518C31A717263","019cf549-29c0-7e44-9efe-c77cb64b1d56","019cf509-e3f1-72d9-bf6b-e2f1118fdaab","","null","
                <div class=""stimulus-container"">
                    <img src=""images/causal_sequence/museum_causal/museum_causal_8.png"" class=""exp-image"">
                    <div class=""question-area""></div> 
                </div>","null","","","","","","","","",""
"","","","","","html-button-response","158","640000","0.0-158.0","2975D6DE931C4CBF967518C31A717263","019cf549-29c0-7e44-9efe-c77cb64b1d56","019cf509-e3f1-72d9-bf6b-e2f1118fdaab","","1194","
                <div class=""stimulus-container"">
                    <img src=""images/causal_sequence/museum_causal/museum_causal_8.png"" class=""exp-image"">
                    <div class=""question-area"">
                        <p style=""font-size: 20px; font-weight: bold; margin: 0;"">Is there a person in this image?</p>
                    </div>
                </div>","0","main_experiment_trial","8","museum_causal","causal_sequence","","","","",""
"","","","","","html-keyboard-response","159","645000","0.0-159.0","2975D6DE931C4CBF967518C31A717263","019cf549-29c0-7e44-9efe-c77cb64b1d56","019cf509-e3f1-72d9-bf6b-e2f1118fdaab","","null","
                <div class=""stimulus-container"">
                    <img src=""images/causal_sequence/museum_causal/museum_causal_9.png"" class=""exp-image"">
                    <div class=""question-area""></div> 
                </div>","null","","","","","","","","",""
"","","","","","html-button-response","160","646428","0.0-160.0","2975D6DE931C4CBF967518C31A717263","019cf549-29c0-7e44-9efe-c77cb64b1d56","019cf509-e3f1-72d9-bf6b-e2f1118fdaab","","1426","
                <div class=""stimulus-container"">
                    <img src=""images/causal_sequence/museum_causal/museum_causal_9.png"" class=""exp-image"">
                    <div class=""question-area"">
                        <p style=""font-size: 20px; font-weight: bold; margin: 0;"">Is there a person in this image?</p>
                    </div>
                </div>","1","main_experiment_trial","9","museum_causal","causal_sequence","","","","",""
"","","","","","html-keyboard-response","161","651430","0.0-161.0","2975D6DE931C4CBF967518C31A717263","019cf549-29c0-7e44-9efe-c77cb64b1d56","019cf509-e3f1-72d9-bf6b-e2f1118fdaab","","null","
                <div class=""stimulus-container"">
                    <img src=""images/causal_sequence/museum_causal/museum_causal_ten.png"" class=""exp-image"">
                    <div class=""question-area""></div> 
                </div>","null","","","","","","","","",""
"","","","","","html-button-response","162","652704","0.0-162.0","2975D6DE931C4CBF967518C31A717263","019cf549-29c0-7e44-9efe-c77cb64b1d56","019cf509-e3f1-72d9-bf6b-e2f1118fdaab","","1273","
                <div class=""stimulus-container"">
                    <img src=""images/causal_sequence/museum_causal/museum_causal_ten.png"" class=""exp-image"">
                    <div class=""question-area"">
                        <p style=""font-size: 20px; font-weight: bold; margin: 0;"">Is there a person in this image?</p>
                    </div>
                </div>","0","main_experiment_trial","ten","museum_causal","causal_sequence","","","","",""
"","","","","","html-keyboard-response","163","653705","0.0-163.0","2975D6DE931C4CBF967518C31A717263","019cf549-29c0-7e44-9efe-c77cb64b1d56","019cf509-e3f1-72d9-bf6b-e2f1118fdaab","","null","<div style=""background-color: white; width: 100vw; height: 100vh;""></div>","null","","","","","","","","",""
"","","","","","html-keyboard-response","164","658705","0.0-164.0","2975D6DE931C4CBF967518C31A717263","019cf549-29c0-7e44-9efe-c77cb64b1d56","019cf509-e3f1-72d9-bf6b-e2f1118fdaab","","null","
                <div class=""stimulus-container"">
                    <img src=""images/causal_sequence/the_performance_causal/the_performance_causal_1.png"" class=""exp-image"">
                    <div class=""question-area""></div> 
                </div>","null","","","","","","","","",""
"","","","","","html-button-response","165","659800","0.0-165.0","2975D6DE931C4CBF967518C31A717263","019cf549-29c0-7e44-9efe-c77cb64b1d56","019cf509-e3f1-72d9-bf6b-e2f1118fdaab","","1094","
                <div class=""stimulus-container"">
                    <img src=""images/causal_sequence/the_performance_causal/the_performance_causal_1.png"" class=""exp-image"">
                    <div class=""question-area"">
                        <p style=""font-size: 20px; font-weight: bold; margin: 0;"">Is there a person in this image?</p>
                    </div>
                </div>","0","main_experiment_trial","1","the_performance_causal","causal_sequence","","","","",""
"","","","","","html-keyboard-response","166","664801","0.0-166.0","2975D6DE931C4CBF967518C31A717263","019cf549-29c0-7e44-9efe-c77cb64b1d56","019cf509-e3f1-72d9-bf6b-e2f1118fdaab","","null","
                <div class=""stimulus-container"">
                    <img src=""images/causal_sequence/the_performance_causal/the_performance_causal_2.png"" class=""exp-image"">
                    <div class=""question-area""></div> 
                </div>","null","","","","","","","","",""
"","","","","","html-button-response","167","665571","0.0-167.0","2975D6DE931C4CBF967518C31A717263","019cf549-29c0-7e44-9efe-c77cb64b1d56","019cf509-e3f1-72d9-bf6b-e2f1118fdaab","","769","
                <div class=""stimulus-container"">
                    <img src=""images/causal_sequence/the_performance_causal/the_performance_causal_2.png"" class=""exp-image"">
                    <div class=""question-area"">
                        <p style=""font-size: 20px; font-weight: bold; margin: 0;"">Is there a person in this image?</p>
                    </div>
                </div>","0","main_experiment_trial","2","the_performance_causal","causal_sequence","","","","",""
"","","","","","html-keyboard-response","168","670572","0.0-168.0","2975D6DE931C4CBF967518C31A717263","019cf549-29c0-7e44-9efe-c77cb64b1d56","019cf509-e3f1-72d9-bf6b-e2f1118fdaab","","null","
                <div class=""stimulus-container"">
                    <img src=""images/causal_sequence/the_performance_causal/the_performance_causal_3.png"" class=""exp-image"">
                    <div class=""question-area""></div> 
                </div>","null","","","","","","","","",""
"","","","","","html-button-response","169","671228","0.0-169.0","2975D6DE931C4CBF967518C31A717263","019cf549-29c0-7e44-9efe-c77cb64b1d56","019cf509-e3f1-72d9-bf6b-e2f1118fdaab","","656","
                <div class=""stimulus-container"">
                    <img src=""images/causal_sequence/the_performance_causal/the_performance_causal_3.png"" class=""exp-image"">
                    <div class=""question-area"">
                        <p style=""font-size: 20px; font-weight: bold; margin: 0;"">Is there a person in this image?</p>
                    </div>
                </div>","0","main_experiment_trial","3","the_performance_causal","causal_sequence","","","","",""
"","","","","","html-keyboard-response","170","676229","0.0-170.0","2975D6DE931C4CBF967518C31A717263","019cf549-29c0-7e44-9efe-c77cb64b1d56","019cf509-e3f1-72d9-bf6b-e2f1118fdaab","","null","
                <div class=""stimulus-container"">
                    <img src=""images/causal_sequence/the_performance_causal/the_performance_causal_4.png"" class=""exp-image"">
                    <div class=""question-area""></div> 
                </div>","null","","","","","","","","",""
"","","","","","html-button-response","171","676919","0.0-171.0","2975D6DE931C4CBF967518C31A717263","019cf549-29c0-7e44-9efe-c77cb64b1d56","019cf509-e3f1-72d9-bf6b-e2f1118fdaab","","690","
                <div class=""stimulus-container"">
                    <img src=""images/causal_sequence/the_performance_causal/the_performance_causal_4.png"" class=""exp-image"">
                    <div class=""question-area"">
                        <p style=""font-size: 20px; font-weight: bold; margin: 0;"">Is there a person in this image?</p>
                    </div>
                </div>","0","main_experiment_trial","4","the_performance_causal","causal_sequence","","","","",""
"","","","","","html-keyboard-response","172","681920","0.0-172.0","2975D6DE931C4CBF967518C31A717263","019cf549-29c0-7e44-9efe-c77cb64b1d56","019cf509-e3f1-72d9-bf6b-e2f1118fdaab","","null","
                <div class=""stimulus-container"">
                    <img src=""images/causal_sequence/the_performance_causal/the_performance_causal_5.png"" class=""exp-image"">
                    <div class=""question-area""></div> 
                </div>","null","","","","","","","","",""
"","","","","","html-button-response","173","682889","0.0-173.0","2975D6DE931C4CBF967518C31A717263","019cf549-29c0-7e44-9efe-c77cb64b1d56","019cf509-e3f1-72d9-bf6b-e2f1118fdaab","","968","
                <div class=""stimulus-container"">
                    <img src=""images/causal_sequence/the_performance_causal/the_performance_causal_5.png"" class=""exp-image"">
                    <div class=""question-area"">
                        <p style=""font-size: 20px; font-weight: bold; margin: 0;"">Is there a person in this image?</p>
                    </div>
                </div>","0","main_experiment_trial","5","the_performance_causal","causal_sequence","","","","",""
"","","","","","html-keyboard-response","174","687891","0.0-174.0","2975D6DE931C4CBF967518C31A717263","019cf549-29c0-7e44-9efe-c77cb64b1d56","019cf509-e3f1-72d9-bf6b-e2f1118fdaab","","null","
                <div class=""stimulus-container"">
                    <img src=""images/causal_sequence/the_performance_causal/the_performance_causal_6.png"" class=""exp-image"">
                    <div class=""question-area""></div> 
                </div>","null","","","","","","","","",""
"","","","","","html-button-response","175","688968","0.0-175.0","2975D6DE931C4CBF967518C31A717263","019cf549-29c0-7e44-9efe-c77cb64b1d56","019cf509-e3f1-72d9-bf6b-e2f1118fdaab","","1077","
                <div class=""stimulus-container"">
                    <img src=""images/causal_sequence/the_performance_causal/the_performance_causal_6.png"" class=""exp-image"">
                    <div class=""question-area"">
                        <p style=""font-size: 20px; font-weight: bold; margin: 0;"">Is there a person in this image?</p>
                    </div>
                </div>","0","main_experiment_trial","6","the_performance_causal","causal_sequence","","","","",""
"","","","","","html-keyboard-response","176","693970","0.0-176.0","2975D6DE931C4CBF967518C31A717263","019cf549-29c0-7e44-9efe-c77cb64b1d56","019cf509-e3f1-72d9-bf6b-e2f1118fdaab","","null","
                <div class=""stimulus-container"">
                    <img src=""images/causal_sequence/the_performance_causal/the_performance_causal_7.png"" class=""exp-image"">
                    <div class=""question-area""></div> 
                </div>","null","","","","","","","","",""
"","","","","","html-button-response","177","695457","0.0-177.0","2975D6DE931C4CBF967518C31A717263","019cf549-29c0-7e44-9efe-c77cb64b1d56","019cf509-e3f1-72d9-bf6b-e2f1118fdaab","","1485","
                <div class=""stimulus-container"">
                    <img src=""images/causal_sequence/the_performance_causal/the_performance_causal_7.png"" class=""exp-image"">
                    <div class=""question-area"">
                        <p style=""font-size: 20px; font-weight: bold; margin: 0;"">Is there a person in this image?</p>
                    </div>
                </div>","0","main_experiment_trial","7","the_performance_causal","causal_sequence","","","","",""
"","","","","","html-keyboard-response","178","700458","0.0-178.0","2975D6DE931C4CBF967518C31A717263","019cf549-29c0-7e44-9efe-c77cb64b1d56","019cf509-e3f1-72d9-bf6b-e2f1118fdaab","","null","
                <div class=""stimulus-container"">
                    <img src=""images/causal_sequence/the_performance_causal/the_performance_causal_8.png"" class=""exp-image"">
                    <div class=""question-area""></div> 
                </div>","null","","","","","","","","",""
"","","","","","html-button-response","179","701563","0.0-179.0","2975D6DE931C4CBF967518C31A717263","019cf549-29c0-7e44-9efe-c77cb64b1d56","019cf509-e3f1-72d9-bf6b-e2f1118fdaab","","1105","
                <div class=""stimulus-container"">
                    <img src=""images/causal_sequence/the_performance_causal/the_performance_causal_8.png"" class=""exp-image"">
                    <div class=""question-area"">
                        <p style=""font-size: 20px; font-weight: bold; margin: 0;"">Is there a person in this image?</p>
                    </div>
                </div>","0","main_experiment_trial","8","the_performance_causal","causal_sequence","","","","",""
"","","","","","html-keyboard-response","180","706565","0.0-180.0","2975D6DE931C4CBF967518C31A717263","019cf549-29c0-7e44-9efe-c77cb64b1d56","019cf509-e3f1-72d9-bf6b-e2f1118fdaab","","null","
                <div class=""stimulus-container"">
                    <img src=""images/causal_sequence/the_performance_causal/the_performance_causal_9.png"" class=""exp-image"">
                    <div class=""question-area""></div> 
                </div>","null","","","","","","","","",""
"","","","","","html-button-response","181","707931","0.0-181.0","2975D6DE931C4CBF967518C31A717263","019cf549-29c0-7e44-9efe-c77cb64b1d56","019cf509-e3f1-72d9-bf6b-e2f1118fdaab","","1366","
                <div class=""stimulus-container"">
                    <img src=""images/causal_sequence/the_performance_causal/the_performance_causal_9.png"" class=""exp-image"">
                    <div class=""question-area"">
                        <p style=""font-size: 20px; font-weight: bold; margin: 0;"">Is there a person in this image?</p>
                    </div>
                </div>","0","main_experiment_trial","9","the_performance_causal","causal_sequence","","","","",""
"","","","","","html-keyboard-response","182","712932","0.0-182.0","2975D6DE931C4CBF967518C31A717263","019cf549-29c0-7e44-9efe-c77cb64b1d56","019cf509-e3f1-72d9-bf6b-e2f1118fdaab","","null","
                <div class=""stimulus-container"">
                    <img src=""images/causal_sequence/the_performance_causal/the_performance_causal_ten.png"" class=""exp-image"">
                    <div class=""question-area""></div> 
                </div>","null","","","","","","","","",""
"","","","","","html-button-response","183","714003","0.0-183.0","2975D6DE931C4CBF967518C31A717263","019cf549-29c0-7e44-9efe-c77cb64b1d56","019cf509-e3f1-72d9-bf6b-e2f1118fdaab","","1070","
                <div class=""stimulus-container"">
                    <img src=""images/causal_sequence/the_performance_causal/the_performance_causal_ten.png"" class=""exp-image"">
                    <div class=""question-area"">
                        <p style=""font-size: 20px; font-weight: bold; margin: 0;"">Is there a person in this image?</p>
