"success","timeout","failed_images","failed_audio","failed_video","trial_type","trial_index","time_elapsed","internal_node_id","subject_id","study_id","session_id","view_history","rt","stimulus","response","task","image_index","folder","sequence_type","presentation_order","valuable_image_index","reward_type","correct_choice","chosen_image_index","target_X"
"true","false","[]","[]","[]","preload","0","17924","0.0-0.0","F2CD0C50A8EF4383B42E5F00719E33B6","019cf9cc-47a1-72ec-bacd-2d6796283898","019cf974-7aee-7bc9-8ea4-9f55741b365d","","","","","","","","","","","","","",""
"","","","","","instructions","1","24818","0.0-1.0","F2CD0C50A8EF4383B42E5F00719E33B6","019cf9cc-47a1-72ec-bacd-2d6796283898","019cf974-7aee-7bc9-8ea4-9f55741b365d","[{""page_index"":0,""viewing_time"":6893}]","6893","","","","","","","","","","","",""
"","","","","","instructions","2","30024","0.0-2.0","F2CD0C50A8EF4383B42E5F00719E33B6","019cf9cc-47a1-72ec-bacd-2d6796283898","019cf974-7aee-7bc9-8ea4-9f55741b365d","[{""page_index"":0,""viewing_time"":5205}]","5205","","","","","","","","","","","",""
"true","","","","","fullscreen","3","32833","0.0-3.0","F2CD0C50A8EF4383B42E5F00719E33B6","019cf9cc-47a1-72ec-bacd-2d6796283898","019cf974-7aee-7bc9-8ea4-9f55741b365d","","1794","","","","","","","","","","","",""
"","","","","","instructions","4","42352","0.0-4.0","F2CD0C50A8EF4383B42E5F00719E33B6","019cf9cc-47a1-72ec-bacd-2d6796283898","019cf974-7aee-7bc9-8ea4-9f55741b365d","[{""page_index"":0,""viewing_time"":9519}]","9519","","","","","","","","","","","",""
"","","","","","instructions","5","49004","0.0-5.0","F2CD0C50A8EF4383B42E5F00719E33B6","019cf9cc-47a1-72ec-bacd-2d6796283898","019cf974-7aee-7bc9-8ea4-9f55741b365d","[{""page_index"":0,""viewing_time"":6651}]","6652","","","","","","","","","","","",""
"","","","","","html-keyboard-response","6","53017","0.0-6.0","F2CD0C50A8EF4383B42E5F00719E33B6","019cf9cc-47a1-72ec-bacd-2d6796283898","019cf974-7aee-7bc9-8ea4-9f55741b365d","","null","
                <div class=""stimulus-container"">
                    <img src=""images/instructions/movie_1.png"" class=""exp-image"">
                    <div class=""question-area""></div> 
                </div>","null","","","","","","","","","",""
"","","","","","html-button-response","7","55627","0.0-7.0","F2CD0C50A8EF4383B42E5F00719E33B6","019cf9cc-47a1-72ec-bacd-2d6796283898","019cf974-7aee-7bc9-8ea4-9f55741b365d","","2609","
                <div class=""stimulus-container"">
                    <img src=""images/instructions/movie_1.png"" class=""exp-image"">
                    <div class=""question-area"">
                        <p style=""font-size: 20px; font-weight: bold; margin: 0;"">Was there a person in this image?</p>
                    </div>
                </div>","0","example_question","1","","","","","","","",""
"","","","","","html-keyboard-response","8","59634","0.0-8.0","F2CD0C50A8EF4383B42E5F00719E33B6","019cf9cc-47a1-72ec-bacd-2d6796283898","019cf974-7aee-7bc9-8ea4-9f55741b365d","","null","
                <div class=""stimulus-container"">
                    <img src=""images/instructions/movie_2.png"" class=""exp-image"">
                    <div class=""question-area""></div> 
                </div>","null","","","","","","","","","",""
"","","","","","html-button-response","9","61823","0.0-9.0","F2CD0C50A8EF4383B42E5F00719E33B6","019cf9cc-47a1-72ec-bacd-2d6796283898","019cf974-7aee-7bc9-8ea4-9f55741b365d","","2189","
                <div class=""stimulus-container"">
                    <img src=""images/instructions/movie_2.png"" class=""exp-image"">
                    <div class=""question-area"">
                        <p style=""font-size: 20px; font-weight: bold; margin: 0;"">Was there a person in this image?</p>
                    </div>
                </div>","0","example_question","2","","","","","","","",""
"","","","","","html-keyboard-response","10","65828","0.0-10.0","F2CD0C50A8EF4383B42E5F00719E33B6","019cf9cc-47a1-72ec-bacd-2d6796283898","019cf974-7aee-7bc9-8ea4-9f55741b365d","","null","
                <div class=""stimulus-container"">
                    <img src=""images/instructions/movie_3.png"" class=""exp-image"">
                    <div class=""question-area""></div> 
                </div>","null","","","","","","","","","",""
"","","","","","html-button-response","11","66687","0.0-11.0","F2CD0C50A8EF4383B42E5F00719E33B6","019cf9cc-47a1-72ec-bacd-2d6796283898","019cf974-7aee-7bc9-8ea4-9f55741b365d","","858","
                <div class=""stimulus-container"">
                    <img src=""images/instructions/movie_3.png"" class=""exp-image"">
                    <div class=""question-area"">
                        <p style=""font-size: 20px; font-weight: bold; margin: 0;"">Was there a person in this image?</p>
                    </div>
                </div>","0","example_question","3","","","","","","","",""
"","","","","","html-keyboard-response","12","70690","0.0-12.0","F2CD0C50A8EF4383B42E5F00719E33B6","019cf9cc-47a1-72ec-bacd-2d6796283898","019cf974-7aee-7bc9-8ea4-9f55741b365d","","null","
                <div class=""stimulus-container"">
                    <img src=""images/instructions/movie_4.png"" class=""exp-image"">
                    <div class=""question-area""></div> 
                </div>","null","","","","","","","","","",""
"","","","","","html-button-response","13","71230","0.0-13.0","F2CD0C50A8EF4383B42E5F00719E33B6","019cf9cc-47a1-72ec-bacd-2d6796283898","019cf974-7aee-7bc9-8ea4-9f55741b365d","","540","
                <div class=""stimulus-container"">
                    <img src=""images/instructions/movie_4.png"" class=""exp-image"">
                    <div class=""question-area"">
                        <p style=""font-size: 20px; font-weight: bold; margin: 0;"">Was there a person in this image?</p>
                    </div>
                </div>","0","example_question","4","","","","","","","",""
"","","","","","instructions","14","72672","0.0-14.0","F2CD0C50A8EF4383B42E5F00719E33B6","019cf9cc-47a1-72ec-bacd-2d6796283898","019cf974-7aee-7bc9-8ea4-9f55741b365d","[{""page_index"":0,""viewing_time"":1441}]","1441","","","","","","","","","","","",""
"","","","","","instructions","15","76767","0.0-15.0","F2CD0C50A8EF4383B42E5F00719E33B6","019cf9cc-47a1-72ec-bacd-2d6796283898","019cf974-7aee-7bc9-8ea4-9f55741b365d","[{""page_index"":0,""viewing_time"":4095}]","4095","","","","","","","","","","","",""
"","","","","","html-keyboard-response","16","81770","0.0-16.0","F2CD0C50A8EF4383B42E5F00719E33B6","019cf9cc-47a1-72ec-bacd-2d6796283898","019cf974-7aee-7bc9-8ea4-9f55741b365d","","null","<div style=""background-color: white; width: 100vw; height: 100vh;""></div>","null","","","","","","","","","",""
"","","","","","html-keyboard-response","17","82781","0.0-17.0","F2CD0C50A8EF4383B42E5F00719E33B6","019cf9cc-47a1-72ec-bacd-2d6796283898","019cf974-7aee-7bc9-8ea4-9f55741b365d","","null","
                <div class=""stimulus-container"">
                    <img src=""images/semantic_sequence/maintaining_a_car_semantic/maintaining_a_car_semantic_3.png"" class=""exp-image"">
                    <div class=""question-area""></div> 
                </div>","null","","","","","","","","","",""
"","","","","","html-button-response","18","85247","0.0-18.0","F2CD0C50A8EF4383B42E5F00719E33B6","019cf9cc-47a1-72ec-bacd-2d6796283898","019cf974-7aee-7bc9-8ea4-9f55741b365d","","2465","
                <div class=""stimulus-container"">
                    <img src=""images/semantic_sequence/maintaining_a_car_semantic/maintaining_a_car_semantic_3.png"" class=""exp-image"">
                    <div class=""question-area"">
                        <p style=""font-size: 20px; font-weight: bold; margin: 0;"">Is there a person in this image?</p>
                    </div>
                </div>","0","main_experiment_trial","3","maintaining_a_car_semantic","semantic_sequence","randomized","","","","",""
"","","","","","html-keyboard-response","19","86250","0.0-19.0","F2CD0C50A8EF4383B42E5F00719E33B6","019cf9cc-47a1-72ec-bacd-2d6796283898","019cf974-7aee-7bc9-8ea4-9f55741b365d","","null","
                <div class=""stimulus-container"">
                    <img src=""images/semantic_sequence/maintaining_a_car_semantic/maintaining_a_car_semantic_6.png"" class=""exp-image"">
                    <div class=""question-area""></div> 
                </div>","null","","","","","","","","","",""
"","","","","","html-button-response","20","86918","0.0-20.0","F2CD0C50A8EF4383B42E5F00719E33B6","019cf9cc-47a1-72ec-bacd-2d6796283898","019cf974-7aee-7bc9-8ea4-9f55741b365d","","667","
                <div class=""stimulus-container"">
                    <img src=""images/semantic_sequence/maintaining_a_car_semantic/maintaining_a_car_semantic_6.png"" class=""exp-image"">
                    <div class=""question-area"">
                        <p style=""font-size: 20px; font-weight: bold; margin: 0;"">Is there a person in this image?</p>
                    </div>
                </div>","0","main_experiment_trial","6","maintaining_a_car_semantic","semantic_sequence","randomized","","","","",""
"","","","","","html-keyboard-response","21","87924","0.0-21.0","F2CD0C50A8EF4383B42E5F00719E33B6","019cf9cc-47a1-72ec-bacd-2d6796283898","019cf974-7aee-7bc9-8ea4-9f55741b365d","","null","
                <div class=""stimulus-container"">
                    <img src=""images/semantic_sequence/maintaining_a_car_semantic/maintaining_a_car_semantic_8.png"" class=""exp-image"">
                    <div class=""question-area""></div> 
                </div>","null","","","","","","","","","",""
"","","","","","html-button-response","22","89517","0.0-22.0","F2CD0C50A8EF4383B42E5F00719E33B6","019cf9cc-47a1-72ec-bacd-2d6796283898","019cf974-7aee-7bc9-8ea4-9f55741b365d","","1592","
                <div class=""stimulus-container"">
                    <img src=""images/semantic_sequence/maintaining_a_car_semantic/maintaining_a_car_semantic_8.png"" class=""exp-image"">
                    <div class=""question-area"">
                        <p style=""font-size: 20px; font-weight: bold; margin: 0;"">Is there a person in this image?</p>
                    </div>
                </div>","0","main_experiment_trial","8","maintaining_a_car_semantic","semantic_sequence","randomized","","","","",""
"","","","","","html-keyboard-response","23","90526","0.0-23.0","F2CD0C50A8EF4383B42E5F00719E33B6","019cf9cc-47a1-72ec-bacd-2d6796283898","019cf974-7aee-7bc9-8ea4-9f55741b365d","","null","
                <div class=""stimulus-container"">
                    <img src=""images/semantic_sequence/maintaining_a_car_semantic/maintaining_a_car_semantic_7.png"" class=""exp-image"">
                    <div class=""question-area""></div> 
                </div>","null","","","","","","","","","",""
"","","","","","html-button-response","24","92247","0.0-24.0","F2CD0C50A8EF4383B42E5F00719E33B6","019cf9cc-47a1-72ec-bacd-2d6796283898","019cf974-7aee-7bc9-8ea4-9f55741b365d","","1721","
                <div class=""stimulus-container"">
                    <img src=""images/semantic_sequence/maintaining_a_car_semantic/maintaining_a_car_semantic_7.png"" class=""exp-image"">
                    <div class=""question-area"">
                        <p style=""font-size: 20px; font-weight: bold; margin: 0;"">Is there a person in this image?</p>
                    </div>
                </div>","0","main_experiment_trial","7","maintaining_a_car_semantic","semantic_sequence","randomized","","","","",""
"","","","","","html-keyboard-response","25","93252","0.0-25.0","F2CD0C50A8EF4383B42E5F00719E33B6","019cf9cc-47a1-72ec-bacd-2d6796283898","019cf974-7aee-7bc9-8ea4-9f55741b365d","","null","
                <div class=""stimulus-container"">
                    <img src=""images/semantic_sequence/maintaining_a_car_semantic/maintaining_a_car_semantic_1.png"" class=""exp-image"">
                    <div class=""question-area""></div> 
                </div>","null","","","","","","","","","",""
"","","","","","html-button-response","26","93962","0.0-26.0","F2CD0C50A8EF4383B42E5F00719E33B6","019cf9cc-47a1-72ec-bacd-2d6796283898","019cf974-7aee-7bc9-8ea4-9f55741b365d","","708","
                <div class=""stimulus-container"">
                    <img src=""images/semantic_sequence/maintaining_a_car_semantic/maintaining_a_car_semantic_1.png"" class=""exp-image"">
                    <div class=""question-area"">
                        <p style=""font-size: 20px; font-weight: bold; margin: 0;"">Is there a person in this image?</p>
                    </div>
                </div>","0","main_experiment_trial","1","maintaining_a_car_semantic","semantic_sequence","randomized","","","","",""
"","","","","","html-keyboard-response","27","94969","0.0-27.0","F2CD0C50A8EF4383B42E5F00719E33B6","019cf9cc-47a1-72ec-bacd-2d6796283898","019cf974-7aee-7bc9-8ea4-9f55741b365d","","null","
                <div class=""stimulus-container"">
                    <img src=""images/semantic_sequence/maintaining_a_car_semantic/maintaining_a_car_semantic_ten.png"" class=""exp-image"">
                    <div class=""question-area""></div> 
                </div>","null","","","","","","","","","",""
"","","","","","html-button-response","28","97981","0.0-28.0","F2CD0C50A8EF4383B42E5F00719E33B6","019cf9cc-47a1-72ec-bacd-2d6796283898","019cf974-7aee-7bc9-8ea4-9f55741b365d","","null","
                <div class=""stimulus-container"">
                    <img src=""images/semantic_sequence/maintaining_a_car_semantic/maintaining_a_car_semantic_ten.png"" class=""exp-image"">
                    <div class=""question-area"">
                        <p style=""font-size: 20px; font-weight: bold; margin: 0;"">Is there a person in this image?</p>
                    </div>
                </div>","null","main_experiment_trial","ten","maintaining_a_car_semantic","semantic_sequence","randomized","","","","",""
"","","","","","html-keyboard-response","29","98983","0.0-29.0","F2CD0C50A8EF4383B42E5F00719E33B6","019cf9cc-47a1-72ec-bacd-2d6796283898","019cf974-7aee-7bc9-8ea4-9f55741b365d","","null","
                <div class=""stimulus-container"">
                    <img src=""images/semantic_sequence/maintaining_a_car_semantic/maintaining_a_car_semantic_5.png"" class=""exp-image"">
                    <div class=""question-area""></div> 
                </div>","null","","","","","","","","","",""
"","","","","","html-button-response","30","99667","0.0-30.0","F2CD0C50A8EF4383B42E5F00719E33B6","019cf9cc-47a1-72ec-bacd-2d6796283898","019cf974-7aee-7bc9-8ea4-9f55741b365d","","683","
                <div class=""stimulus-container"">
                    <img src=""images/semantic_sequence/maintaining_a_car_semantic/maintaining_a_car_semantic_5.png"" class=""exp-image"">
                    <div class=""question-area"">
                        <p style=""font-size: 20px; font-weight: bold; margin: 0;"">Is there a person in this image?</p>
                    </div>
                </div>","0","main_experiment_trial","5","maintaining_a_car_semantic","semantic_sequence","randomized","","","","",""
"","","","","","html-keyboard-response","31","100674","0.0-31.0","F2CD0C50A8EF4383B42E5F00719E33B6","019cf9cc-47a1-72ec-bacd-2d6796283898","019cf974-7aee-7bc9-8ea4-9f55741b365d","","null","
                <div class=""stimulus-container"">
                    <img src=""images/semantic_sequence/maintaining_a_car_semantic/maintaining_a_car_semantic_9.png"" class=""exp-image"">
                    <div class=""question-area""></div> 
                </div>","null","","","","","","","","","",""
"","","","","","html-button-response","32","101661","0.0-32.0","F2CD0C50A8EF4383B42E5F00719E33B6","019cf9cc-47a1-72ec-bacd-2d6796283898","019cf974-7aee-7bc9-8ea4-9f55741b365d","","986","
                <div class=""stimulus-container"">
                    <img src=""images/semantic_sequence/maintaining_a_car_semantic/maintaining_a_car_semantic_9.png"" class=""exp-image"">
                    <div class=""question-area"">
                        <p style=""font-size: 20px; font-weight: bold; margin: 0;"">Is there a person in this image?</p>
                    </div>
                </div>","0","main_experiment_trial","9","maintaining_a_car_semantic","semantic_sequence","randomized","","","","",""
"","","","","","html-keyboard-response","33","102677","0.0-33.0","F2CD0C50A8EF4383B42E5F00719E33B6","019cf9cc-47a1-72ec-bacd-2d6796283898","019cf974-7aee-7bc9-8ea4-9f55741b365d","","null","
                <div class=""stimulus-container"">
                    <img src=""images/semantic_sequence/maintaining_a_car_semantic/maintaining_a_car_semantic_4.png"" class=""exp-image"">
                    <div class=""question-area""></div> 
                </div>","null","","","","","","","","","",""
"","","","","","html-button-response","34","103192","0.0-34.0","F2CD0C50A8EF4383B42E5F00719E33B6","019cf9cc-47a1-72ec-bacd-2d6796283898","019cf974-7aee-7bc9-8ea4-9f55741b365d","","515","
                <div class=""stimulus-container"">
                    <img src=""images/semantic_sequence/maintaining_a_car_semantic/maintaining_a_car_semantic_4.png"" class=""exp-image"">
                    <div class=""question-area"">
                        <p style=""font-size: 20px; font-weight: bold; margin: 0;"">Is there a person in this image?</p>
                    </div>
                </div>","0","main_experiment_trial","4","maintaining_a_car_semantic","semantic_sequence","randomized","","","","",""
"","","","","","html-keyboard-response","35","104200","0.0-35.0","F2CD0C50A8EF4383B42E5F00719E33B6","019cf9cc-47a1-72ec-bacd-2d6796283898","019cf974-7aee-7bc9-8ea4-9f55741b365d","","null","
                <div class=""stimulus-container"">
                    <img src=""images/semantic_sequence/maintaining_a_car_semantic/maintaining_a_car_semantic_2.png"" class=""exp-image"">
                    <div class=""question-area""></div> 
                </div>","null","","","","","","","","","",""
"","","","","","html-button-response","36","105590","0.0-36.0","F2CD0C50A8EF4383B42E5F00719E33B6","019cf9cc-47a1-72ec-bacd-2d6796283898","019cf974-7aee-7bc9-8ea4-9f55741b365d","","1389","
                <div class=""stimulus-container"">
                    <img src=""images/semantic_sequence/maintaining_a_car_semantic/maintaining_a_car_semantic_2.png"" class=""exp-image"">
                    <div class=""question-area"">
                        <p style=""font-size: 20px; font-weight: bold; margin: 0;"">Is there a person in this image?</p>
                    </div>
                </div>","0","main_experiment_trial","2","maintaining_a_car_semantic","semantic_sequence","randomized","","","","",""
"","","","","","html-keyboard-response","37","110595","0.0-37.0","F2CD0C50A8EF4383B42E5F00719E33B6","019cf9cc-47a1-72ec-bacd-2d6796283898","019cf974-7aee-7bc9-8ea4-9f55741b365d","","null","<div style=""background-color: white; width: 100vw; height: 100vh;""></div>","null","","","","","","","","","",""
"","","","","","html-keyboard-response","38","111599","0.0-38.0","F2CD0C50A8EF4383B42E5F00719E33B6","019cf9cc-47a1-72ec-bacd-2d6796283898","019cf974-7aee-7bc9-8ea4-9f55741b365d","","null","
                <div class=""stimulus-container"">
                    <img src=""images/semantic_sequence/housework_semantic/housework_semantic_6.png"" class=""exp-image"">
                    <div class=""question-area""></div> 
                </div>","null","","","","","","","","","",""
"","","","","","html-button-response","39","112617","0.0-39.0","F2CD0C50A8EF4383B42E5F00719E33B6","019cf9cc-47a1-72ec-bacd-2d6796283898","019cf974-7aee-7bc9-8ea4-9f55741b365d","","1017","
                <div class=""stimulus-container"">
                    <img src=""images/semantic_sequence/housework_semantic/housework_semantic_6.png"" class=""exp-image"">
                    <div class=""question-area"">
                        <p style=""font-size: 20px; font-weight: bold; margin: 0;"">Is there a person in this image?</p>
                    </div>
                </div>","0","main_experiment_trial","6","housework_semantic","semantic_sequence","randomized","","","","",""
"","","","","","html-keyboard-response","40","113620","0.0-40.0","F2CD0C50A8EF4383B42E5F00719E33B6","019cf9cc-47a1-72ec-bacd-2d6796283898","019cf974-7aee-7bc9-8ea4-9f55741b365d","","null","
                <div class=""stimulus-container"">
                    <img src=""images/semantic_sequence/housework_semantic/housework_semantic_7.png"" class=""exp-image"">
                    <div class=""question-area""></div> 
                </div>","null","","","","","","","","","",""
"","","","","","html-button-response","41","114254","0.0-41.0","F2CD0C50A8EF4383B42E5F00719E33B6","019cf9cc-47a1-72ec-bacd-2d6796283898","019cf974-7aee-7bc9-8ea4-9f55741b365d","","632","
                <div class=""stimulus-container"">
                    <img src=""images/semantic_sequence/housework_semantic/housework_semantic_7.png"" class=""exp-image"">
                    <div class=""question-area"">
                        <p style=""font-size: 20px; font-weight: bold; margin: 0;"">Is there a person in this image?</p>
                    </div>
                </div>","1","main_experiment_trial","7","housework_semantic","semantic_sequence","randomized","","","","",""
"","","","","","html-keyboard-response","42","115266","0.0-42.0","F2CD0C50A8EF4383B42E5F00719E33B6","019cf9cc-47a1-72ec-bacd-2d6796283898","019cf974-7aee-7bc9-8ea4-9f55741b365d","","null","
                <div class=""stimulus-container"">
                    <img src=""images/semantic_sequence/housework_semantic/housework_semantic_3.png"" class=""exp-image"">
                    <div class=""question-area""></div> 
                </div>","null","","","","","","","","","",""
"","","","","","html-button-response","43","116686","0.0-43.0","F2CD0C50A8EF4383B42E5F00719E33B6","019cf9cc-47a1-72ec-bacd-2d6796283898","019cf974-7aee-7bc9-8ea4-9f55741b365d","","1419","
                <div class=""stimulus-container"">
                    <img src=""images/semantic_sequence/housework_semantic/housework_semantic_3.png"" class=""exp-image"">
                    <div class=""question-area"">
                        <p style=""font-size: 20px; font-weight: bold; margin: 0;"">Is there a person in this image?</p>
                    </div>
                </div>","0","main_experiment_trial","3","housework_semantic","semantic_sequence","randomized","","","","",""
"","","","","","html-keyboard-response","44","117693","0.0-44.0","F2CD0C50A8EF4383B42E5F00719E33B6","019cf9cc-47a1-72ec-bacd-2d6796283898","019cf974-7aee-7bc9-8ea4-9f55741b365d","","null","
                <div class=""stimulus-container"">
                    <img src=""images/semantic_sequence/housework_semantic/housework_semantic_8.png"" class=""exp-image"">
                    <div class=""question-area""></div> 
                </div>","null","","","","","","","","","",""
"","","","","","html-button-response","45","118173","0.0-45.0","F2CD0C50A8EF4383B42E5F00719E33B6","019cf9cc-47a1-72ec-bacd-2d6796283898","019cf974-7aee-7bc9-8ea4-9f55741b365d","","478","
                <div class=""stimulus-container"">
                    <img src=""images/semantic_sequence/housework_semantic/housework_semantic_8.png"" class=""exp-image"">
                    <div class=""question-area"">
                        <p style=""font-size: 20px; font-weight: bold; margin: 0;"">Is there a person in this image?</p>
                    </div>
                </div>","0","main_experiment_trial","8","housework_semantic","semantic_sequence","randomized","","","","",""
"","","","","","html-keyboard-response","46","119180","0.0-46.0","F2CD0C50A8EF4383B42E5F00719E33B6","019cf9cc-47a1-72ec-bacd-2d6796283898","019cf974-7aee-7bc9-8ea4-9f55741b365d","","null","
                <div class=""stimulus-container"">
                    <img src=""images/semantic_sequence/housework_semantic/housework_semantic_ten.png"" class=""exp-image"">
                    <div class=""question-area""></div> 
                </div>","null","","","","","","","","","",""
"","","","","","html-button-response","47","119573","0.0-47.0","F2CD0C50A8EF4383B42E5F00719E33B6","019cf9cc-47a1-72ec-bacd-2d6796283898","019cf974-7aee-7bc9-8ea4-9f55741b365d","","393","
                <div class=""stimulus-container"">
                    <img src=""images/semantic_sequence/housework_semantic/housework_semantic_ten.png"" class=""exp-image"">
                    <div class=""question-area"">
                        <p style=""font-size: 20px; font-weight: bold; margin: 0;"">Is there a person in this image?</p>
                    </div>
                </div>","0","main_experiment_trial","ten","housework_semantic","semantic_sequence","randomized","","","","",""
"","","","","","html-keyboard-response","48","120576","0.0-48.0","F2CD0C50A8EF4383B42E5F00719E33B6","019cf9cc-47a1-72ec-bacd-2d6796283898","019cf974-7aee-7bc9-8ea4-9f55741b365d","","null","
                <div class=""stimulus-container"">
                    <img src=""images/semantic_sequence/housework_semantic/housework_semantic_2.png"" class=""exp-image"">
                    <div class=""question-area""></div> 
                </div>","null","","","","","","","","","",""
"","","","","","html-button-response","49","121043","0.0-49.0","F2CD0C50A8EF4383B42E5F00719E33B6","019cf9cc-47a1-72ec-bacd-2d6796283898","019cf974-7aee-7bc9-8ea4-9f55741b365d","","466","
                <div class=""stimulus-container"">
                    <img src=""images/semantic_sequence/housework_semantic/housework_semantic_2.png"" class=""exp-image"">
                    <div class=""question-area"">
                        <p style=""font-size: 20px; font-weight: bold; margin: 0;"">Is there a person in this image?</p>
                    </div>
                </div>","0","main_experiment_trial","2","housework_semantic","semantic_sequence","randomized","","","","",""
"","","","","","html-keyboard-response","50","122048","0.0-50.0","F2CD0C50A8EF4383B42E5F00719E33B6","019cf9cc-47a1-72ec-bacd-2d6796283898","019cf974-7aee-7bc9-8ea4-9f55741b365d","","null","
                <div class=""stimulus-container"">
                    <img src=""images/semantic_sequence/housework_semantic/housework_semantic_4.png"" class=""exp-image"">
                    <div class=""question-area""></div> 
                </div>","null","","","","","","","","","",""
"","","","","","html-button-response","51","122417","0.0-51.0","F2CD0C50A8EF4383B42E5F00719E33B6","019cf9cc-47a1-72ec-bacd-2d6796283898","019cf974-7aee-7bc9-8ea4-9f55741b365d","","368","
                <div class=""stimulus-container"">
                    <img src=""images/semantic_sequence/housework_semantic/housework_semantic_4.png"" class=""exp-image"">
                    <div class=""question-area"">
                        <p style=""font-size: 20px; font-weight: bold; margin: 0;"">Is there a person in this image?</p>
                    </div>
                </div>","0","main_experiment_trial","4","housework_semantic","semantic_sequence","randomized","","","","",""
"","","","","","html-keyboard-response","52","123424","0.0-52.0","F2CD0C50A8EF4383B42E5F00719E33B6","019cf9cc-47a1-72ec-bacd-2d6796283898","019cf974-7aee-7bc9-8ea4-9f55741b365d","","null","
                <div class=""stimulus-container"">
                    <img src=""images/semantic_sequence/housework_semantic/housework_semantic_1.png"" class=""exp-image"">
                    <div class=""question-area""></div> 
                </div>","null","","","","","","","","","",""
"","","","","","html-button-response","53","124744","0.0-53.0","F2CD0C50A8EF4383B42E5F00719E33B6","019cf9cc-47a1-72ec-bacd-2d6796283898","019cf974-7aee-7bc9-8ea4-9f55741b365d","","1320","
                <div class=""stimulus-container"">
                    <img src=""images/semantic_sequence/housework_semantic/housework_semantic_1.png"" class=""exp-image"">
                    <div class=""question-area"">
                        <p style=""font-size: 20px; font-weight: bold; margin: 0;"">Is there a person in this image?</p>
                    </div>
                </div>","0","main_experiment_trial","1","housework_semantic","semantic_sequence","randomized","","","","",""
"","","","","","html-keyboard-response","54","125752","0.0-54.0","F2CD0C50A8EF4383B42E5F00719E33B6","019cf9cc-47a1-72ec-bacd-2d6796283898","019cf974-7aee-7bc9-8ea4-9f55741b365d","","null","
                <div class=""stimulus-container"">
                    <img src=""images/semantic_sequence/housework_semantic/housework_semantic_5.png"" class=""exp-image"">
                    <div class=""question-area""></div> 
                </div>","null","","","","","","","","","",""
"","","","","","html-button-response","55","126250","0.0-55.0","F2CD0C50A8EF4383B42E5F00719E33B6","019cf9cc-47a1-72ec-bacd-2d6796283898","019cf974-7aee-7bc9-8ea4-9f55741b365d","","497","
                <div class=""stimulus-container"">
                    <img src=""images/semantic_sequence/housework_semantic/housework_semantic_5.png"" class=""exp-image"">
                    <div class=""question-area"">
                        <p style=""font-size: 20px; font-weight: bold; margin: 0;"">Is there a person in this image?</p>
                    </div>
                </div>","0","main_experiment_trial","5","housework_semantic","semantic_sequence","randomized","","","","",""
"","","","","","html-keyboard-response","56","127260","0.0-56.0","F2CD0C50A8EF4383B42E5F00719E33B6","019cf9cc-47a1-72ec-bacd-2d6796283898","019cf974-7aee-7bc9-8ea4-9f55741b365d","","null","
                <div class=""stimulus-container"">
                    <img src=""images/semantic_sequence/housework_semantic/housework_semantic_9.png"" class=""exp-image"">
                    <div class=""question-area""></div> 
                </div>","null","","","","","","","","","",""
"","","","","","html-button-response","57","127702","0.0-57.0","F2CD0C50A8EF4383B42E5F00719E33B6","019cf9cc-47a1-72ec-bacd-2d6796283898","019cf974-7aee-7bc9-8ea4-9f55741b365d","","442","
                <div class=""stimulus-container"">
                    <img src=""images/semantic_sequence/housework_semantic/housework_semantic_9.png"" class=""exp-image"">
                    <div class=""question-area"">
                        <p style=""font-size: 20px; font-weight: bold; margin: 0;"">Is there a person in this image?</p>
                    </div>
                </div>","0","main_experiment_trial","9","housework_semantic","semantic_sequence","randomized","","","","",""
"","","","","","html-keyboard-response","58","132704","0.0-58.0","F2CD0C50A8EF4383B42E5F00719E33B6","019cf9cc-47a1-72ec-bacd-2d6796283898","019cf974-7aee-7bc9-8ea4-9f55741b365d","","null","<div style=""background-color: white; width: 100vw; height: 100vh;""></div>","null","","","","","","","","","",""
"","","","","","html-keyboard-response","59","133707","0.0-59.0","F2CD0C50A8EF4383B42E5F00719E33B6","019cf9cc-47a1-72ec-bacd-2d6796283898","019cf974-7aee-7bc9-8ea4-9f55741b365d","","null","
                <div class=""stimulus-container"">
                    <img src=""images/causal_sequence/the_performance_causal/the_performance_causal_4.png"" class=""exp-image"">
                    <div class=""question-area""></div> 
                </div>","null","","","","","","","","","",""
"","","","","","html-button-response","60","135515","0.0-60.0","F2CD0C50A8EF4383B42E5F00719E33B6","019cf9cc-47a1-72ec-bacd-2d6796283898","019cf974-7aee-7bc9-8ea4-9f55741b365d","","1807","
                <div class=""stimulus-container"">
                    <img src=""images/causal_sequence/the_performance_causal/the_performance_causal_4.png"" class=""exp-image"">
                    <div class=""question-area"">
                        <p style=""font-size: 20px; font-weight: bold; margin: 0;"">Is there a person in this image?</p>
                    </div>
                </div>","0","main_experiment_trial","4","the_performance_causal","causal_sequence","randomized","","","","",""
"","","","","","html-keyboard-response","61","136525","0.0-61.0","F2CD0C50A8EF4383B42E5F00719E33B6","019cf9cc-47a1-72ec-bacd-2d6796283898","019cf974-7aee-7bc9-8ea4-9f55741b365d","","null","
                <div class=""stimulus-container"">
                    <img src=""images/causal_sequence/the_performance_causal/the_performance_causal_5.png"" class=""exp-image"">
                    <div class=""question-area""></div> 
                </div>","null","","","","","","","","","",""
"","","","","","html-button-response","62","137056","0.0-62.0","F2CD0C50A8EF4383B42E5F00719E33B6","019cf9cc-47a1-72ec-bacd-2d6796283898","019cf974-7aee-7bc9-8ea4-9f55741b365d","","530","
                <div class=""stimulus-container"">
                    <img src=""images/causal_sequence/the_performance_causal/the_performance_causal_5.png"" class=""exp-image"">
                    <div class=""question-area"">
                        <p style=""font-size: 20px; font-weight: bold; margin: 0;"">Is there a person in this image?</p>
                    </div>
                </div>","0","main_experiment_trial","5","the_performance_causal","causal_sequence","randomized","","","","",""
"","","","","","html-keyboard-response","63","138064","0.0-63.0","F2CD0C50A8EF4383B42E5F00719E33B6","019cf9cc-47a1-72ec-bacd-2d6796283898","019cf974-7aee-7bc9-8ea4-9f55741b365d","","null","
                <div class=""stimulus-container"">
                    <img src=""images/causal_sequence/the_performance_causal/the_performance_causal_9.png"" class=""exp-image"">
                    <div class=""question-area""></div> 
                </div>","null","","","","","","","","","",""
"","","","","","html-button-response","64","138534","0.0-64.0","F2CD0C50A8EF4383B42E5F00719E33B6","019cf9cc-47a1-72ec-bacd-2d6796283898","019cf974-7aee-7bc9-8ea4-9f55741b365d","","469","
                <div class=""stimulus-container"">
                    <img src=""images/causal_sequence/the_performance_causal/the_performance_causal_9.png"" class=""exp-image"">
                    <div class=""question-area"">
                        <p style=""font-size: 20px; font-weight: bold; margin: 0;"">Is there a person in this image?</p>
                    </div>
                </div>","0","main_experiment_trial","9","the_performance_causal","causal_sequence","randomized","","","","",""
"","","","","","html-keyboard-response","65","139548","0.0-65.0","F2CD0C50A8EF4383B42E5F00719E33B6","019cf9cc-47a1-72ec-bacd-2d6796283898","019cf974-7aee-7bc9-8ea4-9f55741b365d","","null","
                <div class=""stimulus-container"">
                    <img src=""images/causal_sequence/the_performance_causal/the_performance_causal_7.png"" class=""exp-image"">
                    <div class=""question-area""></div> 
                </div>","null","","","","","","","","","",""
"","","","","","html-button-response","66","140976","0.0-66.0","F2CD0C50A8EF4383B42E5F00719E33B6","019cf9cc-47a1-72ec-bacd-2d6796283898","019cf974-7aee-7bc9-8ea4-9f55741b365d","","1427","
                <div class=""stimulus-container"">
                    <img src=""images/causal_sequence/the_performance_causal/the_performance_causal_7.png"" class=""exp-image"">
                    <div class=""question-area"">
                        <p style=""font-size: 20px; font-weight: bold; margin: 0;"">Is there a person in this image?</p>
                    </div>
                </div>","0","main_experiment_trial","7","the_performance_causal","causal_sequence","randomized","","","","",""
"","","","","","html-keyboard-response","67","141988","0.0-67.0","F2CD0C50A8EF4383B42E5F00719E33B6","019cf9cc-47a1-72ec-bacd-2d6796283898","019cf974-7aee-7bc9-8ea4-9f55741b365d","","null","
                <div class=""stimulus-container"">
                    <img src=""images/causal_sequence/the_performance_causal/the_performance_causal_6.png"" class=""exp-image"">
                    <div class=""question-area""></div> 
                </div>","null","","","","","","","","","",""
"","","","","","html-button-response","68","142595","0.0-68.0","F2CD0C50A8EF4383B42E5F00719E33B6","019cf9cc-47a1-72ec-bacd-2d6796283898","019cf974-7aee-7bc9-8ea4-9f55741b365d","","606","
                <div class=""stimulus-container"">
                    <img src=""images/causal_sequence/the_performance_causal/the_performance_causal_6.png"" class=""exp-image"">
                    <div class=""question-area"">
                        <p style=""font-size: 20px; font-weight: bold; margin: 0;"">Is there a person in this image?</p>
                    </div>
                </div>","0","main_experiment_trial","6","the_performance_causal","causal_sequence","randomized","","","","",""
"","","","","","html-keyboard-response","69","143599","0.0-69.0","F2CD0C50A8EF4383B42E5F00719E33B6","019cf9cc-47a1-72ec-bacd-2d6796283898","019cf974-7aee-7bc9-8ea4-9f55741b365d","","null","
                <div class=""stimulus-container"">
                    <img src=""images/causal_sequence/the_performance_causal/the_performance_causal_2.png"" class=""exp-image"">
                    <div class=""question-area""></div> 
                </div>","null","","","","","","","","","",""
"","","","","","html-button-response","70","144301","0.0-70.0","F2CD0C50A8EF4383B42E5F00719E33B6","019cf9cc-47a1-72ec-bacd-2d6796283898","019cf974-7aee-7bc9-8ea4-9f55741b365d","","702","
                <div class=""stimulus-container"">
                    <img src=""images/causal_sequence/the_performance_causal/the_performance_causal_2.png"" class=""exp-image"">
                    <div class=""question-area"">
                        <p style=""font-size: 20px; font-weight: bold; margin: 0;"">Is there a person in this image?</p>
                    </div>
                </div>","0","main_experiment_trial","2","the_performance_causal","causal_sequence","randomized","","","","",""
"","","","","","html-keyboard-response","71","145315","0.0-71.0","F2CD0C50A8EF4383B42E5F00719E33B6","019cf9cc-47a1-72ec-bacd-2d6796283898","019cf974-7aee-7bc9-8ea4-9f55741b365d","","null","
                <div class=""stimulus-container"">
                    <img src=""images/causal_sequence/the_performance_causal/the_performance_causal_3.png"" class=""exp-image"">
                    <div class=""question-area""></div> 
                </div>","null","","","","","","","","","",""
"","","","","","html-button-response","72","145849","0.0-72.0","F2CD0C50A8EF4383B42E5F00719E33B6","019cf9cc-47a1-72ec-bacd-2d6796283898","019cf974-7aee-7bc9-8ea4-9f55741b365d","","533","
                <div class=""stimulus-container"">
                    <img src=""images/causal_sequence/the_performance_causal/the_performance_causal_3.png"" class=""exp-image"">
                    <div class=""question-area"">
                        <p style=""font-size: 20px; font-weight: bold; margin: 0;"">Is there a person in this image?</p>
                    </div>
                </div>","0","main_experiment_trial","3","the_performance_causal","causal_sequence","randomized","","","","",""
"","","","","","html-keyboard-response","73","146860","0.0-73.0","F2CD0C50A8EF4383B42E5F00719E33B6","019cf9cc-47a1-72ec-bacd-2d6796283898","019cf974-7aee-7bc9-8ea4-9f55741b365d","","null","
                <div class=""stimulus-container"">
                    <img src=""images/causal_sequence/the_performance_causal/the_performance_causal_1.png"" class=""exp-image"">
                    <div class=""question-area""></div> 
                </div>","null","","","","","","","","","",""
"","","","","","html-button-response","74","147451","0.0-74.0","F2CD0C50A8EF4383B42E5F00719E33B6","019cf9cc-47a1-72ec-bacd-2d6796283898","019cf974-7aee-7bc9-8ea4-9f55741b365d","","591","
                <div class=""stimulus-container"">
                    <img src=""images/causal_sequence/the_performance_causal/the_performance_causal_1.png"" class=""exp-image"">
                    <div class=""question-area"">
                        <p style=""font-size: 20px; font-weight: bold; margin: 0;"">Is there a person in this image?</p>
                    </div>
                </div>","0","main_experiment_trial","1","the_performance_causal","causal_sequence","randomized","","","","",""
"","","","","","html-keyboard-response","75","148452","0.0-75.0","F2CD0C50A8EF4383B42E5F00719E33B6","019cf9cc-47a1-72ec-bacd-2d6796283898","019cf974-7aee-7bc9-8ea4-9f55741b365d","","null","
                <div class=""stimulus-container"">
                    <img src=""images/causal_sequence/the_performance_causal/the_performance_causal_8.png"" class=""exp-image"">
                    <div class=""question-area""></div> 
                </div>","null","","","","","","","","","",""
"","","","","","html-button-response","76","149410","0.0-76.0","F2CD0C50A8EF4383B42E5F00719E33B6","019cf9cc-47a1-72ec-bacd-2d6796283898","019cf974-7aee-7bc9-8ea4-9f55741b365d","","957","
                <div class=""stimulus-container"">
                    <img src=""images/causal_sequence/the_performance_causal/the_performance_causal_8.png"" class=""exp-image"">
                    <div class=""question-area"">
                        <p style=""font-size: 20px; font-weight: bold; margin: 0;"">Is there a person in this image?</p>
                    </div>
                </div>","0","main_experiment_trial","8","the_performance_causal","causal_sequence","randomized","","","","",""
"","","","","","html-keyboard-response","77","150413","0.0-77.0","F2CD0C50A8EF4383B42E5F00719E33B6","019cf9cc-47a1-72ec-bacd-2d6796283898","019cf974-7aee-7bc9-8ea4-9f55741b365d","","null","
                <div class=""stimulus-container"">
                    <img src=""images/causal_sequence/the_performance_causal/the_performance_causal_ten.png"" class=""exp-image"">
                    <div class=""question-area""></div> 
                </div>","null","","","","","","","","","",""
"","","","","","html-button-response","78","151721","0.0-78.0","F2CD0C50A8EF4383B42E5F00719E33B6","019cf9cc-47a1-72ec-bacd-2d6796283898","019cf974-7aee-7bc9-8ea4-9f55741b365d","","1307","
                <div class=""stimulus-container"">
                    <img src=""images/causal_sequence/the_performance_causal/the_performance_causal_ten.png"" class=""exp-image"">
                    <div class=""question-area"">
                        <p style=""font-size: 20px; font-weight: bold; margin: 0;"">Is there a person in this image?</p>
                    </div>
                </div>","0","main_experiment_trial","ten","the_performance_causal","causal_sequence","randomized","","","","",""
"","","","","","html-keyboard-response","79","156730","0.0-79.0","F2CD0C50A8EF4383B42E5F00719E33B6","019cf9cc-47a1-72ec-bacd-2d6796283898","019cf974-7aee-7bc9-8ea4-9f55741b365d","","null","<div style=""background-color: white; width: 100vw; height: 100vh;""></div>","null","","","","","","","","","",""
"","","","","","html-keyboard-response","80","157737","0.0-80.0","F2CD0C50A8EF4383B42E5F00719E33B6","019cf9cc-47a1-72ec-bacd-2d6796283898","019cf974-7aee-7bc9-8ea4-9f55741b365d","","null","
                <div class=""stimulus-container"">
                    <img src=""images/semantic_sequence/market_semantic/market_semantic_9.png"" class=""exp-image"">
                    <div class=""question-area""></div> 
                </div>","null","","","","","","","","","",""
"","","","","","html-button-response","81","158933","0.0-81.0","F2CD0C50A8EF4383B42E5F00719E33B6","019cf9cc-47a1-72ec-bacd-2d6796283898","019cf974-7aee-7bc9-8ea4-9f55741b365d","","1195","
                <div class=""stimulus-container"">
                    <img src=""images/semantic_sequence/market_semantic/market_semantic_9.png"" class=""exp-image"">
                    <div class=""question-area"">
                        <p style=""font-size: 20px; font-weight: bold; margin: 0;"">Is there a person in this image?</p>
                    </div>
                </div>","0","main_experiment_trial","9","market_semantic","semantic_sequence","randomized","","","","",""
"","","","","","html-keyboard-response","82","159940","0.0-82.0","F2CD0C50A8EF4383B42E5F00719E33B6","019cf9cc-47a1-72ec-bacd-2d6796283898","019cf974-7aee-7bc9-8ea4-9f55741b365d","","null","
                <div class=""stimulus-container"">
                    <img src=""images/semantic_sequence/market_semantic/market_semantic_4.png"" class=""exp-image"">
                    <div class=""question-area""></div> 
                </div>","null","","","","","","","","","",""
"","","","","","html-button-response","83","160470","0.0-83.0","F2CD0C50A8EF4383B42E5F00719E33B6","019cf9cc-47a1-72ec-bacd-2d6796283898","019cf974-7aee-7bc9-8ea4-9f55741b365d","","530","
                <div class=""stimulus-container"">
                    <img src=""images/semantic_sequence/market_semantic/market_semantic_4.png"" class=""exp-image"">
                    <div class=""question-area"">
                        <p style=""font-size: 20px; font-weight: bold; margin: 0;"">Is there a person in this image?</p>
                    </div>
                </div>","0","main_experiment_trial","4","market_semantic","semantic_sequence","randomized","","","","",""
"","","","","","html-keyboard-response","84","161485","0.0-84.0","F2CD0C50A8EF4383B42E5F00719E33B6","019cf9cc-47a1-72ec-bacd-2d6796283898","019cf974-7aee-7bc9-8ea4-9f55741b365d","","null","
                <div class=""stimulus-container"">
                    <img src=""images/semantic_sequence/market_semantic/market_semantic_6.png"" class=""exp-image"">
                    <div class=""question-area""></div> 
                </div>","null","","","","","","","","","",""
"","","","","","html-button-response","85","163918","0.0-85.0","F2CD0C50A8EF4383B42E5F00719E33B6","019cf9cc-47a1-72ec-bacd-2d6796283898","019cf974-7aee-7bc9-8ea4-9f55741b365d","","2432","
                <div class=""stimulus-container"">
                    <img src=""images/semantic_sequence/market_semantic/market_semantic_6.png"" class=""exp-image"">
                    <div class=""question-area"">
                        <p style=""font-size: 20px; font-weight: bold; margin: 0;"">Is there a person in this image?</p>
                    </div>
                </div>","0","main_experiment_trial","6","market_semantic","semantic_sequence","randomized","","","","",""
"","","","","","html-keyboard-response","86","164923","0.0-86.0","F2CD0C50A8EF4383B42E5F00719E33B6","019cf9cc-47a1-72ec-bacd-2d6796283898","019cf974-7aee-7bc9-8ea4-9f55741b365d","","null","
                <div class=""stimulus-container"">
                    <img src=""images/semantic_sequence/market_semantic/market_semantic_ten.png"" class=""exp-image"">
                    <div class=""question-area""></div> 
                </div>","null","","","","","","","","","",""
"","","","","","html-button-response","87","167926","0.0-87.0","F2CD0C50A8EF4383B42E5F00719E33B6","019cf9cc-47a1-72ec-bacd-2d6796283898","019cf974-7aee-7bc9-8ea4-9f55741b365d","","null","
                <div class=""stimulus-container"">
                    <img src=""images/semantic_sequence/market_semantic/market_semantic_ten.png"" class=""exp-image"">
                    <div class=""question-area"">
                        <p style=""font-size: 20px; font-weight: bold; margin: 0;"">Is there a person in this image?</p>
                    </div>
                </div>","null","main_experiment_trial","ten","market_semantic","semantic_sequence","randomized","","","","",""
"","","","","","html-keyboard-response","88","168929","0.0-88.0","F2CD0C50A8EF4383B42E5F00719E33B6","019cf9cc-47a1-72ec-bacd-2d6796283898","019cf974-7aee-7bc9-8ea4-9f55741b365d","","null","
                <div class=""stimulus-container"">
                    <img src=""images/semantic_sequence/market_semantic/market_semantic_2.png"" class=""exp-image"">
                    <div class=""question-area""></div> 
                </div>","null","","","","","","","","","",""
"","","","","","html-button-response","89","169615","0.0-89.0","F2CD0C50A8EF4383B42E5F00719E33B6","019cf9cc-47a1-72ec-bacd-2d6796283898","019cf974-7aee-7bc9-8ea4-9f55741b365d","","685","
                <div class=""stimulus-container"">
                    <img src=""images/semantic_sequence/market_semantic/market_semantic_2.png"" class=""exp-image"">
                    <div class=""question-area"">
                        <p style=""font-size: 20px; font-weight: bold; margin: 0;"">Is there a person in this image?</p>
                    </div>
                </div>","1","main_experiment_trial","2","market_semantic","semantic_sequence","randomized","","","","",""
"","","","","","html-keyboard-response","90","170621","0.0-90.0","F2CD0C50A8EF4383B42E5F00719E33B6","019cf9cc-47a1-72ec-bacd-2d6796283898","019cf974-7aee-7bc9-8ea4-9f55741b365d","","null","
                <div class=""stimulus-container"">
                    <img src=""images/semantic_sequence/market_semantic/market_semantic_1.png"" class=""exp-image"">
                    <div class=""question-area""></div> 
                </div>","null","","","","","","","","","",""
"","","","","","html-button-response","91","171077","0.0-91.0","F2CD0C50A8EF4383B42E5F00719E33B6","019cf9cc-47a1-72ec-bacd-2d6796283898","019cf974-7aee-7bc9-8ea4-9f55741b365d","","455","
                <div class=""stimulus-container"">
                    <img src=""images/semantic_sequence/market_semantic/market_semantic_1.png"" class=""exp-image"">
                    <div class=""question-area"">
                        <p style=""font-size: 20px; font-weight: bold; margin: 0;"">Is there a person in this image?</p>
                    </div>
                </div>","1","main_experiment_trial","1","market_semantic","semantic_sequence","randomized","","","","",""
"","","","","","html-keyboard-response","92","172078","0.0-92.0","F2CD0C50A8EF4383B42E5F00719E33B6","019cf9cc-47a1-72ec-bacd-2d6796283898","019cf974-7aee-7bc9-8ea4-9f55741b365d","","null","
                <div class=""stimulus-container"">
                    <img src=""images/semantic_sequence/market_semantic/market_semantic_8.png"" class=""exp-image"">
                    <div class=""question-area""></div> 
                </div>","null","","","","","","","","","",""
"","","","","","html-button-response","93","172817","0.0-93.0","F2CD0C50A8EF4383B42E5F00719E33B6","019cf9cc-47a1-72ec-bacd-2d6796283898","019cf974-7aee-7bc9-8ea4-9f55741b365d","","738","
                <div class=""stimulus-container"">
                    <img src=""images/semantic_sequence/market_semantic/market_semantic_8.png"" class=""exp-image"">
                    <div class=""question-area"">
                        <p style=""font-size: 20px; font-weight: bold; margin: 0;"">Is there a person in this image?</p>
                    </div>
                </div>","0","main_experiment_trial","8","market_semantic","semantic_sequence","randomized","","","","",""
"","","","","","html-keyboard-response","94","173819","0.0-94.0","F2CD0C50A8EF4383B42E5F00719E33B6","019cf9cc-47a1-72ec-bacd-2d6796283898","019cf974-7aee-7bc9-8ea4-9f55741b365d","","null","
                <div class=""stimulus-container"">
                    <img src=""images/semantic_sequence/market_semantic/market_semantic_3.png"" class=""exp-image"">
                    <div class=""question-area""></div> 
                </div>","null","","","","","","","","","",""
"","","","","","html-button-response","95","174218","0.0-95.0","F2CD0C50A8EF4383B42E5F00719E33B6","019cf9cc-47a1-72ec-bacd-2d6796283898","019cf974-7aee-7bc9-8ea4-9f55741b365d","","398","
                <div class=""stimulus-container"">
                    <img src=""images/semantic_sequence/market_semantic/market_semantic_3.png"" class=""exp-image"">
                    <div class=""question-area"">
                        <p style=""font-size: 20px; font-weight: bold; margin: 0;"">Is there a person in this image?</p>
                    </div>
                </div>","1","main_experiment_trial","3","market_semantic","semantic_sequence","randomized","","","","",""
"","","","","","html-keyboard-response","96","175231","0.0-96.0","F2CD0C50A8EF4383B42E5F00719E33B6","019cf9cc-47a1-72ec-bacd-2d6796283898","019cf974-7aee-7bc9-8ea4-9f55741b365d","","null","
                <div class=""stimulus-container"">
                    <img src=""images/semantic_sequence/market_semantic/market_semantic_7.png"" class=""exp-image"">
                    <div class=""question-area""></div> 
                </div>","null","","","","","","","","","",""
"","","","","","html-button-response","97","175626","0.0-97.0","F2CD0C50A8EF4383B42E5F00719E33B6","019cf9cc-47a1-72ec-bacd-2d6796283898","019cf974-7aee-7bc9-8ea4-9f55741b365d","","395","
                <div class=""stimulus-container"">
                    <img src=""images/semantic_sequence/market_semantic/market_semantic_7.png"" class=""exp-image"">
                    <div class=""question-area"">
                        <p style=""font-size: 20px; font-weight: bold; margin: 0;"">Is there a person in this image?</p>
                    </div>
                </div>","0","main_experiment_trial","7","market_semantic","semantic_sequence","randomized","","","","",""
"","","","","","html-keyboard-response","98","176638","0.0-98.0","F2CD0C50A8EF4383B42E5F00719E33B6","019cf9cc-47a1-72ec-bacd-2d6796283898","019cf974-7aee-7bc9-8ea4-9f55741b365d","","null","
                <div class=""stimulus-container"">
                    <img src=""images/semantic_sequence/market_semantic/market_semantic_5.png"" class=""exp-image"">
                    <div class=""question-area""></div> 
                </div>","null","","","","","","","","","",""
"","","","","","html-button-response","99","177070","0.0-99.0","F2CD0C50A8EF4383B42E5F00719E33B6","019cf9cc-47a1-72ec-bacd-2d6796283898","019cf974-7aee-7bc9-8ea4-9f55741b365d","","431","
                <div class=""stimulus-container"">
                    <img src=""images/semantic_sequence/market_semantic/market_semantic_5.png"" class=""exp-image"">
                    <div class=""question-area"">
                        <p style=""font-size: 20px; font-weight: bold; margin: 0;"">Is there a person in this image?</p>
                    </div>
                </div>","1","main_experiment_trial","5","market_semantic","semantic_sequence","randomized","","","","",""
"","","","","","html-keyboard-response","100","182080","0.0-100.0","F2CD0C50A8EF4383B42E5F00719E33B6","019cf9cc-47a1-72ec-bacd-2d6796283898","019cf974-7aee-7bc9-8ea4-9f55741b365d","","null","<div style=""background-color: white; width: 100vw; height: 100vh;""></div>","null","","","","","","","","","",""
"","","","","","html-keyboard-response","101","183082","0.0-101.0","F2CD0C50A8EF4383B42E5F00719E33B6","019cf9cc-47a1-72ec-bacd-2d6796283898","019cf974-7aee-7bc9-8ea4-9f55741b365d","","null","
                <div class=""stimulus-container"">
                    <img src=""images/causal_sequence/dog_causal/dog_causal_ten.png"" class=""exp-image"">
                    <div class=""question-area""></div> 
                </div>","null","","","","","","","","","",""
"","","","","","html-button-response","102","184446","0.0-102.0","F2CD0C50A8EF4383B42E5F00719E33B6","019cf9cc-47a1-72ec-bacd-2d6796283898","019cf974-7aee-7bc9-8ea4-9f55741b365d","","1363","
                <div class=""stimulus-container"">
                    <img src=""images/causal_sequence/dog_causal/dog_causal_ten.png"" class=""exp-image"">
                    <div class=""question-area"">
                        <p style=""font-size: 20px; font-weight: bold; margin: 0;"">Is there a person in this image?</p>
                    </div>
                </div>","0","main_experiment_trial","ten","dog_causal","causal_sequence","randomized","","","","",""
"","","","","","html-keyboard-response","103","185451","0.0-103.0","F2CD0C50A8EF4383B42E5F00719E33B6","019cf9cc-47a1-72ec-bacd-2d6796283898","019cf974-7aee-7bc9-8ea4-9f55741b365d","","null","
                <div class=""stimulus-container"">
                    <img src=""images/causal_sequence/dog_causal/dog_causal_4.png"" class=""exp-image"">
                    <div class=""question-area""></div> 
                </div>","null","","","","","","","","","",""
"","","","","","html-button-response","104","185846","0.0-104.0","F2CD0C50A8EF4383B42E5F00719E33B6","019cf9cc-47a1-72ec-bacd-2d6796283898","019cf974-7aee-7bc9-8ea4-9f55741b365d","","394","
                <div class=""stimulus-container"">
                    <img src=""images/causal_sequence/dog_causal/dog_causal_4.png"" class=""exp-image"">
                    <div class=""question-area"">
                        <p style=""font-size: 20px; font-weight: bold; margin: 0;"">Is there a person in this image?</p>
                    </div>
                </div>","0","main_experiment_trial","4","dog_causal","causal_sequence","randomized","","","","",""
"","","","","","html-keyboard-response","105","186861","0.0-105.0","F2CD0C50A8EF4383B42E5F00719E33B6","019cf9cc-47a1-72ec-bacd-2d6796283898","019cf974-7aee-7bc9-8ea4-9f55741b365d","","null","
                <div class=""stimulus-container"">
                    <img src=""images/causal_sequence/dog_causal/dog_causal_1.png"" class=""exp-image"">
                    <div class=""question-area""></div> 
                </div>","null","","","","","","","","","",""
"","","","","","html-button-response","106","187351","0.0-106.0","F2CD0C50A8EF4383B42E5F00719E33B6","019cf9cc-47a1-72ec-bacd-2d6796283898","019cf974-7aee-7bc9-8ea4-9f55741b365d","","489","
                <div class=""stimulus-container"">
                    <img src=""images/causal_sequence/dog_causal/dog_causal_1.png"" class=""exp-image"">
                    <div class=""question-area"">
                        <p style=""font-size: 20px; font-weight: bold; margin: 0;"">Is there a person in this image?</p>
                    </div>
                </div>","0","main_experiment_trial","1","dog_causal","causal_sequence","randomized","","","","",""
"","","","","","html-keyboard-response","107","188361","0.0-107.0","F2CD0C50A8EF4383B42E5F00719E33B6","019cf9cc-47a1-72ec-bacd-2d6796283898","019cf974-7aee-7bc9-8ea4-9f55741b365d","","null","
                <div class=""stimulus-container"">
                    <img src=""images/causal_sequence/dog_causal/dog_causal_5.png"" class=""exp-image"">
                    <div class=""question-area""></div> 
                </div>","null","","","","","","","","","",""
"","","","","","html-button-response","108","188917","0.0-108.0","F2CD0C50A8EF4383B42E5F00719E33B6","019cf9cc-47a1-72ec-bacd-2d6796283898","019cf974-7aee-7bc9-8ea4-9f55741b365d","","555","
                <div class=""stimulus-container"">
                    <img src=""images/causal_sequence/dog_causal/dog_causal_5.png"" class=""exp-image"">
                    <div class=""question-area"">
                        <p style=""font-size: 20px; font-weight: bold; margin: 0;"">Is there a person in this image?</p>
                    </div>
                </div>","0","main_experiment_trial","5","dog_causal","causal_sequence","randomized","","","","",""
"","","","","","html-keyboard-response","109","189931","0.0-109.0","F2CD0C50A8EF4383B42E5F00719E33B6","019cf9cc-47a1-72ec-bacd-2d6796283898","019cf974-7aee-7bc9-8ea4-9f55741b365d","","null","
                <div class=""stimulus-container"">
                    <img src=""images/causal_sequence/dog_causal/dog_causal_7.png"" class=""exp-image"">
                    <div class=""question-area""></div> 
                </div>","null","","","","","","","","","",""
"","","","","","html-button-response","110","190650","0.0-110.0","F2CD0C50A8EF4383B42E5F00719E33B6","019cf9cc-47a1-72ec-bacd-2d6796283898","019cf974-7aee-7bc9-8ea4-9f55741b365d","","718","
                <div class=""stimulus-container"">
                    <img src=""images/causal_sequence/dog_causal/dog_causal_7.png"" class=""exp-image"">
                    <div class=""question-area"">
                        <p style=""font-size: 20px; font-weight: bold; margin: 0;"">Is there a person in this image?</p>
                    </div>
                </div>","0","main_experiment_trial","7","dog_causal","causal_sequence","randomized","","","","",""
"","","","","","html-keyboard-response","111","191656","0.0-111.0","F2CD0C50A8EF4383B42E5F00719E33B6","019cf9cc-47a1-72ec-bacd-2d6796283898","019cf974-7aee-7bc9-8ea4-9f55741b365d","","null","
                <div class=""stimulus-container"">
                    <img src=""images/causal_sequence/dog_causal/dog_causal_9.png"" class=""exp-image"">
                    <div class=""question-area""></div> 
                </div>","null","","","","","","","","","",""
"","","","","","html-button-response","112","192584","0.0-112.0","F2CD0C50A8EF4383B42E5F00719E33B6","019cf9cc-47a1-72ec-bacd-2d6796283898","019cf974-7aee-7bc9-8ea4-9f55741b365d","","927","
                <div class=""stimulus-container"">
                    <img src=""images/causal_sequence/dog_causal/dog_causal_9.png"" class=""exp-image"">
                    <div class=""question-area"">
                        <p style=""font-size: 20px; font-weight: bold; margin: 0;"">Is there a person in this image?</p>
                    </div>
                </div>","0","main_experiment_trial","9","dog_causal","causal_sequence","randomized","","","","",""
"","","","","","html-keyboard-response","113","193599","0.0-113.0","F2CD0C50A8EF4383B42E5F00719E33B6","019cf9cc-47a1-72ec-bacd-2d6796283898","019cf974-7aee-7bc9-8ea4-9f55741b365d","","null","
                <div class=""stimulus-container"">
                    <img src=""images/causal_sequence/dog_causal/dog_causal_3.png"" class=""exp-image"">
                    <div class=""question-area""></div> 
                </div>","null","","","","","","","","","",""
"","","","","","html-button-response","114","194001","0.0-114.0","F2CD0C50A8EF4383B42E5F00719E33B6","019cf9cc-47a1-72ec-bacd-2d6796283898","019cf974-7aee-7bc9-8ea4-9f55741b365d","","402","
                <div class=""stimulus-container"">
                    <img src=""images/causal_sequence/dog_causal/dog_causal_3.png"" class=""exp-image"">
                    <div class=""question-area"">
                        <p style=""font-size: 20px; font-weight: bold; margin: 0;"">Is there a person in this image?</p>
                    </div>
                </div>","0","main_experiment_trial","3","dog_causal","causal_sequence","randomized","","","","",""
"","","","","","html-keyboard-response","115","195018","0.0-115.0","F2CD0C50A8EF4383B42E5F00719E33B6","019cf9cc-47a1-72ec-bacd-2d6796283898","019cf974-7aee-7bc9-8ea4-9f55741b365d","","null","
                <div class=""stimulus-container"">
                    <img src=""images/causal_sequence/dog_causal/dog_causal_2.png"" class=""exp-image"">
                    <div class=""question-area""></div> 
                </div>","null","","","","","","","","","",""
"","","","","","html-button-response","116","195409","0.0-116.0","F2CD0C50A8EF4383B42E5F00719E33B6","019cf9cc-47a1-72ec-bacd-2d6796283898","019cf974-7aee-7bc9-8ea4-9f55741b365d","","390","
                <div class=""stimulus-container"">
                    <img src=""images/causal_sequence/dog_causal/dog_causal_2.png"" class=""exp-image"">
                    <div class=""question-area"">
                        <p style=""font-size: 20px; font-weight: bold; margin: 0;"">Is there a person in this image?</p>
                    </div>
                </div>","0","main_experiment_trial","2","dog_causal","causal_sequence","randomized","","","","",""
"","","","","","html-keyboard-response","117","196422","0.0-117.0","F2CD0C50A8EF4383B42E5F00719E33B6","019cf9cc-47a1-72ec-bacd-2d6796283898","019cf974-7aee-7bc9-8ea4-9f55741b365d","","null","
                <div class=""stimulus-container"">
                    <img src=""images/causal_sequence/dog_causal/dog_causal_8.png"" class=""exp-image"">
                    <div class=""question-area""></div> 
                </div>","null","","","","","","","","","",""
"","","","","","html-button-response","118","196924","0.0-118.0","F2CD0C50A8EF4383B42E5F00719E33B6","019cf9cc-47a1-72ec-bacd-2d6796283898","019cf974-7aee-7bc9-8ea4-9f55741b365d","","501","
                <div class=""stimulus-container"">
                    <img src=""images/causal_sequence/dog_causal/dog_causal_8.png"" class=""exp-image"">
                    <div class=""question-area"">
                        <p style=""font-size: 20px; font-weight: bold; margin: 0;"">Is there a person in this image?</p>
                    </div>
                </div>","0","main_experiment_trial","8","dog_causal","causal_sequence","randomized","","","","",""
"","","","","","html-keyboard-response","119","197928","0.0-119.0","F2CD0C50A8EF4383B42E5F00719E33B6","019cf9cc-47a1-72ec-bacd-2d6796283898","019cf974-7aee-7bc9-8ea4-9f55741b365d","","null","
                <div class=""stimulus-container"">
                    <img src=""images/causal_sequence/dog_causal/dog_causal_6.png"" class=""exp-image"">
                    <div class=""question-area""></div> 
                </div>","null","","","","","","","","","",""
"","","","","","html-button-response","120","198534","0.0-120.0","F2CD0C50A8EF4383B42E5F00719E33B6","019cf9cc-47a1-72ec-bacd-2d6796283898","019cf974-7aee-7bc9-8ea4-9f55741b365d","","606","
                <div class=""stimulus-container"">
                    <img src=""images/causal_sequence/dog_causal/dog_causal_6.png"" class=""exp-image"">
                    <div class=""question-area"">
                        <p style=""font-size: 20px; font-weight: bold; margin: 0;"">Is there a person in this image?</p>
                    </div>
                </div>","0","main_experiment_trial","6","dog_causal","causal_sequence","randomized","","","","",""
"","","","","","html-keyboard-response","121","203547","0.0-121.0","F2CD0C50A8EF4383B42E5F00719E33B6","019cf9cc-47a1-72ec-bacd-2d6796283898","019cf974-7aee-7bc9-8ea4-9f55741b365d","","null","<div style=""background-color: white; width: 100vw; height: 100vh;""></div>","null","","","","","","","","","",""
"","","","","","html-keyboard-response","122","204548","0.0-122.0","F2CD0C50A8EF4383B42E5F00719E33B6","019cf9cc-47a1-72ec-bacd-2d6796283898","019cf974-7aee-7bc9-8ea4-9f55741b365d","","null","
                <div class=""stimulus-container"">
                    <img src=""images/causal_sequence/saving_a_cat_causal/saving_a_cat_causal_3.png"" class=""exp-image"">
                    <div class=""question-area""></div> 
                </div>","null","","","","","","","","","",""
"","","","","","html-button-response","123","206017","0.0-123.0","F2CD0C50A8EF4383B42E5F00719E33B6","019cf9cc-47a1-72ec-bacd-2d6796283898","019cf974-7aee-7bc9-8ea4-9f55741b365d","","1467","
                <div class=""stimulus-container"">
                    <img src=""images/causal_sequence/saving_a_cat_causal/saving_a_cat_causal_3.png"" class=""exp-image"">
                    <div class=""question-area"">
                        <p style=""font-size: 20px; font-weight: bold; margin: 0;"">Is there a person in this image?</p>
                    </div>
                </div>","1","main_experiment_trial","3","saving_a_cat_causal","causal_sequence","randomized","","","","",""
"","","","","","html-keyboard-response","124","207029","0.0-124.0","F2CD0C50A8EF4383B42E5F00719E33B6","019cf9cc-47a1-72ec-bacd-2d6796283898","019cf974-7aee-7bc9-8ea4-9f55741b365d","","null","
                <div class=""stimulus-container"">
                    <img src=""images/causal_sequence/saving_a_cat_causal/saving_a_cat_causal_7.png"" class=""exp-image"">
                    <div class=""question-area""></div> 
                </div>","null","","","","","","","","","",""
"","","","","","html-button-response","125","207966","0.0-125.0","F2CD0C50A8EF4383B42E5F00719E33B6","019cf9cc-47a1-72ec-bacd-2d6796283898","019cf974-7aee-7bc9-8ea4-9f55741b365d","","937","
                <div class=""stimulus-container"">
                    <img src=""images/causal_sequence/saving_a_cat_causal/saving_a_cat_causal_7.png"" class=""exp-image"">
                    <div class=""question-area"">
                        <p style=""font-size: 20px; font-weight: bold; margin: 0;"">Is there a person in this image?</p>
                    </div>
                </div>","0","main_experiment_trial","7","saving_a_cat_causal","causal_sequence","randomized","","","","",""
"","","","","","html-keyboard-response","126","208971","0.0-126.0","F2CD0C50A8EF4383B42E5F00719E33B6","019cf9cc-47a1-72ec-bacd-2d6796283898","019cf974-7aee-7bc9-8ea4-9f55741b365d","","null","
                <div class=""stimulus-container"">
                    <img src=""images/causal_sequence/saving_a_cat_causal/saving_a_cat_causal_8.png"" class=""exp-image"">
                    <div class=""question-area""></div> 
                </div>","null","","","","","","","","","",""
"","","","","","html-button-response","127","209349","0.0-127.0","F2CD0C50A8EF4383B42E5F00719E33B6","019cf9cc-47a1-72ec-bacd-2d6796283898","019cf974-7aee-7bc9-8ea4-9f55741b365d","","378","
                <div class=""stimulus-container"">
                    <img src=""images/causal_sequence/saving_a_cat_causal/saving_a_cat_causal_8.png"" class=""exp-image"">
                    <div class=""question-area"">
                        <p style=""font-size: 20px; font-weight: bold; margin: 0;"">Is there a person in this image?</p>
                    </div>
                </div>","0","main_experiment_trial","8","saving_a_cat_causal","causal_sequence","randomized","","","","",""
"","","","","","html-keyboard-response","128","210351","0.0-128.0","F2CD0C50A8EF4383B42E5F00719E33B6","019cf9cc-47a1-72ec-bacd-2d6796283898","019cf974-7aee-7bc9-8ea4-9f55741b365d","","null","
                <div class=""stimulus-container"">
                    <img src=""images/causal_sequence/saving_a_cat_causal/saving_a_cat_causal_2.png"" class=""exp-image"">
                    <div class=""question-area""></div> 
                </div>","null","","","","","","","","","",""
"","","","","","html-button-response","129","211021","0.0-129.0","F2CD0C50A8EF4383B42E5F00719E33B6","019cf9cc-47a1-72ec-bacd-2d6796283898","019cf974-7aee-7bc9-8ea4-9f55741b365d","","669","
                <div class=""stimulus-container"">
                    <img src=""images/causal_sequence/saving_a_cat_causal/saving_a_cat_causal_2.png"" class=""exp-image"">
                    <div class=""question-area"">
                        <p style=""font-size: 20px; font-weight: bold; margin: 0;"">Is there a person in this image?</p>
                    </div>
                </div>","1","main_experiment_trial","2","saving_a_cat_causal","causal_sequence","randomized","","","","",""
"","","","","","html-keyboard-response","130","212022","0.0-130.0","F2CD0C50A8EF4383B42E5F00719E33B6","019cf9cc-47a1-72ec-bacd-2d6796283898","019cf974-7aee-7bc9-8ea4-9f55741b365d","","null","
                <div class=""stimulus-container"">
                    <img src=""images/causal_sequence/saving_a_cat_causal/saving_a_cat_causal_1.png"" class=""exp-image"">
                    <div class=""question-area""></div> 
                </div>","null","","","","","","","","","",""
"","","","","","html-button-response","131","212700","0.0-131.0","F2CD0C50A8EF4383B42E5F00719E33B6","019cf9cc-47a1-72ec-bacd-2d6796283898","019cf974-7aee-7bc9-8ea4-9f55741b365d","","676","
                <div class=""stimulus-container"">
                    <img src=""images/causal_sequence/saving_a_cat_causal/saving_a_cat_causal_1.png"" class=""exp-image"">
                    <div class=""question-area"">
                        <p style=""font-size: 20px; font-weight: bold; margin: 0;"">Is there a person in this image?</p>
                    </div>
                </div>","0","main_experiment_trial","1","saving_a_cat_causal","causal_sequence","randomized","","","","",""
"","","","","","html-keyboard-response","132","213704","0.0-132.0","F2CD0C50A8EF4383B42E5F00719E33B6","019cf9cc-47a1-72ec-bacd-2d6796283898","019cf974-7aee-7bc9-8ea4-9f55741b365d","","null","
                <div class=""stimulus-container"">
                    <img src=""images/causal_sequence/saving_a_cat_causal/saving_a_cat_causal_6.png"" class=""exp-image"">
                    <div class=""question-area""></div> 
                </div>","null","","","","","","","","","",""
"","","","","","html-button-response","133","214135","0.0-133.0","F2CD0C50A8EF4383B42E5F00719E33B6","019cf9cc-47a1-72ec-bacd-2d6796283898","019cf974-7aee-7bc9-8ea4-9f55741b365d","","431","
                <div class=""stimulus-container"">
                    <img src=""images/causal_sequence/saving_a_cat_causal/saving_a_cat_causal_6.png"" class=""exp-image"">
                    <div class=""question-area"">
                        <p style=""font-size: 20px; font-weight: bold; margin: 0;"">Is there a person in this image?</p>
                    </div>
                </div>","0","main_experiment_trial","6","saving_a_cat_causal","causal_sequence","randomized","","","","",""
"","","","","","html-keyboard-response","134","215138","0.0-134.0","F2CD0C50A8EF4383B42E5F00719E33B6","019cf9cc-47a1-72ec-bacd-2d6796283898","019cf974-7aee-7bc9-8ea4-9f55741b365d","","null","
                <div class=""stimulus-container"">
                    <img src=""images/causal_sequence/saving_a_cat_causal/saving_a_cat_causal_4.png"" class=""exp-image"">
                    <div class=""question-area""></div> 
                </div>","null","","","","","","","","","",""
"","","","","","html-button-response","135","215561","0.0-135.0","F2CD0C50A8EF4383B42E5F00719E33B6","019cf9cc-47a1-72ec-bacd-2d6796283898","019cf974-7aee-7bc9-8ea4-9f55741b365d","","423","
                <div class=""stimulus-container"">
                    <img src=""images/causal_sequence/saving_a_cat_causal/saving_a_cat_causal_4.png"" class=""exp-image"">
                    <div class=""question-area"">
                        <p style=""font-size: 20px; font-weight: bold; margin: 0;"">Is there a person in this image?</p>
                    </div>
                </div>","0","main_experiment_trial","4","saving_a_cat_causal","causal_sequence","randomized","","","","",""
"","","","","","html-keyboard-response","136","216578","0.0-136.0","F2CD0C50A8EF4383B42E5F00719E33B6","019cf9cc-47a1-72ec-bacd-2d6796283898","019cf974-7aee-7bc9-8ea4-9f55741b365d","","null","
                <div class=""stimulus-container"">
                    <img src=""images/causal_sequence/saving_a_cat_causal/saving_a_cat_causal_9.png"" class=""exp-image"">
                    <div class=""question-area""></div> 
                </div>","null","","","","","","","","","",""
"","","","","","html-button-response","137","216970","0.0-137.0","F2CD0C50A8EF4383B42E5F00719E33B6","019cf9cc-47a1-72ec-bacd-2d6796283898","019cf974-7aee-7bc9-8ea4-9f55741b365d","","392","
                <div class=""stimulus-container"">
                    <img src=""images/causal_sequence/saving_a_cat_causal/saving_a_cat_causal_9.png"" class=""exp-image"">
                    <div class=""question-area"">
                        <p style=""font-size: 20px; font-weight: bold; margin: 0;"">Is there a person in this image?</p>
                    </div>
                </div>","0","main_experiment_trial","9","saving_a_cat_causal","causal_sequence","randomized","","","","",""
"","","","","","html-keyboard-response","138","217984","0.0-138.0","F2CD0C50A8EF4383B42E5F00719E33B6","019cf9cc-47a1-72ec-bacd-2d6796283898","019cf974-7aee-7bc9-8ea4-9f55741b365d","","null","
                <div class=""stimulus-container"">
                    <img src=""images/causal_sequence/saving_a_cat_causal/saving_a_cat_causal_ten.png"" class=""exp-image"">
                    <div class=""question-area""></div> 
                </div>","null","","","","","","","","","",""
"","","","","","html-button-response","139","218335","0.0-139.0","F2CD0C50A8EF4383B42E5F00719E33B6","019cf9cc-47a1-72ec-bacd-2d6796283898","019cf974-7aee-7bc9-8ea4-9f55741b365d","","350","
                <div class=""stimulus-container"">
                    <img src=""images/causal_sequence/saving_a_cat_causal/saving_a_cat_causal_ten.png"" class=""exp-image"">
                    <div class=""question-area"">
                        <p style=""font-size: 20px; font-weight: bold; margin: 0;"">Is there a person in this image?</p>
                    </div>
                </div>","0","main_experiment_trial","ten","saving_a_cat_causal","causal_sequence","randomized","","","","",""
"","","","","","html-keyboard-response","140","219348","0.0-140.0","F2CD0C50A8EF4383B42E5F00719E33B6","019cf9cc-47a1-72ec-bacd-2d6796283898","019cf974-7aee-7bc9-8ea4-9f55741b365d","","null","
                <div class=""stimulus-container"">
                    <img src=""images/causal_sequence/saving_a_cat_causal/saving_a_cat_causal_5.png"" class=""exp-image"">
                    <div class=""question-area""></div> 
                </div>","null","","","","","","","","","",""
"","","","","","html-button-response","141","219710","0.0-141.0","F2CD0C50A8EF4383B42E5F00719E33B6","019cf9cc-47a1-72ec-bacd-2d6796283898","019cf974-7aee-7bc9-8ea4-9f55741b365d","","361","
                <div class=""stimulus-container"">
                    <img src=""images/causal_sequence/saving_a_cat_causal/saving_a_cat_causal_5.png"" class=""exp-image"">
                    <div class=""question-area"">
                        <p style=""font-size: 20px; font-weight: bold; margin: 0;"">Is there a person in this image?</p>
                    </div>
                </div>","0","main_experiment_trial","5","saving_a_cat_causal","causal_sequence","randomized","","","","",""
"","","","","","html-keyboard-response","142","224724","0.0-142.0","F2CD0C50A8EF4383B42E5F00719E33B6","019cf9cc-47a1-72ec-bacd-2d6796283898","019cf974-7aee-7bc9-8ea4-9f55741b365d","","null","<div style=""background-color: white; width: 100vw; height: 100vh;""></div>","null","","","","","","","","","",""
"","","","","","html-keyboard-response","143","225725","0.0-143.0","F2CD0C50A8EF4383B42E5F00719E33B6","019cf9cc-47a1-72ec-bacd-2d6796283898","019cf974-7aee-7bc9-8ea4-9f55741b365d","","null","
                <div class=""stimulus-container"">
                    <img src=""images/causal_sequence/museum_causal/museum_causal_ten.png"" class=""exp-image"">
                    <div class=""question-area""></div> 
                </div>","null","","","","","","","","","",""
"","","","","","html-button-response","144","226832","0.0-144.0","F2CD0C50A8EF4383B42E5F00719E33B6","019cf9cc-47a1-72ec-bacd-2d6796283898","019cf974-7aee-7bc9-8ea4-9f55741b365d","","1106","
                <div class=""stimulus-container"">
                    <img src=""images/causal_sequence/museum_causal/museum_causal_ten.png"" class=""exp-image"">
                    <div class=""question-area"">
                        <p style=""font-size: 20px; font-weight: bold; margin: 0;"">Is there a person in this image?</p>
                    </div>
                </div>","0","main_experiment_trial","ten","museum_causal","causal_sequence","randomized","","","","",""
"","","","","","html-keyboard-response","145","227842","0.0-145.0","F2CD0C50A8EF4383B42E5F00719E33B6","019cf9cc-47a1-72ec-bacd-2d6796283898","019cf974-7aee-7bc9-8ea4-9f55741b365d","","null","
                <div class=""stimulus-container"">
                    <img src=""images/causal_sequence/museum_causal/museum_causal_1.png"" class=""exp-image"">
                    <div class=""question-area""></div> 
                </div>","null","","","","","","","","","",""
"","","","","","html-button-response","146","228345","0.0-146.0","F2CD0C50A8EF4383B42E5F00719E33B6","019cf9cc-47a1-72ec-bacd-2d6796283898","019cf974-7aee-7bc9-8ea4-9f55741b365d","","502","
                <div class=""stimulus-container"">
                    <img src=""images/causal_sequence/museum_causal/museum_causal_1.png"" class=""exp-image"">
                    <div class=""question-area"">
                        <p style=""font-size: 20px; font-weight: bold; margin: 0;"">Is there a person in this image?</p>
                    </div>
                </div>","0","main_experiment_trial","1","museum_causal","causal_sequence","randomized","","","","",""
"","","","","","html-keyboard-response","147","229350","0.0-147.0","F2CD0C50A8EF4383B42E5F00719E33B6","019cf9cc-47a1-72ec-bacd-2d6796283898","019cf974-7aee-7bc9-8ea4-9f55741b365d","","null","
                <div class=""stimulus-container"">
                    <img src=""images/causal_sequence/museum_causal/museum_causal_7.png"" class=""exp-image"">
                    <div class=""question-area""></div> 
                </div>","null","","","","","","","","","",""
"","","","","","html-button-response","148","229798","0.0-148.0","F2CD0C50A8EF4383B42E5F00719E33B6","019cf9cc-47a1-72ec-bacd-2d6796283898","019cf974-7aee-7bc9-8ea4-9f55741b365d","","447","
                <div class=""stimulus-container"">
                    <img src=""images/causal_sequence/museum_causal/museum_causal_7.png"" class=""exp-image"">
                    <div class=""question-area"">
                        <p style=""font-size: 20px; font-weight: bold; margin: 0;"">Is there a person in this image?</p>
                    </div>
                </div>","1","main_experiment_trial","7","museum_causal","causal_sequence","randomized","","","","",""
"","","","","","html-keyboard-response","149","230802","0.0-149.0","F2CD0C50A8EF4383B42E5F00719E33B6","019cf9cc-47a1-72ec-bacd-2d6796283898","019cf974-7aee-7bc9-8ea4-9f55741b365d","","null","
                <div class=""stimulus-container"">
                    <img src=""images/causal_sequence/museum_causal/museum_causal_8.png"" class=""exp-image"">
                    <div class=""question-area""></div> 
                </div>","null","","","","","","","","","",""
"","","","","","html-button-response","150","231627","0.0-150.0","F2CD0C50A8EF4383B42E5F00719E33B6","019cf9cc-47a1-72ec-bacd-2d6796283898","019cf974-7aee-7bc9-8ea4-9f55741b365d","","824","
                <div class=""stimulus-container"">
                    <img src=""images/causal_sequence/museum_causal/museum_causal_8.png"" class=""exp-image"">
                    <div class=""question-area"">
                        <p style=""font-size: 20px; font-weight: bold; margin: 0;"">Is there a person in this image?</p>
                    </div>
                </div>","0","main_experiment_trial","8","museum_causal","causal_sequence","randomized","","","","",""
"","","","","","html-keyboard-response","151","232640","0.0-151.0","F2CD0C50A8EF4383B42E5F00719E33B6","019cf9cc-47a1-72ec-bacd-2d6796283898","019cf974-7aee-7bc9-8ea4-9f55741b365d","","null","
                <div class=""stimulus-container"">
                    <img src=""images/causal_sequence/museum_causal/museum_causal_3.png"" class=""exp-image"">
                    <div class=""question-area""></div> 
                </div>","null","","","","","","","","","",""
"","","","","","html-button-response","152","233570","0.0-152.0","F2CD0C50A8EF4383B42E5F00719E33B6","019cf9cc-47a1-72ec-bacd-2d6796283898","019cf974-7aee-7bc9-8ea4-9f55741b365d","","930","
                <div class=""stimulus-container"">
                    <img src=""images/causal_sequence/museum_causal/museum_causal_3.png"" class=""exp-image"">
                    <div class=""question-area"">
                        <p style=""font-size: 20px; font-weight: bold; margin: 0;"">Is there a person in this image?</p>
                    </div>
                </div>","0","main_experiment_trial","3","museum_causal","causal_sequence","randomized","","","","",""
"","","","","","html-keyboard-response","153","234573","0.0-153.0","F2CD0C50A8EF4383B42E5F00719E33B6","019cf9cc-47a1-72ec-bacd-2d6796283898","019cf974-7aee-7bc9-8ea4-9f55741b365d","","null","
                <div class=""stimulus-container"">
                    <img src=""images/causal_sequence/museum_causal/museum_causal_5.png"" class=""exp-image"">
                    <div class=""question-area""></div> 
                </div>","null","","","","","","","","","",""
"","","","","","html-button-response","154","235424","0.0-154.0","F2CD0C50A8EF4383B42E5F00719E33B6","019cf9cc-47a1-72ec-bacd-2d6796283898","019cf974-7aee-7bc9-8ea4-9f55741b365d","","850","
                <div class=""stimulus-container"">
                    <img src=""images/causal_sequence/museum_causal/museum_causal_5.png"" class=""exp-image"">
                    <div class=""question-area"">
                        <p style=""font-size: 20px; font-weight: bold; margin: 0;"">Is there a person in this image?</p>
                    </div>
                </div>","0","main_experiment_trial","5","museum_causal","causal_sequence","randomized","","","","",""
"","","","","","html-keyboard-response","155","236440","0.0-155.0","F2CD0C50A8EF4383B42E5F00719E33B6","019cf9cc-47a1-72ec-bacd-2d6796283898","019cf974-7aee-7bc9-8ea4-9f55741b365d","","null","
                <div class=""stimulus-container"">
                    <img src=""images/causal_sequence/museum_causal/museum_causal_9.png"" class=""exp-image"">
                    <div class=""question-area""></div> 
                </div>","null","","","","","","","","","",""
"","","","","","html-button-response","156","237000","0.0-156.0","F2CD0C50A8EF4383B42E5F00719E33B6","019cf9cc-47a1-72ec-bacd-2d6796283898","019cf974-7aee-7bc9-8ea4-9f55741b365d","","559","
                <div class=""stimulus-container"">
                    <img src=""images/causal_sequence/museum_causal/museum_causal_9.png"" class=""exp-image"">
                    <div class=""question-area"">
                        <p style=""font-size: 20px; font-weight: bold; margin: 0;"">Is there a person in this image?</p>
                    </div>
                </div>","1","main_experiment_trial","9","museum_causal","causal_sequence","randomized","","","","",""
"","","","","","html-keyboard-response","157","238002","0.0-157.0","F2CD0C50A8EF4383B42E5F00719E33B6","019cf9cc-47a1-72ec-bacd-2d6796283898","019cf974-7aee-7bc9-8ea4-9f55741b365d","","null","
                <div class=""stimulus-container"">
                    <img src=""images/causal_sequence/museum_causal/museum_causal_6.png"" class=""exp-image"">
                    <div class=""question-area""></div> 
                </div>","null","","","","","","","","","",""
"","","","","","html-button-response","158","238470","0.0-158.0","F2CD0C50A8EF4383B42E5F00719E33B6","019cf9cc-47a1-72ec-bacd-2d6796283898","019cf974-7aee-7bc9-8ea4-9f55741b365d","","466","
                <div class=""stimulus-container"">
                    <img src=""images/causal_sequence/museum_causal/museum_causal_6.png"" class=""exp-image"">
                    <div class=""question-area"">
                        <p style=""font-size: 20px; font-weight: bold; margin: 0;"">Is there a person in this image?</p>
                    </div>
                </div>","0","main_experiment_trial","6","museum_causal","causal_sequence","randomized","","","","",""
"","","","","","html-keyboard-response","159","239478","0.0-159.0","F2CD0C50A8EF4383B42E5F00719E33B6","019cf9cc-47a1-72ec-bacd-2d6796283898","019cf974-7aee-7bc9-8ea4-9f55741b365d","","null","
                <div class=""stimulus-container"">
                    <img src=""images/causal_sequence/museum_causal/museum_causal_4.png"" class=""exp-image"">
                    <div class=""question-area""></div> 
                </div>","null","","","","","","","","","",""
"","","","","","html-button-response","160","239870","0.0-160.0","F2CD0C50A8EF4383B42E5F00719E33B6","019cf9cc-47a1-72ec-bacd-2d6796283898","019cf974-7aee-7bc9-8ea4-9f55741b365d","","391","
                <div class=""stimulus-container"">
                    <img src=""images/causal_sequence/museum_causal/museum_causal_4.png"" class=""exp-image"">
                    <div class=""question-area"">
                        <p style=""font-size: 20px; font-weight: bold; margin: 0;"">Is there a person in this image?</p>
                    </div>
                </div>","1","main_experiment_trial","4","museum_causal","causal_sequence","randomized","","","","",""
"","","","","","html-keyboard-response","161","240885","0.0-161.0","F2CD0C50A8EF4383B42E5F00719E33B6","019cf9cc-47a1-72ec-bacd-2d6796283898","019cf974-7aee-7bc9-8ea4-9f55741b365d","","null","
                <div class=""stimulus-container"">
                    <img src=""images/causal_sequence/museum_causal/museum_causal_2.png"" class=""exp-image"">
                    <div class=""question-area""></div> 
                </div>","null","","","","","","","","","",""
"","","","","","html-button-response","162","241339","0.0-162.0","F2CD0C50A8EF4383B42E5F00719E33B6","019cf9cc-47a1-72ec-bacd-2d6796283898","019cf974-7aee-7bc9-8ea4-9f55741b365d","","453","
                <div class=""stimulus-container"">
                    <img src=""images/causal_sequence/museum_causal/museum_causal_2.png"" class=""exp-image"">
                    <div class=""question-area"">
                        <p style=""font-size: 20px; font-weight: bold; margin: 0;"">Is there a person in this image?</p>
                    </div>
                </div>","0","main_experiment_trial","2","museum_causal","causal_sequence","randomized","","","","",""
"","","","","","html-keyboard-response","163","246352","0.0-163.0","F2CD0C50A8EF4383B42E5F00719E33B6","019cf9cc-47a1-72ec-bacd-2d6796283898","019cf974-7aee-7bc9-8ea4-9f55741b365d","","null","<div style=""background-color: white; width: 100vw; height: 100vh;""></div>","null","","","","","","","","","",""
"","","","","","html-keyboard-response","164","247357","0.0-164.0","F2CD0C50A8EF4383B42E5F00719E33B6","019cf9cc-47a1-72ec-bacd-2d6796283898","019cf974-7aee-7bc9-8ea4-9f55741b365d","","null","
                <div class=""stimulus-container"">
                    <img src=""images/causal_sequence/coin_causal/coin_causal_9.png"" class=""exp-image"">
                    <div class=""question-area""></div> 
                </div>","null","","","","","","","","","",""
"","","","","","html-button-response","165","248226","0.0-165.0","F2CD0C50A8EF4383B42E5F00719E33B6","019cf9cc-47a1-72ec-bacd-2d6796283898","019cf974-7aee-7bc9-8ea4-9f55741b365d","","869","
                <div class=""stimulus-container"">
                    <img src=""images/causal_sequence/coin_causal/coin_causal_9.png"" class=""exp-image"">
                    <div class=""question-area"">
                        <p style=""font-size: 20px; font-weight: bold; margin: 0;"">Is there a person in this image?</p>
                    </div>
                </div>","0","main_experiment_trial","9","coin_causal","causal_sequence","randomized","","","","",""
"","","","","","html-keyboard-response","166","249237","0.0-166.0","F2CD0C50A8EF4383B42E5F00719E33B6","019cf9cc-47a1-72ec-bacd-2d6796283898","019cf974-7aee-7bc9-8ea4-9f55741b365d","","null","
                <div class=""stimulus-container"">
                    <img src=""images/causal_sequence/coin_causal/coin_causal_5.png"" class=""exp-image"">
                    <div class=""question-area""></div> 
                </div>","null","","","","","","","","","",""
"","","","","","html-button-response","167","249661","0.0-167.0","F2CD0C50A8EF4383B42E5F00719E33B6","019cf9cc-47a1-72ec-bacd-2d6796283898","019cf974-7aee-7bc9-8ea4-9f55741b365d","","423","
                <div class=""stimulus-container"">
                    <img src=""images/causal_sequence/coin_causal/coin_causal_5.png"" class=""exp-image"">
                    <div class=""question-area"">
                        <p style=""font-size: 20px; font-weight: bold; margin: 0;"">Is there a person in this image?</p>
                    </div>
                </div>","0","main_experiment_trial","5","coin_causal","causal_sequence","randomized","","","","",""
"","","","","","html-keyboard-response","168","250674","0.0-168.0","F2CD0C50A8EF4383B42E5F00719E33B6","019cf9cc-47a1-72ec-bacd-2d6796283898","019cf974-7aee-7bc9-8ea4-9f55741b365d","","null","
                <div class=""stimulus-container"">
                    <img src=""images/causal_sequence/coin_causal/coin_causal_1.png"" class=""exp-image"">
                    <div class=""question-area""></div> 
                </div>","null","","","","","","","","","",""
"","","","","","html-button-response","169","250990","0.0-169.0","F2CD0C50A8EF4383B42E5F00719E33B6","019cf9cc-47a1-72ec-bacd-2d6796283898","019cf974-7aee-7bc9-8ea4-9f55741b365d","","316","
                <div class=""stimulus-container"">
                    <img src=""images/causal_sequence/coin_causal/coin_causal_1.png"" class=""exp-image"">
                    <div class=""question-area"">
                        <p style=""font-size: 20px; font-weight: bold; margin: 0;"">Is there a person in this image?</p>
                    </div>
                </div>","0","main_experiment_trial","1","coin_causal","causal_sequence","randomized","","","","",""
"","","","","","html-keyboard-response","170","252006","0.0-170.0","F2CD0C50A8EF4383B42E5F00719E33B6","019cf9cc-47a1-72ec-bacd-2d6796283898","019cf974-7aee-7bc9-8ea4-9f55741b365d","","null","
                <div class=""stimulus-container"">
                    <img src=""images/causal_sequence/coin_causal/coin_causal_3.png"" class=""exp-image"">
                    <div class=""question-area""></div> 
                </div>","null","","","","","","","","","",""
"","","","","","html-button-response","171","252855","0.0-171.0","F2CD0C50A8EF4383B42E5F00719E33B6","019cf9cc-47a1-72ec-bacd-2d6796283898","019cf974-7aee-7bc9-8ea4-9f55741b365d","","848","
                <div class=""stimulus-container"">
                    <img src=""images/causal_sequence/coin_causal/coin_causal_3.png"" class=""exp-image"">
                    <div class=""question-area"">
                        <p style=""font-size: 20px; font-weight: bold; margin: 0;"">Is there a person in this image?</p>
                    </div>
                </div>","0","main_experiment_trial","3","coin_causal","causal_sequence","randomized","","","","",""
"","","","","","html-keyboard-response","172","253865","0.0-172.0","F2CD0C50A8EF4383B42E5F00719E33B6","019cf9cc-47a1-72ec-bacd-2d6796283898","019cf974-7aee-7bc9-8ea4-9f55741b365d","","null","
                <div class=""stimulus-container"">
                    <img src=""images/causal_sequence/coin_causal/coin_causal_4.png"" class=""exp-image"">
                    <div class=""question-area""></div> 
                </div>","null","","","","","","","","","",""
"","","","","","html-button-response","173","254403","0.0-173.0","F2CD0C50A8EF4383B42E5F00719E33B6","019cf9cc-47a1-72ec-bacd-2d6796283898","019cf974-7aee-7bc9-8ea4-9f55741b365d","","537","
                <div class=""stimulus-container"">
                    <img src=""images/causal_sequence/coin_causal/coin_causal_4.png"" class=""exp-image"">
                    <div class=""question-area"">
                        <p style=""font-size: 20px; font-weight: bold; margin: 0;"">Is there a person in this image?</p>
                    </div>
                </div>","0","main_experiment_trial","4","coin_causal","causal_sequence","randomized","","","","",""
"","","","","","html-keyboard-response","174","255417","0.0-174.0","F2CD0C50A8EF4383B42E5F00719E33B6","019cf9cc-47a1-72ec-bacd-2d6796283898","019cf974-7aee-7bc9-8ea4-9f55741b365d","","null","
                <div class=""stimulus-container"">
                    <img src=""images/causal_sequence/coin_causal/coin_causal_6.png"" class=""exp-image"">
                    <div class=""question-area""></div> 
                </div>","null","","","","","","","","","",""
"","","","","","html-button-response","175","255769","0.0-175.0","F2CD0C50A8EF4383B42E5F00719E33B6","019cf9cc-47a1-72ec-bacd-2d6796283898","019cf974-7aee-7bc9-8ea4-9f55741b365d","","351","
                <div class=""stimulus-container"">
                    <img src=""images/causal_sequence/coin_causal/coin_causal_6.png"" class=""exp-image"">
                    <div class=""question-area"">
                        <p style=""font-size: 20px; font-weight: bold; margin: 0;"">Is there a person in this image?</p>
                    </div>
                </div>","0","main_experiment_trial","6","coin_causal","causal_sequence","randomized","","","","",""
"","","","","","html-keyboard-response","176","256781","0.0-176.0","F2CD0C50A8EF4383B42E5F00719E33B6","019cf9cc-47a1-72ec-bacd-2d6796283898","019cf974-7aee-7bc9-8ea4-9f55741b365d","","null","
                <div class=""stimulus-container"">
                    <img src=""images/causal_sequence/coin_causal/coin_causal_8.png"" class=""exp-image"">
                    <div class=""question-area""></div> 
                </div>","null","","","","","","","","","",""
"","","","","","html-button-response","177","257484","0.0-177.0","F2CD0C50A8EF4383B42E5F00719E33B6","019cf9cc-47a1-72ec-bacd-2d6796283898","019cf974-7aee-7bc9-8ea4-9f55741b365d","","702","
                <div class=""stimulus-container"">
                    <img src=""images/causal_sequence/coin_causal/coin_causal_8.png"" class=""exp-image"">
                    <div class=""question-area"">
                        <p style=""font-size: 20px; font-weight: bold; margin: 0;"">Is there a person in this image?</p>
                    </div>
                </div>","0","main_experiment_trial","8","coin_causal","causal_sequence","randomized","","","","",""
"","","","","","html-keyboard-response","178","258499","0.0-178.0","F2CD0C50A8EF4383B42E5F00719E33B6","019cf9cc-47a1-72ec-bacd-2d6796283898","019cf974-7aee-7bc9-8ea4-9f55741b365d","","null","
                <div class=""stimulus-container"">
                    <img src=""images/causal_sequence/coin_causal/coin_causal_ten.png"" class=""exp-image"">
                    <div class=""question-area""></div> 
                </div>","null","","","","","","","","","",""
"","","","","","html-button-response","179","258875","0.0-179.0","F2CD0C50A8EF4383B42E5F00719E33B6","019cf9cc-47a1-72ec-bacd-2d6796283898","019cf974-7aee-7bc9-8ea4-9f55741b365d","","374","
                <div class=""stimulus-container"">
                    <img src=""images/causal_sequence/coin_causal/coin_causal_ten.png"" class=""exp-image"">
                    <div class=""question-area"">
                        <p style=""font-size: 20px; font-weight: bold; margin: 0;"">Is there a person in this image?</p>
                    </div>
                </div>","0","main_experiment_trial","ten","coin_causal","causal_sequence","randomized","","","","",""
"","","","","","html-keyboard-response","180","259890","0.0-180.0","F2CD0C50A8EF4383B42E5F00719E33B6","019cf9cc-47a1-72ec-bacd-2d6796283898","019cf974-7aee-7bc9-8ea4-9f55741b365d","","null","
                <div class=""stimulus-container"">
                    <img src=""images/causal_sequence/coin_causal/coin_causal_7.png"" class=""exp-image"">
                    <div class=""question-area""></div> 
                </div>","null","","","","","","","","","",""
