"success","timeout","failed_images","failed_audio","failed_video","trial_type","trial_index","time_elapsed","internal_node_id","view_history","rt","stimulus","response","task","folder","sequence_type","img_idx","learned_X","value","comp_type","left_path","right_path"
"true","false","[]","[]","[]","preload","0","1133","0.0-0.0","","","","","","","","","","","","",""
"","","","","","instructions","1","40441","0.0-1.0","[{""page_index"":0,""viewing_time"":39304}]","39305","","","","","","","","","","",""
"","","","","","instructions","2","201035","0.0-2.0","[{""page_index"":0,""viewing_time"":160592}]","160592","","","","","","","","","","",""
"true","","","","","fullscreen","3","208342","0.0-3.0","","6303","","","","","","","","","","",""
"","","","","","instructions","4","251749","0.0-4.0","[{""page_index"":0,""viewing_time"":43405}]","43405","","","","","","","","","","",""
"","","","","","html-keyboard-response","5","253751","0.0-5.0","","null","<div class=""transition-square""></div>","null","","","","","","","","",""
"","","","","","html-keyboard-response","6","258753","0.0-6.0","","null","<div class=""stimulus-container""><img src=""images_story_vs_info/story_3_1.png"" class=""exp-image""><div class=""question-area""></div></div>","null","","","","","","","","",""
"","","","","","html-button-response","7","261758","0.0-7.0","","null","<div class=""stimulus-container""><img src=""images_story_vs_info/story_3_1.png"" class=""exp-image""><div class=""question-area""><p style=""font-size: 20px; font-weight: bold; margin: 0;"">Is there a person in this image?</p></div></div>","null","observation","story_3","story","1","","","","",""
"","","","","","html-keyboard-response","8","266760","0.0-8.0","","null","<div class=""stimulus-container""><img src=""images_story_vs_info/story_3_2.png"" class=""exp-image""><div class=""question-area""></div></div>","null","","","","","","","","",""
"","","","","","html-button-response","9","267961","0.0-9.0","","1198","<div class=""stimulus-container""><img src=""images_story_vs_info/story_3_2.png"" class=""exp-image""><div class=""question-area""><p style=""font-size: 20px; font-weight: bold; margin: 0;"">Is there a person in this image?</p></div></div>","1","observation","story_3","story","2","","","","",""
"","","","","","html-keyboard-response","10","272964","0.0-10.0","","null","<div class=""stimulus-container""><img src=""images_story_vs_info/story_3_3.png"" class=""exp-image""><div class=""question-area""></div></div>","null","","","","","","","","",""
"","","","","","html-button-response","11","273471","0.0-11.0","","505","<div class=""stimulus-container""><img src=""images_story_vs_info/story_3_3.png"" class=""exp-image""><div class=""question-area""><p style=""font-size: 20px; font-weight: bold; margin: 0;"">Is there a person in this image?</p></div></div>","1","observation","story_3","story","3","","","","",""
"","","","","","html-keyboard-response","12","278474","0.0-12.0","","null","<div class=""stimulus-container""><img src=""images_story_vs_info/story_3_4.png"" class=""exp-image""><div class=""question-area""></div></div>","null","","","","","","","","",""
"","","","","","html-button-response","13","279116","0.0-13.0","","640","<div class=""stimulus-container""><img src=""images_story_vs_info/story_3_4.png"" class=""exp-image""><div class=""question-area""><p style=""font-size: 20px; font-weight: bold; margin: 0;"">Is there a person in this image?</p></div></div>","0","observation","story_3","story","4","","","","",""
"","","","","","html-keyboard-response","14","284118","0.0-14.0","","null","<div class=""stimulus-container""><img src=""images_story_vs_info/story_3_5.png"" class=""exp-image""><div class=""question-area""></div></div>","null","","","","","","","","",""
"","","","","","html-button-response","15","284646","0.0-15.0","","524","<div class=""stimulus-container""><img src=""images_story_vs_info/story_3_5.png"" class=""exp-image""><div class=""question-area""><p style=""font-size: 20px; font-weight: bold; margin: 0;"">Is there a person in this image?</p></div></div>","1","observation","story_3","story","5","","","","",""
"","","","","","html-keyboard-response","16","289648","0.0-16.0","","null","<div class=""stimulus-container""><img src=""images_story_vs_info/story_3_6_b.png"" class=""exp-image""><div class=""question-area""></div></div>","null","","","","","","","","",""
"","","","","","html-button-response","17","290103","0.0-17.0","","453","<div class=""stimulus-container""><img src=""images_story_vs_info/story_3_6_b.png"" class=""exp-image""><div class=""question-area""><p style=""font-size: 20px; font-weight: bold; margin: 0;"">Is there a person in this image?</p></div></div>","1","observation","story_3","story","6","","","","",""
"","","","","","html-keyboard-response","18","292106","0.0-18.0","","null","<div class=""transition-square""></div>","null","","","","","","","","",""
"","","","","","html-keyboard-response","19","297107","0.0-19.0","","null","<div class=""stimulus-container""><img src=""images_story_vs_info/story_2_1.png"" class=""exp-image""><div class=""question-area""></div></div>","null","","","","","","","","",""
"","","","","","html-button-response","20","298175","0.0-20.0","","1065","<div class=""stimulus-container""><img src=""images_story_vs_info/story_2_1.png"" class=""exp-image""><div class=""question-area""><p style=""font-size: 20px; font-weight: bold; margin: 0;"">Is there a person in this image?</p></div></div>","1","observation","story_2","story","1","","","","",""
"","","","","","html-keyboard-response","21","303178","0.0-21.0","","null","<div class=""stimulus-container""><img src=""images_story_vs_info/story_2_2.png"" class=""exp-image""><div class=""question-area""></div></div>","null","","","","","","","","",""
"","","","","","html-button-response","22","303659","0.0-22.0","","479","<div class=""stimulus-container""><img src=""images_story_vs_info/story_2_2.png"" class=""exp-image""><div class=""question-area""><p style=""font-size: 20px; font-weight: bold; margin: 0;"">Is there a person in this image?</p></div></div>","1","observation","story_2","story","2","","","","",""
"","","","","","html-keyboard-response","23","308661","0.0-23.0","","null","<div class=""stimulus-container""><img src=""images_story_vs_info/story_2_3.png"" class=""exp-image""><div class=""question-area""></div></div>","null","","","","","","","","",""
"","","","","","html-button-response","24","309134","0.0-24.0","","471","<div class=""stimulus-container""><img src=""images_story_vs_info/story_2_3.png"" class=""exp-image""><div class=""question-area""><p style=""font-size: 20px; font-weight: bold; margin: 0;"">Is there a person in this image?</p></div></div>","1","observation","story_2","story","3","","","","",""
"","","","","","html-keyboard-response","25","314137","0.0-25.0","","null","<div class=""stimulus-container""><img src=""images_story_vs_info/story_2_4.png"" class=""exp-image""><div class=""question-area""></div></div>","null","","","","","","","","",""
"","","","","","html-button-response","26","314628","0.0-26.0","","488","<div class=""stimulus-container""><img src=""images_story_vs_info/story_2_4.png"" class=""exp-image""><div class=""question-area""><p style=""font-size: 20px; font-weight: bold; margin: 0;"">Is there a person in this image?</p></div></div>","1","observation","story_2","story","4","","","","",""
"","","","","","html-keyboard-response","27","319631","0.0-27.0","","null","<div class=""stimulus-container""><img src=""images_story_vs_info/story_2_5.png"" class=""exp-image""><div class=""question-area""></div></div>","null","","","","","","","","",""
"","","","","","html-button-response","28","320387","0.0-28.0","","754","<div class=""stimulus-container""><img src=""images_story_vs_info/story_2_5.png"" class=""exp-image""><div class=""question-area""><p style=""font-size: 20px; font-weight: bold; margin: 0;"">Is there a person in this image?</p></div></div>","1","observation","story_2","story","5","","","","",""
"","","","","","html-keyboard-response","29","325390","0.0-29.0","","null","<div class=""stimulus-container""><img src=""images_story_vs_info/story_2_6_b.png"" class=""exp-image""><div class=""question-area""></div></div>","null","","","","","","","","",""
"","","","","","html-button-response","30","326173","0.0-30.0","","781","<div class=""stimulus-container""><img src=""images_story_vs_info/story_2_6_b.png"" class=""exp-image""><div class=""question-area""><p style=""font-size: 20px; font-weight: bold; margin: 0;"">Is there a person in this image?</p></div></div>","1","observation","story_2","story","6","","","","",""
"","","","","","html-keyboard-response","31","328175","0.0-31.0","","null","<div class=""transition-square""></div>","null","","","","","","","","",""
"","","","","","html-keyboard-response","32","333177","0.0-32.0","","null","<div class=""stimulus-container""><img src=""images_story_vs_info/info_4_1.png"" class=""exp-image""><div class=""question-area""></div></div>","null","","","","","","","","",""
"","","","","","html-button-response","33","334095","0.0-33.0","","916","<div class=""stimulus-container""><img src=""images_story_vs_info/info_4_1.png"" class=""exp-image""><div class=""question-area""><p style=""font-size: 20px; font-weight: bold; margin: 0;"">Is there a person in this image?</p></div></div>","1","observation","info_4","info","1","","","","",""
"","","","","","html-keyboard-response","34","339098","0.0-34.0","","null","<div class=""stimulus-container""><img src=""images_story_vs_info/info_4_2.png"" class=""exp-image""><div class=""question-area""></div></div>","null","","","","","","","","",""
"","","","","","html-button-response","35","340043","0.0-35.0","","942","<div class=""stimulus-container""><img src=""images_story_vs_info/info_4_2.png"" class=""exp-image""><div class=""question-area""><p style=""font-size: 20px; font-weight: bold; margin: 0;"">Is there a person in this image?</p></div></div>","1","observation","info_4","info","2","","","","",""
"","","","","","html-keyboard-response","36","345045","0.0-36.0","","null","<div class=""stimulus-container""><img src=""images_story_vs_info/info_4_3.png"" class=""exp-image""><div class=""question-area""></div></div>","null","","","","","","","","",""
"","","","","","html-button-response","37","346532","0.0-37.0","","1483","<div class=""stimulus-container""><img src=""images_story_vs_info/info_4_3.png"" class=""exp-image""><div class=""question-area""><p style=""font-size: 20px; font-weight: bold; margin: 0;"">Is there a person in this image?</p></div></div>","1","observation","info_4","info","3","","","","",""
"","","","","","html-keyboard-response","38","351536","0.0-38.0","","null","<div class=""stimulus-container""><img src=""images_story_vs_info/info_4_4.png"" class=""exp-image""><div class=""question-area""></div></div>","null","","","","","","","","",""
"","","","","","html-button-response","39","352087","0.0-39.0","","548","<div class=""stimulus-container""><img src=""images_story_vs_info/info_4_4.png"" class=""exp-image""><div class=""question-area""><p style=""font-size: 20px; font-weight: bold; margin: 0;"">Is there a person in this image?</p></div></div>","1","observation","info_4","info","4","","","","",""
"","","","","","html-keyboard-response","40","357090","0.0-40.0","","null","<div class=""stimulus-container""><img src=""images_story_vs_info/info_4_5.png"" class=""exp-image""><div class=""question-area""></div></div>","null","","","","","","","","",""
"","","","","","html-button-response","41","357615","0.0-41.0","","521","<div class=""stimulus-container""><img src=""images_story_vs_info/info_4_5.png"" class=""exp-image""><div class=""question-area""><p style=""font-size: 20px; font-weight: bold; margin: 0;"">Is there a person in this image?</p></div></div>","1","observation","info_4","info","5","","","","",""
"","","","","","html-keyboard-response","42","362620","0.0-42.0","","null","<div class=""stimulus-container""><img src=""images_story_vs_info/info_4_6_b.png"" class=""exp-image""><div class=""question-area""></div></div>","null","","","","","","","","",""
"","","","","","html-button-response","43","363251","0.0-43.0","","627","<div class=""stimulus-container""><img src=""images_story_vs_info/info_4_6_b.png"" class=""exp-image""><div class=""question-area""><p style=""font-size: 20px; font-weight: bold; margin: 0;"">Is there a person in this image?</p></div></div>","1","observation","info_4","info","6","","","","",""
"","","","","","html-keyboard-response","44","365254","0.0-44.0","","null","<div class=""transition-square""></div>","null","","","","","","","","",""
"","","","","","html-keyboard-response","45","370257","0.0-45.0","","null","<div class=""stimulus-container""><img src=""images_story_vs_info/info_1_1.png"" class=""exp-image""><div class=""question-area""></div></div>","null","","","","","","","","",""
"","","","","","html-button-response","46","371339","0.0-46.0","","1079","<div class=""stimulus-container""><img src=""images_story_vs_info/info_1_1.png"" class=""exp-image""><div class=""question-area""><p style=""font-size: 20px; font-weight: bold; margin: 0;"">Is there a person in this image?</p></div></div>","1","observation","info_1","info","1","","","","",""
"","","","","","html-keyboard-response","47","376343","0.0-47.0","","null","<div class=""stimulus-container""><img src=""images_story_vs_info/info_1_2.png"" class=""exp-image""><div class=""question-area""></div></div>","null","","","","","","","","",""
"","","","","","html-button-response","48","377816","0.0-48.0","","1469","<div class=""stimulus-container""><img src=""images_story_vs_info/info_1_2.png"" class=""exp-image""><div class=""question-area""><p style=""font-size: 20px; font-weight: bold; margin: 0;"">Is there a person in this image?</p></div></div>","1","observation","info_1","info","2","","","","",""
"","","","","","html-keyboard-response","49","382820","0.0-49.0","","null","<div class=""stimulus-container""><img src=""images_story_vs_info/info_1_3.png"" class=""exp-image""><div class=""question-area""></div></div>","null","","","","","","","","",""
"","","","","","html-button-response","50","383673","0.0-50.0","","849","<div class=""stimulus-container""><img src=""images_story_vs_info/info_1_3.png"" class=""exp-image""><div class=""question-area""><p style=""font-size: 20px; font-weight: bold; margin: 0;"">Is there a person in this image?</p></div></div>","1","observation","info_1","info","3","","","","",""
"","","","","","html-keyboard-response","51","388677","0.0-51.0","","null","<div class=""stimulus-container""><img src=""images_story_vs_info/info_1_4.png"" class=""exp-image""><div class=""question-area""></div></div>","null","","","","","","","","",""
"","","","","","html-button-response","52","389390","0.0-52.0","","708","<div class=""stimulus-container""><img src=""images_story_vs_info/info_1_4.png"" class=""exp-image""><div class=""question-area""><p style=""font-size: 20px; font-weight: bold; margin: 0;"">Is there a person in this image?</p></div></div>","1","observation","info_1","info","4","","","","",""
"","","","","","html-keyboard-response","53","394394","0.0-53.0","","null","<div class=""stimulus-container""><img src=""images_story_vs_info/info_1_5.png"" class=""exp-image""><div class=""question-area""></div></div>","null","","","","","","","","",""
"","","","","","html-button-response","54","395175","0.0-54.0","","777","<div class=""stimulus-container""><img src=""images_story_vs_info/info_1_5.png"" class=""exp-image""><div class=""question-area""><p style=""font-size: 20px; font-weight: bold; margin: 0;"">Is there a person in this image?</p></div></div>","1","observation","info_1","info","5","","","","",""
"","","","","","html-keyboard-response","55","400180","0.0-55.0","","null","<div class=""stimulus-container""><img src=""images_story_vs_info/info_1_6_b.png"" class=""exp-image""><div class=""question-area""></div></div>","null","","","","","","","","",""
"","","","","","html-button-response","56","401193","0.0-56.0","","1009","<div class=""stimulus-container""><img src=""images_story_vs_info/info_1_6_b.png"" class=""exp-image""><div class=""question-area""><p style=""font-size: 20px; font-weight: bold; margin: 0;"">Is there a person in this image?</p></div></div>","1","observation","info_1","info","6","","","","",""
"","","","","","instructions","57","414043","0.0-57.0","[{""page_index"":0,""viewing_time"":12847}]","12848","","","","","","","","","","",""
"","","","","","html-button-response","58","418022","0.0-58.0","","3974","<div class=""stimulus-container""><p style=""font-family:Arial; font-size:20px;"">How much is this image worth?</p><img src=""images_story_vs_info/info_1_3.png"" class=""exp-image""><div class=""value-tag"">???</div></div>","0","","","","","","","","",""
"","","","","","html-button-response","59","425033","0.0-59.0","","7007","<div class=""stimulus-container""><p style=""font-family:Arial; font-size:20px;"">Remember this value:</p><img src=""images_story_vs_info/info_1_3.png"" class=""exp-image""><div class=""value-tag val-low"">This image is worth: $0</div></div>","0","learning","info_1","","","3","$0","","",""
"","","","","","html-button-response","60","426629","0.0-60.0","","1591","<div class=""stimulus-container""><p style=""font-family:Arial; font-size:20px;"">How much is this image worth?</p><img src=""images_story_vs_info/story_2_3.png"" class=""exp-image""><div class=""value-tag"">???</div></div>","0","","","","","","","","",""
"","","","","","html-button-response","61","433905","0.0-61.0","","7273","<div class=""stimulus-container""><p style=""font-family:Arial; font-size:20px;"">Remember this value:</p><img src=""images_story_vs_info/story_2_3.png"" class=""exp-image""><div class=""value-tag val-high"">This image is worth: $100</div></div>","0","learning","story_2","","","3","$100","","",""
"","","","","","html-button-response","62","435740","0.0-62.0","","1833","<div class=""stimulus-container""><p style=""font-family:Arial; font-size:20px;"">How much is this image worth?</p><img src=""images_story_vs_info/story_3_3.png"" class=""exp-image""><div class=""value-tag"">???</div></div>","0","","","","","","","","",""
"","","","","","html-button-response","63","443567","0.0-63.0","","7823","<div class=""stimulus-container""><p style=""font-family:Arial; font-size:20px;"">Remember this value:</p><img src=""images_story_vs_info/story_3_3.png"" class=""exp-image""><div class=""value-tag val-low"">This image is worth: $0</div></div>","0","learning","story_3","","","3","$0","","",""
"","","","","","html-button-response","64","445305","0.0-64.0","","1734","<div class=""stimulus-container""><p style=""font-family:Arial; font-size:20px;"">How much is this image worth?</p><img src=""images_story_vs_info/info_4_3.png"" class=""exp-image""><div class=""value-tag"">???</div></div>","0","","","","","","","","",""
"","","","","","html-button-response","65","452901","0.0-65.0","","7592","<div class=""stimulus-container""><p style=""font-family:Arial; font-size:20px;"">Remember this value:</p><img src=""images_story_vs_info/info_4_3.png"" class=""exp-image""><div class=""value-tag val-high"">This image is worth: $100</div></div>","0","learning","info_4","","","3","$100","","",""
"","","","","","instructions","66","467087","0.0-66.0","[{""page_index"":0,""viewing_time"":14183}]","14184","","","","","","","","","","",""
"","","","","","html-button-response","67","474096","0.0-67.0","","7003","
                <div style=""font-family: Arial; margin-bottom: 20px;""><h3>Which image is worth <b>more money</b>?</h3></div>
                <div class=""stimulus-container"" style=""display: flex; flex-direction: row; width: 800px; justify-content: center; gap: 30px;"">
                    <img src=""images_story_vs_info/story_2_1.png"" class=""small-image"">
                    <img src=""images_story_vs_info/info_4_1.png"" class=""small-image"">
                </div>","1","choice","","","1","3","","Valuable_Story_vs_Info","images_story_vs_info/story_2_1.png","images_story_vs_info/info_4_1.png"
"","","","","","html-button-response","68","478058","0.0-68.0","","3956","
                <div style=""font-family: Arial; margin-bottom: 20px;""><h3>Which image is worth <b>more money</b>?</h3></div>
                <div class=""stimulus-container"" style=""display: flex; flex-direction: row; width: 800px; justify-content: center; gap: 30px;"">
                    <img src=""images_story_vs_info/info_1_2.png"" class=""small-image"">
                    <img src=""images_story_vs_info/story_3_2.png"" class=""small-image"">
                </div>","1","choice","","","2","3","","Neutral_Story_vs_Info","images_story_vs_info/info_1_2.png","images_story_vs_info/story_3_2.png"
"","","","","","html-button-response","69","480662","0.0-69.0","","2600","
                <div style=""font-family: Arial; margin-bottom: 20px;""><h3>Which image is worth <b>more money</b>?</h3></div>
                <div class=""stimulus-container"" style=""display: flex; flex-direction: row; width: 800px; justify-content: center; gap: 30px;"">
                    <img src=""images_story_vs_info/info_1_4.png"" class=""small-image"">
                    <img src=""images_story_vs_info/story_3_4.png"" class=""small-image"">
                </div>","0","choice","","","4","3","","Neutral_Story_vs_Info","images_story_vs_info/info_1_4.png","images_story_vs_info/story_3_4.png"
"","","","","","html-button-response","70","482754","0.0-70.0","","2088","
                <div style=""font-family: Arial; margin-bottom: 20px;""><h3>Which image is worth <b>more money</b>?</h3></div>
                <div class=""stimulus-container"" style=""display: flex; flex-direction: row; width: 800px; justify-content: center; gap: 30px;"">
                    <img src=""images_story_vs_info/info_1_1.png"" class=""small-image"">
                    <img src=""images_story_vs_info/story_3_1.png"" class=""small-image"">
                </div>","0","choice","","","1","3","","Neutral_Story_vs_Info","images_story_vs_info/info_1_1.png","images_story_vs_info/story_3_1.png"
"","","","","","html-button-response","71","485597","0.0-71.0","","2838","
                <div style=""font-family: Arial; margin-bottom: 20px;""><h3>Which image is worth <b>more money</b>?</h3></div>
                <div class=""stimulus-container"" style=""display: flex; flex-direction: row; width: 800px; justify-content: center; gap: 30px;"">
                    <img src=""images_story_vs_info/info_4_2.png"" class=""small-image"">
                    <img src=""images_story_vs_info/story_2_2.png"" class=""small-image"">
                </div>","0","choice","","","2","3","","Valuable_Story_vs_Info","images_story_vs_info/info_4_2.png","images_story_vs_info/story_2_2.png"
"","","","","","html-button-response","72","487654","0.0-72.0","","2051","
                <div style=""font-family: Arial; margin-bottom: 20px;""><h3>Which image is worth <b>more money</b>?</h3></div>
                <div class=""stimulus-container"" style=""display: flex; flex-direction: row; width: 800px; justify-content: center; gap: 30px;"">
                    <img src=""images_story_vs_info/info_4_4.png"" class=""small-image"">
                    <img src=""images_story_vs_info/story_2_4.png"" class=""small-image"">
                </div>","1","choice","","","4","3","","Valuable_Story_vs_Info","images_story_vs_info/info_4_4.png","images_story_vs_info/story_2_4.png"
"","","","","","html-button-response","73","489239","0.0-73.0","","1580","
                <div style=""font-family: Arial; margin-bottom: 20px;""><h3>Which image is worth <b>more money</b>?</h3></div>
                <div class=""stimulus-container"" style=""display: flex; flex-direction: row; width: 800px; justify-content: center; gap: 30px;"">
                    <img src=""images_story_vs_info/info_1_5.png"" class=""small-image"">
                    <img src=""images_story_vs_info/story_3_5.png"" class=""small-image"">
                </div>","0","choice","","","5","3","","Neutral_Story_vs_Info","images_story_vs_info/info_1_5.png","images_story_vs_info/story_3_5.png"
"","","","","","html-button-response","74","490994","0.0-74.0","","1750","
                <div style=""font-family: Arial; margin-bottom: 20px;""><h3>Which image is worth <b>more money</b>?</h3></div>
                <div class=""stimulus-container"" style=""display: flex; flex-direction: row; width: 800px; justify-content: center; gap: 30px;"">
                    <img src=""images_story_vs_info/story_2_5.png"" class=""small-image"">
                    <img src=""images_story_vs_info/info_4_5.png"" class=""small-image"">
                </div>","1","choice","","","5","3","","Valuable_Story_vs_Info","images_story_vs_info/story_2_5.png","images_story_vs_info/info_4_5.png"
"","","","","","survey-text","75","525921","0.0-75.0","","34894","","{""choice_strategy"":""i was guessing based on what i thought looked more valuable."",""gender"":""female"",""age"":""35""}","","","","","","","","",""
"","","","","","instructions","76","530817","0.0-76.0","[{""page_index"":0,""viewing_time"":4893}]","4894","","","","","","","","","","",""
