"success","timeout","failed_images","failed_audio","failed_video","trial_type","trial_index","time_elapsed","internal_node_id","subject_id","study_id","session_id","view_history","rt","stimulus","response","task","image_index","folder","sequence_type","presentation_order","valuable_image_index","reward_type","chosen_image_index","target_X","correct_choice"
"true","false","[]","[]","[]","preload","0","14608","0.0-0.0","61A13B482CA74777A9B903EA74B0E610","019cf9a9-1c41-7c2d-b56c-61b4dba540c7","019cf974-7aee-7bc9-8ea4-9f55741b365d","","","","","","","","","","","","","",""
"","","","","","instructions","1","54881","0.0-1.0","61A13B482CA74777A9B903EA74B0E610","019cf9a9-1c41-7c2d-b56c-61b4dba540c7","019cf974-7aee-7bc9-8ea4-9f55741b365d","[{""page_index"":0,""viewing_time"":40270}]","40270","","","","","","","","","","","",""
"","","","","","instructions","2","59194","0.0-2.0","61A13B482CA74777A9B903EA74B0E610","019cf9a9-1c41-7c2d-b56c-61b4dba540c7","019cf974-7aee-7bc9-8ea4-9f55741b365d","[{""page_index"":0,""viewing_time"":4312}]","4313","","","","","","","","","","","",""
"true","","","","","fullscreen","3","62609","0.0-3.0","61A13B482CA74777A9B903EA74B0E610","019cf9a9-1c41-7c2d-b56c-61b4dba540c7","019cf974-7aee-7bc9-8ea4-9f55741b365d","","2409","","","","","","","","","","","",""
"","","","","","instructions","4","75757","0.0-4.0","61A13B482CA74777A9B903EA74B0E610","019cf9a9-1c41-7c2d-b56c-61b4dba540c7","019cf974-7aee-7bc9-8ea4-9f55741b365d","[{""page_index"":0,""viewing_time"":13146}]","13147","","","","","","","","","","","",""
"","","","","","instructions","5","94492","0.0-5.0","61A13B482CA74777A9B903EA74B0E610","019cf9a9-1c41-7c2d-b56c-61b4dba540c7","019cf974-7aee-7bc9-8ea4-9f55741b365d","[{""page_index"":0,""viewing_time"":18733}]","18733","","","","","","","","","","","",""
"","","","","","html-keyboard-response","6","98506","0.0-6.0","61A13B482CA74777A9B903EA74B0E610","019cf9a9-1c41-7c2d-b56c-61b4dba540c7","019cf974-7aee-7bc9-8ea4-9f55741b365d","","null","
                <div class=""stimulus-container"">
                    <img src=""images/instructions/movie_1.png"" class=""exp-image"">
                    <div class=""question-area""></div> 
                </div>","null","","","","","","","","","",""
"","","","","","html-button-response","7","100480","0.0-7.0","61A13B482CA74777A9B903EA74B0E610","019cf9a9-1c41-7c2d-b56c-61b4dba540c7","019cf974-7aee-7bc9-8ea4-9f55741b365d","","1971","
                <div class=""stimulus-container"">
                    <img src=""images/instructions/movie_1.png"" class=""exp-image"">
                    <div class=""question-area"">
                        <p style=""font-size: 20px; font-weight: bold; margin: 0;"">Was there a person in this image?</p>
                    </div>
                </div>","0","example_question","1","","","","","","","",""
"","","","","","html-keyboard-response","8","104493","0.0-8.0","61A13B482CA74777A9B903EA74B0E610","019cf9a9-1c41-7c2d-b56c-61b4dba540c7","019cf974-7aee-7bc9-8ea4-9f55741b365d","","null","
                <div class=""stimulus-container"">
                    <img src=""images/instructions/movie_2.png"" class=""exp-image"">
                    <div class=""question-area""></div> 
                </div>","null","","","","","","","","","",""
"","","","","","html-button-response","9","105494","0.0-9.0","61A13B482CA74777A9B903EA74B0E610","019cf9a9-1c41-7c2d-b56c-61b4dba540c7","019cf974-7aee-7bc9-8ea4-9f55741b365d","","999","
                <div class=""stimulus-container"">
                    <img src=""images/instructions/movie_2.png"" class=""exp-image"">
                    <div class=""question-area"">
                        <p style=""font-size: 20px; font-weight: bold; margin: 0;"">Was there a person in this image?</p>
                    </div>
                </div>","0","example_question","2","","","","","","","",""
"","","","","","html-keyboard-response","10","109511","0.0-10.0","61A13B482CA74777A9B903EA74B0E610","019cf9a9-1c41-7c2d-b56c-61b4dba540c7","019cf974-7aee-7bc9-8ea4-9f55741b365d","","null","
                <div class=""stimulus-container"">
                    <img src=""images/instructions/movie_3.png"" class=""exp-image"">
                    <div class=""question-area""></div> 
                </div>","null","","","","","","","","","",""
"","","","","","html-button-response","11","110355","0.0-11.0","61A13B482CA74777A9B903EA74B0E610","019cf9a9-1c41-7c2d-b56c-61b4dba540c7","019cf974-7aee-7bc9-8ea4-9f55741b365d","","842","
                <div class=""stimulus-container"">
                    <img src=""images/instructions/movie_3.png"" class=""exp-image"">
                    <div class=""question-area"">
                        <p style=""font-size: 20px; font-weight: bold; margin: 0;"">Was there a person in this image?</p>
                    </div>
                </div>","0","example_question","3","","","","","","","",""
"","","","","","html-keyboard-response","12","114361","0.0-12.0","61A13B482CA74777A9B903EA74B0E610","019cf9a9-1c41-7c2d-b56c-61b4dba540c7","019cf974-7aee-7bc9-8ea4-9f55741b365d","","null","
                <div class=""stimulus-container"">
                    <img src=""images/instructions/movie_4.png"" class=""exp-image"">
                    <div class=""question-area""></div> 
                </div>","null","","","","","","","","","",""
"","","","","","html-button-response","13","115138","0.0-13.0","61A13B482CA74777A9B903EA74B0E610","019cf9a9-1c41-7c2d-b56c-61b4dba540c7","019cf974-7aee-7bc9-8ea4-9f55741b365d","","775","
                <div class=""stimulus-container"">
                    <img src=""images/instructions/movie_4.png"" class=""exp-image"">
                    <div class=""question-area"">
                        <p style=""font-size: 20px; font-weight: bold; margin: 0;"">Was there a person in this image?</p>
                    </div>
                </div>","0","example_question","4","","","","","","","",""
"","","","","","instructions","14","124318","0.0-14.0","61A13B482CA74777A9B903EA74B0E610","019cf9a9-1c41-7c2d-b56c-61b4dba540c7","019cf974-7aee-7bc9-8ea4-9f55741b365d","[{""page_index"":0,""viewing_time"":9179}]","9179","","","","","","","","","","","",""
"","","","","","instructions","15","131686","0.0-15.0","61A13B482CA74777A9B903EA74B0E610","019cf9a9-1c41-7c2d-b56c-61b4dba540c7","019cf974-7aee-7bc9-8ea4-9f55741b365d","[{""page_index"":0,""viewing_time"":7366}]","7367","","","","","","","","","","","",""
"","","","","","html-keyboard-response","16","136697","0.0-16.0","61A13B482CA74777A9B903EA74B0E610","019cf9a9-1c41-7c2d-b56c-61b4dba540c7","019cf974-7aee-7bc9-8ea4-9f55741b365d","","null","<div style=""background-color: white; width: 100vw; height: 100vh;""></div>","null","","","","","","","","","",""
"","","","","","html-keyboard-response","17","137711","0.0-17.0","61A13B482CA74777A9B903EA74B0E610","019cf9a9-1c41-7c2d-b56c-61b4dba540c7","019cf974-7aee-7bc9-8ea4-9f55741b365d","","null","
                <div class=""stimulus-container"">
                    <img src=""images/causal_sequence/dog_causal/dog_causal_6.png"" class=""exp-image"">
                    <div class=""question-area""></div> 
                </div>","null","","","","","","","","","",""
"","","","","","html-button-response","18","139497","0.0-18.0","61A13B482CA74777A9B903EA74B0E610","019cf9a9-1c41-7c2d-b56c-61b4dba540c7","019cf974-7aee-7bc9-8ea4-9f55741b365d","","1785","
                <div class=""stimulus-container"">
                    <img src=""images/causal_sequence/dog_causal/dog_causal_6.png"" class=""exp-image"">
                    <div class=""question-area"">
                        <p style=""font-size: 20px; font-weight: bold; margin: 0;"">Is there a person in this image?</p>
                    </div>
                </div>","0","main_experiment_trial","6","dog_causal","causal_sequence","randomized","","","","",""
"","","","","","html-keyboard-response","19","140508","0.0-19.0","61A13B482CA74777A9B903EA74B0E610","019cf9a9-1c41-7c2d-b56c-61b4dba540c7","019cf974-7aee-7bc9-8ea4-9f55741b365d","","null","
                <div class=""stimulus-container"">
                    <img src=""images/causal_sequence/dog_causal/dog_causal_9.png"" class=""exp-image"">
                    <div class=""question-area""></div> 
                </div>","null","","","","","","","","","",""
"","","","","","html-button-response","20","141478","0.0-20.0","61A13B482CA74777A9B903EA74B0E610","019cf9a9-1c41-7c2d-b56c-61b4dba540c7","019cf974-7aee-7bc9-8ea4-9f55741b365d","","968","
                <div class=""stimulus-container"">
                    <img src=""images/causal_sequence/dog_causal/dog_causal_9.png"" class=""exp-image"">
                    <div class=""question-area"">
                        <p style=""font-size: 20px; font-weight: bold; margin: 0;"">Is there a person in this image?</p>
                    </div>
                </div>","0","main_experiment_trial","9","dog_causal","causal_sequence","randomized","","","","",""
"","","","","","html-keyboard-response","21","142480","0.0-21.0","61A13B482CA74777A9B903EA74B0E610","019cf9a9-1c41-7c2d-b56c-61b4dba540c7","019cf974-7aee-7bc9-8ea4-9f55741b365d","","null","
                <div class=""stimulus-container"">
                    <img src=""images/causal_sequence/dog_causal/dog_causal_ten.png"" class=""exp-image"">
                    <div class=""question-area""></div> 
                </div>","null","","","","","","","","","",""
"","","","","","html-button-response","22","143477","0.0-22.0","61A13B482CA74777A9B903EA74B0E610","019cf9a9-1c41-7c2d-b56c-61b4dba540c7","019cf974-7aee-7bc9-8ea4-9f55741b365d","","995","
                <div class=""stimulus-container"">
                    <img src=""images/causal_sequence/dog_causal/dog_causal_ten.png"" class=""exp-image"">
                    <div class=""question-area"">
                        <p style=""font-size: 20px; font-weight: bold; margin: 0;"">Is there a person in this image?</p>
                    </div>
                </div>","0","main_experiment_trial","ten","dog_causal","causal_sequence","randomized","","","","",""
"","","","","","html-keyboard-response","23","144492","0.0-23.0","61A13B482CA74777A9B903EA74B0E610","019cf9a9-1c41-7c2d-b56c-61b4dba540c7","019cf974-7aee-7bc9-8ea4-9f55741b365d","","null","
                <div class=""stimulus-container"">
                    <img src=""images/causal_sequence/dog_causal/dog_causal_3.png"" class=""exp-image"">
                    <div class=""question-area""></div> 
                </div>","null","","","","","","","","","",""
"","","","","","html-button-response","24","146157","0.0-24.0","61A13B482CA74777A9B903EA74B0E610","019cf9a9-1c41-7c2d-b56c-61b4dba540c7","019cf974-7aee-7bc9-8ea4-9f55741b365d","","1663","
                <div class=""stimulus-container"">
                    <img src=""images/causal_sequence/dog_causal/dog_causal_3.png"" class=""exp-image"">
                    <div class=""question-area"">
                        <p style=""font-size: 20px; font-weight: bold; margin: 0;"">Is there a person in this image?</p>
                    </div>
                </div>","0","main_experiment_trial","3","dog_causal","causal_sequence","randomized","","","","",""
"","","","","","html-keyboard-response","25","147169","0.0-25.0","61A13B482CA74777A9B903EA74B0E610","019cf9a9-1c41-7c2d-b56c-61b4dba540c7","019cf974-7aee-7bc9-8ea4-9f55741b365d","","null","
                <div class=""stimulus-container"">
                    <img src=""images/causal_sequence/dog_causal/dog_causal_5.png"" class=""exp-image"">
                    <div class=""question-area""></div> 
                </div>","null","","","","","","","","","",""
"","","","","","html-button-response","26","148242","0.0-26.0","61A13B482CA74777A9B903EA74B0E610","019cf9a9-1c41-7c2d-b56c-61b4dba540c7","019cf974-7aee-7bc9-8ea4-9f55741b365d","","1072","
                <div class=""stimulus-container"">
                    <img src=""images/causal_sequence/dog_causal/dog_causal_5.png"" class=""exp-image"">
                    <div class=""question-area"">
                        <p style=""font-size: 20px; font-weight: bold; margin: 0;"">Is there a person in this image?</p>
                    </div>
                </div>","0","main_experiment_trial","5","dog_causal","causal_sequence","randomized","","","","",""
"","","","","","html-keyboard-response","27","149249","0.0-27.0","61A13B482CA74777A9B903EA74B0E610","019cf9a9-1c41-7c2d-b56c-61b4dba540c7","019cf974-7aee-7bc9-8ea4-9f55741b365d","","null","
                <div class=""stimulus-container"">
                    <img src=""images/causal_sequence/dog_causal/dog_causal_1.png"" class=""exp-image"">
                    <div class=""question-area""></div> 
                </div>","null","","","","","","","","","",""
"","","","","","html-button-response","28","150406","0.0-28.0","61A13B482CA74777A9B903EA74B0E610","019cf9a9-1c41-7c2d-b56c-61b4dba540c7","019cf974-7aee-7bc9-8ea4-9f55741b365d","","1156","
                <div class=""stimulus-container"">
                    <img src=""images/causal_sequence/dog_causal/dog_causal_1.png"" class=""exp-image"">
                    <div class=""question-area"">
                        <p style=""font-size: 20px; font-weight: bold; margin: 0;"">Is there a person in this image?</p>
                    </div>
                </div>","0","main_experiment_trial","1","dog_causal","causal_sequence","randomized","","","","",""
"","","","","","html-keyboard-response","29","151420","0.0-29.0","61A13B482CA74777A9B903EA74B0E610","019cf9a9-1c41-7c2d-b56c-61b4dba540c7","019cf974-7aee-7bc9-8ea4-9f55741b365d","","null","
                <div class=""stimulus-container"">
                    <img src=""images/causal_sequence/dog_causal/dog_causal_8.png"" class=""exp-image"">
                    <div class=""question-area""></div> 
                </div>","null","","","","","","","","","",""
"","","","","","html-button-response","30","152891","0.0-30.0","61A13B482CA74777A9B903EA74B0E610","019cf9a9-1c41-7c2d-b56c-61b4dba540c7","019cf974-7aee-7bc9-8ea4-9f55741b365d","","1469","
                <div class=""stimulus-container"">
                    <img src=""images/causal_sequence/dog_causal/dog_causal_8.png"" class=""exp-image"">
                    <div class=""question-area"">
                        <p style=""font-size: 20px; font-weight: bold; margin: 0;"">Is there a person in this image?</p>
                    </div>
                </div>","0","main_experiment_trial","8","dog_causal","causal_sequence","randomized","","","","",""
"","","","","","html-keyboard-response","31","153897","0.0-31.0","61A13B482CA74777A9B903EA74B0E610","019cf9a9-1c41-7c2d-b56c-61b4dba540c7","019cf974-7aee-7bc9-8ea4-9f55741b365d","","null","
                <div class=""stimulus-container"">
                    <img src=""images/causal_sequence/dog_causal/dog_causal_7.png"" class=""exp-image"">
                    <div class=""question-area""></div> 
                </div>","null","","","","","","","","","",""
"","","","","","html-button-response","32","154957","0.0-32.0","61A13B482CA74777A9B903EA74B0E610","019cf9a9-1c41-7c2d-b56c-61b4dba540c7","019cf974-7aee-7bc9-8ea4-9f55741b365d","","1058","
                <div class=""stimulus-container"">
                    <img src=""images/causal_sequence/dog_causal/dog_causal_7.png"" class=""exp-image"">
                    <div class=""question-area"">
                        <p style=""font-size: 20px; font-weight: bold; margin: 0;"">Is there a person in this image?</p>
                    </div>
                </div>","0","main_experiment_trial","7","dog_causal","causal_sequence","randomized","","","","",""
"","","","","","html-keyboard-response","33","155962","0.0-33.0","61A13B482CA74777A9B903EA74B0E610","019cf9a9-1c41-7c2d-b56c-61b4dba540c7","019cf974-7aee-7bc9-8ea4-9f55741b365d","","null","
                <div class=""stimulus-container"">
                    <img src=""images/causal_sequence/dog_causal/dog_causal_4.png"" class=""exp-image"">
                    <div class=""question-area""></div> 
                </div>","null","","","","","","","","","",""
"","","","","","html-button-response","34","157160","0.0-34.0","61A13B482CA74777A9B903EA74B0E610","019cf9a9-1c41-7c2d-b56c-61b4dba540c7","019cf974-7aee-7bc9-8ea4-9f55741b365d","","1197","
                <div class=""stimulus-container"">
                    <img src=""images/causal_sequence/dog_causal/dog_causal_4.png"" class=""exp-image"">
                    <div class=""question-area"">
                        <p style=""font-size: 20px; font-weight: bold; margin: 0;"">Is there a person in this image?</p>
                    </div>
                </div>","0","main_experiment_trial","4","dog_causal","causal_sequence","randomized","","","","",""
"","","","","","html-keyboard-response","35","158162","0.0-35.0","61A13B482CA74777A9B903EA74B0E610","019cf9a9-1c41-7c2d-b56c-61b4dba540c7","019cf974-7aee-7bc9-8ea4-9f55741b365d","","null","
                <div class=""stimulus-container"">
                    <img src=""images/causal_sequence/dog_causal/dog_causal_2.png"" class=""exp-image"">
                    <div class=""question-area""></div> 
                </div>","null","","","","","","","","","",""
"","","","","","html-button-response","36","159210","0.0-36.0","61A13B482CA74777A9B903EA74B0E610","019cf9a9-1c41-7c2d-b56c-61b4dba540c7","019cf974-7aee-7bc9-8ea4-9f55741b365d","","1047","
                <div class=""stimulus-container"">
                    <img src=""images/causal_sequence/dog_causal/dog_causal_2.png"" class=""exp-image"">
                    <div class=""question-area"">
                        <p style=""font-size: 20px; font-weight: bold; margin: 0;"">Is there a person in this image?</p>
                    </div>
                </div>","0","main_experiment_trial","2","dog_causal","causal_sequence","randomized","","","","",""
"","","","","","html-keyboard-response","37","164213","0.0-37.0","61A13B482CA74777A9B903EA74B0E610","019cf9a9-1c41-7c2d-b56c-61b4dba540c7","019cf974-7aee-7bc9-8ea4-9f55741b365d","","null","<div style=""background-color: white; width: 100vw; height: 100vh;""></div>","null","","","","","","","","","",""
"","","","","","html-keyboard-response","38","165231","0.0-38.0","61A13B482CA74777A9B903EA74B0E610","019cf9a9-1c41-7c2d-b56c-61b4dba540c7","019cf974-7aee-7bc9-8ea4-9f55741b365d","","null","
                <div class=""stimulus-container"">
                    <img src=""images/semantic_sequence/physical_activity_semantic/physical_activity_semantic_9.png"" class=""exp-image"">
                    <div class=""question-area""></div> 
                </div>","null","","","","","","","","","",""
"","","","","","html-button-response","39","167025","0.0-39.0","61A13B482CA74777A9B903EA74B0E610","019cf9a9-1c41-7c2d-b56c-61b4dba540c7","019cf974-7aee-7bc9-8ea4-9f55741b365d","","1791","
                <div class=""stimulus-container"">
                    <img src=""images/semantic_sequence/physical_activity_semantic/physical_activity_semantic_9.png"" class=""exp-image"">
                    <div class=""question-area"">
                        <p style=""font-size: 20px; font-weight: bold; margin: 0;"">Is there a person in this image?</p>
                    </div>
                </div>","0","main_experiment_trial","9","physical_activity_semantic","semantic_sequence","randomized","","","","",""
"","","","","","html-keyboard-response","40","168031","0.0-40.0","61A13B482CA74777A9B903EA74B0E610","019cf9a9-1c41-7c2d-b56c-61b4dba540c7","019cf974-7aee-7bc9-8ea4-9f55741b365d","","null","
                <div class=""stimulus-container"">
                    <img src=""images/semantic_sequence/physical_activity_semantic/physical_activity_semantic_6.png"" class=""exp-image"">
                    <div class=""question-area""></div> 
                </div>","null","","","","","","","","","",""
"","","","","","html-button-response","41","168741","0.0-41.0","61A13B482CA74777A9B903EA74B0E610","019cf9a9-1c41-7c2d-b56c-61b4dba540c7","019cf974-7aee-7bc9-8ea4-9f55741b365d","","709","
                <div class=""stimulus-container"">
                    <img src=""images/semantic_sequence/physical_activity_semantic/physical_activity_semantic_6.png"" class=""exp-image"">
                    <div class=""question-area"">
                        <p style=""font-size: 20px; font-weight: bold; margin: 0;"">Is there a person in this image?</p>
                    </div>
                </div>","0","main_experiment_trial","6","physical_activity_semantic","semantic_sequence","randomized","","","","",""
"","","","","","html-keyboard-response","42","169760","0.0-42.0","61A13B482CA74777A9B903EA74B0E610","019cf9a9-1c41-7c2d-b56c-61b4dba540c7","019cf974-7aee-7bc9-8ea4-9f55741b365d","","null","
                <div class=""stimulus-container"">
                    <img src=""images/semantic_sequence/physical_activity_semantic/physical_activity_semantic_8.png"" class=""exp-image"">
                    <div class=""question-area""></div> 
                </div>","null","","","","","","","","","",""
"","","","","","html-button-response","43","170439","0.0-43.0","61A13B482CA74777A9B903EA74B0E610","019cf9a9-1c41-7c2d-b56c-61b4dba540c7","019cf974-7aee-7bc9-8ea4-9f55741b365d","","678","
                <div class=""stimulus-container"">
                    <img src=""images/semantic_sequence/physical_activity_semantic/physical_activity_semantic_8.png"" class=""exp-image"">
                    <div class=""question-area"">
                        <p style=""font-size: 20px; font-weight: bold; margin: 0;"">Is there a person in this image?</p>
                    </div>
                </div>","0","main_experiment_trial","8","physical_activity_semantic","semantic_sequence","randomized","","","","",""
"","","","","","html-keyboard-response","44","171455","0.0-44.0","61A13B482CA74777A9B903EA74B0E610","019cf9a9-1c41-7c2d-b56c-61b4dba540c7","019cf974-7aee-7bc9-8ea4-9f55741b365d","","null","
                <div class=""stimulus-container"">
                    <img src=""images/semantic_sequence/physical_activity_semantic/physical_activity_semantic_1.png"" class=""exp-image"">
                    <div class=""question-area""></div> 
                </div>","null","","","","","","","","","",""
"","","","","","html-button-response","45","172210","0.0-45.0","61A13B482CA74777A9B903EA74B0E610","019cf9a9-1c41-7c2d-b56c-61b4dba540c7","019cf974-7aee-7bc9-8ea4-9f55741b365d","","753","
                <div class=""stimulus-container"">
                    <img src=""images/semantic_sequence/physical_activity_semantic/physical_activity_semantic_1.png"" class=""exp-image"">
                    <div class=""question-area"">
                        <p style=""font-size: 20px; font-weight: bold; margin: 0;"">Is there a person in this image?</p>
                    </div>
                </div>","0","main_experiment_trial","1","physical_activity_semantic","semantic_sequence","randomized","","","","",""
"","","","","","html-keyboard-response","46","173214","0.0-46.0","61A13B482CA74777A9B903EA74B0E610","019cf9a9-1c41-7c2d-b56c-61b4dba540c7","019cf974-7aee-7bc9-8ea4-9f55741b365d","","null","
                <div class=""stimulus-container"">
                    <img src=""images/semantic_sequence/physical_activity_semantic/physical_activity_semantic_5.png"" class=""exp-image"">
                    <div class=""question-area""></div> 
                </div>","null","","","","","","","","","",""
"","","","","","html-button-response","47","173927","0.0-47.0","61A13B482CA74777A9B903EA74B0E610","019cf9a9-1c41-7c2d-b56c-61b4dba540c7","019cf974-7aee-7bc9-8ea4-9f55741b365d","","712","
                <div class=""stimulus-container"">
                    <img src=""images/semantic_sequence/physical_activity_semantic/physical_activity_semantic_5.png"" class=""exp-image"">
                    <div class=""question-area"">
                        <p style=""font-size: 20px; font-weight: bold; margin: 0;"">Is there a person in this image?</p>
                    </div>
                </div>","0","main_experiment_trial","5","physical_activity_semantic","semantic_sequence","randomized","","","","",""
"","","","","","html-keyboard-response","48","174944","0.0-48.0","61A13B482CA74777A9B903EA74B0E610","019cf9a9-1c41-7c2d-b56c-61b4dba540c7","019cf974-7aee-7bc9-8ea4-9f55741b365d","","null","
                <div class=""stimulus-container"">
                    <img src=""images/semantic_sequence/physical_activity_semantic/physical_activity_semantic_4.png"" class=""exp-image"">
                    <div class=""question-area""></div> 
                </div>","null","","","","","","","","","",""
"","","","","","html-button-response","49","175782","0.0-49.0","61A13B482CA74777A9B903EA74B0E610","019cf9a9-1c41-7c2d-b56c-61b4dba540c7","019cf974-7aee-7bc9-8ea4-9f55741b365d","","836","
                <div class=""stimulus-container"">
                    <img src=""images/semantic_sequence/physical_activity_semantic/physical_activity_semantic_4.png"" class=""exp-image"">
                    <div class=""question-area"">
                        <p style=""font-size: 20px; font-weight: bold; margin: 0;"">Is there a person in this image?</p>
                    </div>
                </div>","0","main_experiment_trial","4","physical_activity_semantic","semantic_sequence","randomized","","","","",""
"","","","","","html-keyboard-response","50","176787","0.0-50.0","61A13B482CA74777A9B903EA74B0E610","019cf9a9-1c41-7c2d-b56c-61b4dba540c7","019cf974-7aee-7bc9-8ea4-9f55741b365d","","null","
                <div class=""stimulus-container"">
                    <img src=""images/semantic_sequence/physical_activity_semantic/physical_activity_semantic_ten.png"" class=""exp-image"">
                    <div class=""question-area""></div> 
                </div>","null","","","","","","","","","",""
"","","","","","html-button-response","51","177602","0.0-51.0","61A13B482CA74777A9B903EA74B0E610","019cf9a9-1c41-7c2d-b56c-61b4dba540c7","019cf974-7aee-7bc9-8ea4-9f55741b365d","","815","
                <div class=""stimulus-container"">
                    <img src=""images/semantic_sequence/physical_activity_semantic/physical_activity_semantic_ten.png"" class=""exp-image"">
                    <div class=""question-area"">
                        <p style=""font-size: 20px; font-weight: bold; margin: 0;"">Is there a person in this image?</p>
                    </div>
                </div>","0","main_experiment_trial","ten","physical_activity_semantic","semantic_sequence","randomized","","","","",""
"","","","","","html-keyboard-response","52","178615","0.0-52.0","61A13B482CA74777A9B903EA74B0E610","019cf9a9-1c41-7c2d-b56c-61b4dba540c7","019cf974-7aee-7bc9-8ea4-9f55741b365d","","null","
                <div class=""stimulus-container"">
                    <img src=""images/semantic_sequence/physical_activity_semantic/physical_activity_semantic_3.png"" class=""exp-image"">
                    <div class=""question-area""></div> 
                </div>","null","","","","","","","","","",""
"","","","","","html-button-response","53","179489","0.0-53.0","61A13B482CA74777A9B903EA74B0E610","019cf9a9-1c41-7c2d-b56c-61b4dba540c7","019cf974-7aee-7bc9-8ea4-9f55741b365d","","872","
                <div class=""stimulus-container"">
                    <img src=""images/semantic_sequence/physical_activity_semantic/physical_activity_semantic_3.png"" class=""exp-image"">
                    <div class=""question-area"">
                        <p style=""font-size: 20px; font-weight: bold; margin: 0;"">Is there a person in this image?</p>
                    </div>
                </div>","0","main_experiment_trial","3","physical_activity_semantic","semantic_sequence","randomized","","","","",""
"","","","","","html-keyboard-response","54","180491","0.0-54.0","61A13B482CA74777A9B903EA74B0E610","019cf9a9-1c41-7c2d-b56c-61b4dba540c7","019cf974-7aee-7bc9-8ea4-9f55741b365d","","null","
                <div class=""stimulus-container"">
                    <img src=""images/semantic_sequence/physical_activity_semantic/physical_activity_semantic_7.png"" class=""exp-image"">
                    <div class=""question-area""></div> 
                </div>","null","","","","","","","","","",""
"","","","","","html-button-response","55","181352","0.0-55.0","61A13B482CA74777A9B903EA74B0E610","019cf9a9-1c41-7c2d-b56c-61b4dba540c7","019cf974-7aee-7bc9-8ea4-9f55741b365d","","860","
                <div class=""stimulus-container"">
                    <img src=""images/semantic_sequence/physical_activity_semantic/physical_activity_semantic_7.png"" class=""exp-image"">
                    <div class=""question-area"">
                        <p style=""font-size: 20px; font-weight: bold; margin: 0;"">Is there a person in this image?</p>
                    </div>
                </div>","0","main_experiment_trial","7","physical_activity_semantic","semantic_sequence","randomized","","","","",""
"","","","","","html-keyboard-response","56","182369","0.0-56.0","61A13B482CA74777A9B903EA74B0E610","019cf9a9-1c41-7c2d-b56c-61b4dba540c7","019cf974-7aee-7bc9-8ea4-9f55741b365d","","null","
                <div class=""stimulus-container"">
                    <img src=""images/semantic_sequence/physical_activity_semantic/physical_activity_semantic_2.png"" class=""exp-image"">
                    <div class=""question-area""></div> 
                </div>","null","","","","","","","","","",""
"","","","","","html-button-response","57","183204","0.0-57.0","61A13B482CA74777A9B903EA74B0E610","019cf9a9-1c41-7c2d-b56c-61b4dba540c7","019cf974-7aee-7bc9-8ea4-9f55741b365d","","833","
                <div class=""stimulus-container"">
                    <img src=""images/semantic_sequence/physical_activity_semantic/physical_activity_semantic_2.png"" class=""exp-image"">
                    <div class=""question-area"">
                        <p style=""font-size: 20px; font-weight: bold; margin: 0;"">Is there a person in this image?</p>
                    </div>
                </div>","0","main_experiment_trial","2","physical_activity_semantic","semantic_sequence","randomized","","","","",""
"","","","","","html-keyboard-response","58","188211","0.0-58.0","61A13B482CA74777A9B903EA74B0E610","019cf9a9-1c41-7c2d-b56c-61b4dba540c7","019cf974-7aee-7bc9-8ea4-9f55741b365d","","null","<div style=""background-color: white; width: 100vw; height: 100vh;""></div>","null","","","","","","","","","",""
"","","","","","html-keyboard-response","59","189213","0.0-59.0","61A13B482CA74777A9B903EA74B0E610","019cf9a9-1c41-7c2d-b56c-61b4dba540c7","019cf974-7aee-7bc9-8ea4-9f55741b365d","","null","
                <div class=""stimulus-container"">
                    <img src=""images/semantic_sequence/exploring_nature_semantic/exploring_nature_semantic_ten.png"" class=""exp-image"">
                    <div class=""question-area""></div> 
                </div>","null","","","","","","","","","",""
"","","","","","html-button-response","60","190787","0.0-60.0","61A13B482CA74777A9B903EA74B0E610","019cf9a9-1c41-7c2d-b56c-61b4dba540c7","019cf974-7aee-7bc9-8ea4-9f55741b365d","","1572","
                <div class=""stimulus-container"">
                    <img src=""images/semantic_sequence/exploring_nature_semantic/exploring_nature_semantic_ten.png"" class=""exp-image"">
                    <div class=""question-area"">
                        <p style=""font-size: 20px; font-weight: bold; margin: 0;"">Is there a person in this image?</p>
                    </div>
                </div>","0","main_experiment_trial","ten","exploring_nature_semantic","semantic_sequence","randomized","","","","",""
"","","","","","html-keyboard-response","61","191792","0.0-61.0","61A13B482CA74777A9B903EA74B0E610","019cf9a9-1c41-7c2d-b56c-61b4dba540c7","019cf974-7aee-7bc9-8ea4-9f55741b365d","","null","
                <div class=""stimulus-container"">
                    <img src=""images/semantic_sequence/exploring_nature_semantic/exploring_nature_semantic_9.png"" class=""exp-image"">
                    <div class=""question-area""></div> 
                </div>","null","","","","","","","","","",""
"","","","","","html-button-response","62","192613","0.0-62.0","61A13B482CA74777A9B903EA74B0E610","019cf9a9-1c41-7c2d-b56c-61b4dba540c7","019cf974-7aee-7bc9-8ea4-9f55741b365d","","818","
                <div class=""stimulus-container"">
                    <img src=""images/semantic_sequence/exploring_nature_semantic/exploring_nature_semantic_9.png"" class=""exp-image"">
                    <div class=""question-area"">
                        <p style=""font-size: 20px; font-weight: bold; margin: 0;"">Is there a person in this image?</p>
                    </div>
                </div>","0","main_experiment_trial","9","exploring_nature_semantic","semantic_sequence","randomized","","","","",""
"","","","","","html-keyboard-response","63","193619","0.0-63.0","61A13B482CA74777A9B903EA74B0E610","019cf9a9-1c41-7c2d-b56c-61b4dba540c7","019cf974-7aee-7bc9-8ea4-9f55741b365d","","null","
                <div class=""stimulus-container"">
                    <img src=""images/semantic_sequence/exploring_nature_semantic/exploring_nature_semantic_5.png"" class=""exp-image"">
                    <div class=""question-area""></div> 
                </div>","null","","","","","","","","","",""
"","","","","","html-button-response","64","194514","0.0-64.0","61A13B482CA74777A9B903EA74B0E610","019cf9a9-1c41-7c2d-b56c-61b4dba540c7","019cf974-7aee-7bc9-8ea4-9f55741b365d","","893","
                <div class=""stimulus-container"">
                    <img src=""images/semantic_sequence/exploring_nature_semantic/exploring_nature_semantic_5.png"" class=""exp-image"">
                    <div class=""question-area"">
                        <p style=""font-size: 20px; font-weight: bold; margin: 0;"">Is there a person in this image?</p>
                    </div>
                </div>","0","main_experiment_trial","5","exploring_nature_semantic","semantic_sequence","randomized","","","","",""
"","","","","","html-keyboard-response","65","195531","0.0-65.0","61A13B482CA74777A9B903EA74B0E610","019cf9a9-1c41-7c2d-b56c-61b4dba540c7","019cf974-7aee-7bc9-8ea4-9f55741b365d","","null","
                <div class=""stimulus-container"">
                    <img src=""images/semantic_sequence/exploring_nature_semantic/exploring_nature_semantic_2.png"" class=""exp-image"">
                    <div class=""question-area""></div> 
                </div>","null","","","","","","","","","",""
"","","","","","html-button-response","66","196327","0.0-66.0","61A13B482CA74777A9B903EA74B0E610","019cf9a9-1c41-7c2d-b56c-61b4dba540c7","019cf974-7aee-7bc9-8ea4-9f55741b365d","","795","
                <div class=""stimulus-container"">
                    <img src=""images/semantic_sequence/exploring_nature_semantic/exploring_nature_semantic_2.png"" class=""exp-image"">
                    <div class=""question-area"">
                        <p style=""font-size: 20px; font-weight: bold; margin: 0;"">Is there a person in this image?</p>
                    </div>
                </div>","0","main_experiment_trial","2","exploring_nature_semantic","semantic_sequence","randomized","","","","",""
"","","","","","html-keyboard-response","67","197340","0.0-67.0","61A13B482CA74777A9B903EA74B0E610","019cf9a9-1c41-7c2d-b56c-61b4dba540c7","019cf974-7aee-7bc9-8ea4-9f55741b365d","","null","
                <div class=""stimulus-container"">
                    <img src=""images/semantic_sequence/exploring_nature_semantic/exploring_nature_semantic_3.png"" class=""exp-image"">
                    <div class=""question-area""></div> 
                </div>","null","","","","","","","","","",""
"","","","","","html-button-response","68","198139","0.0-68.0","61A13B482CA74777A9B903EA74B0E610","019cf9a9-1c41-7c2d-b56c-61b4dba540c7","019cf974-7aee-7bc9-8ea4-9f55741b365d","","797","
                <div class=""stimulus-container"">
                    <img src=""images/semantic_sequence/exploring_nature_semantic/exploring_nature_semantic_3.png"" class=""exp-image"">
                    <div class=""question-area"">
                        <p style=""font-size: 20px; font-weight: bold; margin: 0;"">Is there a person in this image?</p>
                    </div>
                </div>","0","main_experiment_trial","3","exploring_nature_semantic","semantic_sequence","randomized","","","","",""
"","","","","","html-keyboard-response","69","199145","0.0-69.0","61A13B482CA74777A9B903EA74B0E610","019cf9a9-1c41-7c2d-b56c-61b4dba540c7","019cf974-7aee-7bc9-8ea4-9f55741b365d","","null","
                <div class=""stimulus-container"">
                    <img src=""images/semantic_sequence/exploring_nature_semantic/exploring_nature_semantic_1.png"" class=""exp-image"">
                    <div class=""question-area""></div> 
                </div>","null","","","","","","","","","",""
"","","","","","html-button-response","70","199993","0.0-70.0","61A13B482CA74777A9B903EA74B0E610","019cf9a9-1c41-7c2d-b56c-61b4dba540c7","019cf974-7aee-7bc9-8ea4-9f55741b365d","","847","
                <div class=""stimulus-container"">
                    <img src=""images/semantic_sequence/exploring_nature_semantic/exploring_nature_semantic_1.png"" class=""exp-image"">
                    <div class=""question-area"">
                        <p style=""font-size: 20px; font-weight: bold; margin: 0;"">Is there a person in this image?</p>
                    </div>
                </div>","0","main_experiment_trial","1","exploring_nature_semantic","semantic_sequence","randomized","","","","",""
"","","","","","html-keyboard-response","71","201007","0.0-71.0","61A13B482CA74777A9B903EA74B0E610","019cf9a9-1c41-7c2d-b56c-61b4dba540c7","019cf974-7aee-7bc9-8ea4-9f55741b365d","","null","
                <div class=""stimulus-container"">
                    <img src=""images/semantic_sequence/exploring_nature_semantic/exploring_nature_semantic_4.png"" class=""exp-image"">
                    <div class=""question-area""></div> 
                </div>","null","","","","","","","","","",""
"","","","","","html-button-response","72","202143","0.0-72.0","61A13B482CA74777A9B903EA74B0E610","019cf9a9-1c41-7c2d-b56c-61b4dba540c7","019cf974-7aee-7bc9-8ea4-9f55741b365d","","1135","
                <div class=""stimulus-container"">
                    <img src=""images/semantic_sequence/exploring_nature_semantic/exploring_nature_semantic_4.png"" class=""exp-image"">
                    <div class=""question-area"">
                        <p style=""font-size: 20px; font-weight: bold; margin: 0;"">Is there a person in this image?</p>
                    </div>
                </div>","0","main_experiment_trial","4","exploring_nature_semantic","semantic_sequence","randomized","","","","",""
"","","","","","html-keyboard-response","73","203146","0.0-73.0","61A13B482CA74777A9B903EA74B0E610","019cf9a9-1c41-7c2d-b56c-61b4dba540c7","019cf974-7aee-7bc9-8ea4-9f55741b365d","","null","
                <div class=""stimulus-container"">
                    <img src=""images/semantic_sequence/exploring_nature_semantic/exploring_nature_semantic_6.png"" class=""exp-image"">
                    <div class=""question-area""></div> 
                </div>","null","","","","","","","","","",""
"","","","","","html-button-response","74","203921","0.0-74.0","61A13B482CA74777A9B903EA74B0E610","019cf9a9-1c41-7c2d-b56c-61b4dba540c7","019cf974-7aee-7bc9-8ea4-9f55741b365d","","774","
                <div class=""stimulus-container"">
                    <img src=""images/semantic_sequence/exploring_nature_semantic/exploring_nature_semantic_6.png"" class=""exp-image"">
                    <div class=""question-area"">
                        <p style=""font-size: 20px; font-weight: bold; margin: 0;"">Is there a person in this image?</p>
                    </div>
                </div>","0","main_experiment_trial","6","exploring_nature_semantic","semantic_sequence","randomized","","","","",""
"","","","","","html-keyboard-response","75","204924","0.0-75.0","61A13B482CA74777A9B903EA74B0E610","019cf9a9-1c41-7c2d-b56c-61b4dba540c7","019cf974-7aee-7bc9-8ea4-9f55741b365d","","null","
                <div class=""stimulus-container"">
                    <img src=""images/semantic_sequence/exploring_nature_semantic/exploring_nature_semantic_8.png"" class=""exp-image"">
                    <div class=""question-area""></div> 
                </div>","null","","","","","","","","","",""
"","","","","","html-button-response","76","205794","0.0-76.0","61A13B482CA74777A9B903EA74B0E610","019cf9a9-1c41-7c2d-b56c-61b4dba540c7","019cf974-7aee-7bc9-8ea4-9f55741b365d","","869","
                <div class=""stimulus-container"">
                    <img src=""images/semantic_sequence/exploring_nature_semantic/exploring_nature_semantic_8.png"" class=""exp-image"">
                    <div class=""question-area"">
                        <p style=""font-size: 20px; font-weight: bold; margin: 0;"">Is there a person in this image?</p>
                    </div>
                </div>","0","main_experiment_trial","8","exploring_nature_semantic","semantic_sequence","randomized","","","","",""
"","","","","","html-keyboard-response","77","206799","0.0-77.0","61A13B482CA74777A9B903EA74B0E610","019cf9a9-1c41-7c2d-b56c-61b4dba540c7","019cf974-7aee-7bc9-8ea4-9f55741b365d","","null","
                <div class=""stimulus-container"">
                    <img src=""images/semantic_sequence/exploring_nature_semantic/exploring_nature_semantic_7.png"" class=""exp-image"">
                    <div class=""question-area""></div> 
                </div>","null","","","","","","","","","",""
"","","","","","html-button-response","78","207576","0.0-78.0","61A13B482CA74777A9B903EA74B0E610","019cf9a9-1c41-7c2d-b56c-61b4dba540c7","019cf974-7aee-7bc9-8ea4-9f55741b365d","","776","
                <div class=""stimulus-container"">
                    <img src=""images/semantic_sequence/exploring_nature_semantic/exploring_nature_semantic_7.png"" class=""exp-image"">
                    <div class=""question-area"">
                        <p style=""font-size: 20px; font-weight: bold; margin: 0;"">Is there a person in this image?</p>
                    </div>
                </div>","0","main_experiment_trial","7","exploring_nature_semantic","semantic_sequence","randomized","","","","",""
"","","","","","html-keyboard-response","79","212591","0.0-79.0","61A13B482CA74777A9B903EA74B0E610","019cf9a9-1c41-7c2d-b56c-61b4dba540c7","019cf974-7aee-7bc9-8ea4-9f55741b365d","","null","<div style=""background-color: white; width: 100vw; height: 100vh;""></div>","null","","","","","","","","","",""
"","","","","","html-keyboard-response","80","213595","0.0-80.0","61A13B482CA74777A9B903EA74B0E610","019cf9a9-1c41-7c2d-b56c-61b4dba540c7","019cf974-7aee-7bc9-8ea4-9f55741b365d","","null","
                <div class=""stimulus-container"">
                    <img src=""images/semantic_sequence/visiting_cities_semantic/visiting_cities_semantic_7.png"" class=""exp-image"">
                    <div class=""question-area""></div> 
                </div>","null","","","","","","","","","",""
"","","","","","html-button-response","81","216605","0.0-81.0","61A13B482CA74777A9B903EA74B0E610","019cf9a9-1c41-7c2d-b56c-61b4dba540c7","019cf974-7aee-7bc9-8ea4-9f55741b365d","","null","
                <div class=""stimulus-container"">
                    <img src=""images/semantic_sequence/visiting_cities_semantic/visiting_cities_semantic_7.png"" class=""exp-image"">
                    <div class=""question-area"">
                        <p style=""font-size: 20px; font-weight: bold; margin: 0;"">Is there a person in this image?</p>
                    </div>
                </div>","null","main_experiment_trial","7","visiting_cities_semantic","semantic_sequence","randomized","","","","",""
"","","","","","html-keyboard-response","82","217620","0.0-82.0","61A13B482CA74777A9B903EA74B0E610","019cf9a9-1c41-7c2d-b56c-61b4dba540c7","019cf974-7aee-7bc9-8ea4-9f55741b365d","","null","
                <div class=""stimulus-container"">
                    <img src=""images/semantic_sequence/visiting_cities_semantic/visiting_cities_semantic_8.png"" class=""exp-image"">
                    <div class=""question-area""></div> 
                </div>","null","","","","","","","","","",""
"","","","","","html-button-response","83","218894","0.0-83.0","61A13B482CA74777A9B903EA74B0E610","019cf9a9-1c41-7c2d-b56c-61b4dba540c7","019cf974-7aee-7bc9-8ea4-9f55741b365d","","1272","
                <div class=""stimulus-container"">
                    <img src=""images/semantic_sequence/visiting_cities_semantic/visiting_cities_semantic_8.png"" class=""exp-image"">
                    <div class=""question-area"">
                        <p style=""font-size: 20px; font-weight: bold; margin: 0;"">Is there a person in this image?</p>
                    </div>
                </div>","1","main_experiment_trial","8","visiting_cities_semantic","semantic_sequence","randomized","","","","",""
"","","","","","html-keyboard-response","84","219895","0.0-84.0","61A13B482CA74777A9B903EA74B0E610","019cf9a9-1c41-7c2d-b56c-61b4dba540c7","019cf974-7aee-7bc9-8ea4-9f55741b365d","","null","
                <div class=""stimulus-container"">
                    <img src=""images/semantic_sequence/visiting_cities_semantic/visiting_cities_semantic_9.png"" class=""exp-image"">
                    <div class=""question-area""></div> 
                </div>","null","","","","","","","","","",""
"","","","","","html-button-response","85","220923","0.0-85.0","61A13B482CA74777A9B903EA74B0E610","019cf9a9-1c41-7c2d-b56c-61b4dba540c7","019cf974-7aee-7bc9-8ea4-9f55741b365d","","1026","
                <div class=""stimulus-container"">
                    <img src=""images/semantic_sequence/visiting_cities_semantic/visiting_cities_semantic_9.png"" class=""exp-image"">
                    <div class=""question-area"">
                        <p style=""font-size: 20px; font-weight: bold; margin: 0;"">Is there a person in this image?</p>
                    </div>
                </div>","1","main_experiment_trial","9","visiting_cities_semantic","semantic_sequence","randomized","","","","",""
"","","","","","html-keyboard-response","86","221932","0.0-86.0","61A13B482CA74777A9B903EA74B0E610","019cf9a9-1c41-7c2d-b56c-61b4dba540c7","019cf974-7aee-7bc9-8ea4-9f55741b365d","","null","
                <div class=""stimulus-container"">
                    <img src=""images/semantic_sequence/visiting_cities_semantic/visiting_cities_semantic_6.png"" class=""exp-image"">
                    <div class=""question-area""></div> 
                </div>","null","","","","","","","","","",""
"","","","","","html-button-response","87","222779","0.0-87.0","61A13B482CA74777A9B903EA74B0E610","019cf9a9-1c41-7c2d-b56c-61b4dba540c7","019cf974-7aee-7bc9-8ea4-9f55741b365d","","845","
                <div class=""stimulus-container"">
                    <img src=""images/semantic_sequence/visiting_cities_semantic/visiting_cities_semantic_6.png"" class=""exp-image"">
                    <div class=""question-area"">
                        <p style=""font-size: 20px; font-weight: bold; margin: 0;"">Is there a person in this image?</p>
                    </div>
                </div>","1","main_experiment_trial","6","visiting_cities_semantic","semantic_sequence","randomized","","","","",""
"","","","","","html-keyboard-response","88","223782","0.0-88.0","61A13B482CA74777A9B903EA74B0E610","019cf9a9-1c41-7c2d-b56c-61b4dba540c7","019cf974-7aee-7bc9-8ea4-9f55741b365d","","null","
                <div class=""stimulus-container"">
                    <img src=""images/semantic_sequence/visiting_cities_semantic/visiting_cities_semantic_5.png"" class=""exp-image"">
                    <div class=""question-area""></div> 
                </div>","null","","","","","","","","","",""
"","","","","","html-button-response","89","225173","0.0-89.0","61A13B482CA74777A9B903EA74B0E610","019cf9a9-1c41-7c2d-b56c-61b4dba540c7","019cf974-7aee-7bc9-8ea4-9f55741b365d","","1390","
                <div class=""stimulus-container"">
                    <img src=""images/semantic_sequence/visiting_cities_semantic/visiting_cities_semantic_5.png"" class=""exp-image"">
                    <div class=""question-area"">
                        <p style=""font-size: 20px; font-weight: bold; margin: 0;"">Is there a person in this image?</p>
                    </div>
                </div>","1","main_experiment_trial","5","visiting_cities_semantic","semantic_sequence","randomized","","","","",""
"","","","","","html-keyboard-response","90","226191","0.0-90.0","61A13B482CA74777A9B903EA74B0E610","019cf9a9-1c41-7c2d-b56c-61b4dba540c7","019cf974-7aee-7bc9-8ea4-9f55741b365d","","null","
                <div class=""stimulus-container"">
                    <img src=""images/semantic_sequence/visiting_cities_semantic/visiting_cities_semantic_2.png"" class=""exp-image"">
                    <div class=""question-area""></div> 
                </div>","null","","","","","","","","","",""
"","","","","","html-button-response","91","227158","0.0-91.0","61A13B482CA74777A9B903EA74B0E610","019cf9a9-1c41-7c2d-b56c-61b4dba540c7","019cf974-7aee-7bc9-8ea4-9f55741b365d","","966","
                <div class=""stimulus-container"">
                    <img src=""images/semantic_sequence/visiting_cities_semantic/visiting_cities_semantic_2.png"" class=""exp-image"">
                    <div class=""question-area"">
                        <p style=""font-size: 20px; font-weight: bold; margin: 0;"">Is there a person in this image?</p>
                    </div>
                </div>","1","main_experiment_trial","2","visiting_cities_semantic","semantic_sequence","randomized","","","","",""
"","","","","","html-keyboard-response","92","228175","0.0-92.0","61A13B482CA74777A9B903EA74B0E610","019cf9a9-1c41-7c2d-b56c-61b4dba540c7","019cf974-7aee-7bc9-8ea4-9f55741b365d","","null","
                <div class=""stimulus-container"">
                    <img src=""images/semantic_sequence/visiting_cities_semantic/visiting_cities_semantic_4.png"" class=""exp-image"">
                    <div class=""question-area""></div> 
                </div>","null","","","","","","","","","",""
"","","","","","html-button-response","93","229076","0.0-93.0","61A13B482CA74777A9B903EA74B0E610","019cf9a9-1c41-7c2d-b56c-61b4dba540c7","019cf974-7aee-7bc9-8ea4-9f55741b365d","","900","
                <div class=""stimulus-container"">
                    <img src=""images/semantic_sequence/visiting_cities_semantic/visiting_cities_semantic_4.png"" class=""exp-image"">
                    <div class=""question-area"">
                        <p style=""font-size: 20px; font-weight: bold; margin: 0;"">Is there a person in this image?</p>
                    </div>
                </div>","1","main_experiment_trial","4","visiting_cities_semantic","semantic_sequence","randomized","","","","",""
"","","","","","html-keyboard-response","94","230082","0.0-94.0","61A13B482CA74777A9B903EA74B0E610","019cf9a9-1c41-7c2d-b56c-61b4dba540c7","019cf974-7aee-7bc9-8ea4-9f55741b365d","","null","
                <div class=""stimulus-container"">
                    <img src=""images/semantic_sequence/visiting_cities_semantic/visiting_cities_semantic_1.png"" class=""exp-image"">
                    <div class=""question-area""></div> 
                </div>","null","","","","","","","","","",""
"","","","","","html-button-response","95","231029","0.0-95.0","61A13B482CA74777A9B903EA74B0E610","019cf9a9-1c41-7c2d-b56c-61b4dba540c7","019cf974-7aee-7bc9-8ea4-9f55741b365d","","945","
                <div class=""stimulus-container"">
                    <img src=""images/semantic_sequence/visiting_cities_semantic/visiting_cities_semantic_1.png"" class=""exp-image"">
                    <div class=""question-area"">
                        <p style=""font-size: 20px; font-weight: bold; margin: 0;"">Is there a person in this image?</p>
                    </div>
                </div>","0","main_experiment_trial","1","visiting_cities_semantic","semantic_sequence","randomized","","","","",""
"","","","","","html-keyboard-response","96","232035","0.0-96.0","61A13B482CA74777A9B903EA74B0E610","019cf9a9-1c41-7c2d-b56c-61b4dba540c7","019cf974-7aee-7bc9-8ea4-9f55741b365d","","null","
                <div class=""stimulus-container"">
                    <img src=""images/semantic_sequence/visiting_cities_semantic/visiting_cities_semantic_3.png"" class=""exp-image"">
                    <div class=""question-area""></div> 
                </div>","null","","","","","","","","","",""
"","","","","","html-button-response","97","233127","0.0-97.0","61A13B482CA74777A9B903EA74B0E610","019cf9a9-1c41-7c2d-b56c-61b4dba540c7","019cf974-7aee-7bc9-8ea4-9f55741b365d","","1090","
                <div class=""stimulus-container"">
                    <img src=""images/semantic_sequence/visiting_cities_semantic/visiting_cities_semantic_3.png"" class=""exp-image"">
                    <div class=""question-area"">
                        <p style=""font-size: 20px; font-weight: bold; margin: 0;"">Is there a person in this image?</p>
                    </div>
                </div>","1","main_experiment_trial","3","visiting_cities_semantic","semantic_sequence","randomized","","","","",""
"","","","","","html-keyboard-response","98","234140","0.0-98.0","61A13B482CA74777A9B903EA74B0E610","019cf9a9-1c41-7c2d-b56c-61b4dba540c7","019cf974-7aee-7bc9-8ea4-9f55741b365d","","null","
                <div class=""stimulus-container"">
                    <img src=""images/semantic_sequence/visiting_cities_semantic/visiting_cities_semantic_ten.png"" class=""exp-image"">
                    <div class=""question-area""></div> 
                </div>","null","","","","","","","","","",""
"","","","","","html-button-response","99","234905","0.0-99.0","61A13B482CA74777A9B903EA74B0E610","019cf9a9-1c41-7c2d-b56c-61b4dba540c7","019cf974-7aee-7bc9-8ea4-9f55741b365d","","763","
                <div class=""stimulus-container"">
                    <img src=""images/semantic_sequence/visiting_cities_semantic/visiting_cities_semantic_ten.png"" class=""exp-image"">
                    <div class=""question-area"">
                        <p style=""font-size: 20px; font-weight: bold; margin: 0;"">Is there a person in this image?</p>
                    </div>
                </div>","1","main_experiment_trial","ten","visiting_cities_semantic","semantic_sequence","randomized","","","","",""
"","","","","","html-keyboard-response","100","239915","0.0-100.0","61A13B482CA74777A9B903EA74B0E610","019cf9a9-1c41-7c2d-b56c-61b4dba540c7","019cf974-7aee-7bc9-8ea4-9f55741b365d","","null","<div style=""background-color: white; width: 100vw; height: 100vh;""></div>","null","","","","","","","","","",""
"","","","","","html-keyboard-response","101","240919","0.0-101.0","61A13B482CA74777A9B903EA74B0E610","019cf9a9-1c41-7c2d-b56c-61b4dba540c7","019cf974-7aee-7bc9-8ea4-9f55741b365d","","null","
                <div class=""stimulus-container"">
                    <img src=""images/semantic_sequence/using_technology_semantic/using_technology_semantic_3.png"" class=""exp-image"">
                    <div class=""question-area""></div> 
                </div>","null","","","","","","","","","",""
"","","","","","html-button-response","102","242355","0.0-102.0","61A13B482CA74777A9B903EA74B0E610","019cf9a9-1c41-7c2d-b56c-61b4dba540c7","019cf974-7aee-7bc9-8ea4-9f55741b365d","","1435","
                <div class=""stimulus-container"">
                    <img src=""images/semantic_sequence/using_technology_semantic/using_technology_semantic_3.png"" class=""exp-image"">
                    <div class=""question-area"">
                        <p style=""font-size: 20px; font-weight: bold; margin: 0;"">Is there a person in this image?</p>
                    </div>
                </div>","0","main_experiment_trial","3","using_technology_semantic","semantic_sequence","randomized","","","","",""
"","","","","","html-keyboard-response","103","243366","0.0-103.0","61A13B482CA74777A9B903EA74B0E610","019cf9a9-1c41-7c2d-b56c-61b4dba540c7","019cf974-7aee-7bc9-8ea4-9f55741b365d","","null","
                <div class=""stimulus-container"">
                    <img src=""images/semantic_sequence/using_technology_semantic/using_technology_semantic_6.png"" class=""exp-image"">
                    <div class=""question-area""></div> 
                </div>","null","","","","","","","","","",""
"","","","","","html-button-response","104","244204","0.0-104.0","61A13B482CA74777A9B903EA74B0E610","019cf9a9-1c41-7c2d-b56c-61b4dba540c7","019cf974-7aee-7bc9-8ea4-9f55741b365d","","837","
                <div class=""stimulus-container"">
                    <img src=""images/semantic_sequence/using_technology_semantic/using_technology_semantic_6.png"" class=""exp-image"">
                    <div class=""question-area"">
                        <p style=""font-size: 20px; font-weight: bold; margin: 0;"">Is there a person in this image?</p>
                    </div>
                </div>","0","main_experiment_trial","6","using_technology_semantic","semantic_sequence","randomized","","","","",""
"","","","","","html-keyboard-response","105","245216","0.0-105.0","61A13B482CA74777A9B903EA74B0E610","019cf9a9-1c41-7c2d-b56c-61b4dba540c7","019cf974-7aee-7bc9-8ea4-9f55741b365d","","null","
                <div class=""stimulus-container"">
                    <img src=""images/semantic_sequence/using_technology_semantic/using_technology_semantic_1.png"" class=""exp-image"">
                    <div class=""question-area""></div> 
                </div>","null","","","","","","","","","",""
"","","","","","html-button-response","106","246041","0.0-106.0","61A13B482CA74777A9B903EA74B0E610","019cf9a9-1c41-7c2d-b56c-61b4dba540c7","019cf974-7aee-7bc9-8ea4-9f55741b365d","","824","
                <div class=""stimulus-container"">
                    <img src=""images/semantic_sequence/using_technology_semantic/using_technology_semantic_1.png"" class=""exp-image"">
                    <div class=""question-area"">
                        <p style=""font-size: 20px; font-weight: bold; margin: 0;"">Is there a person in this image?</p>
                    </div>
                </div>","0","main_experiment_trial","1","using_technology_semantic","semantic_sequence","randomized","","","","",""
"","","","","","html-keyboard-response","107","247047","0.0-107.0","61A13B482CA74777A9B903EA74B0E610","019cf9a9-1c41-7c2d-b56c-61b4dba540c7","019cf974-7aee-7bc9-8ea4-9f55741b365d","","null","
                <div class=""stimulus-container"">
                    <img src=""images/semantic_sequence/using_technology_semantic/using_technology_semantic_5.png"" class=""exp-image"">
                    <div class=""question-area""></div> 
                </div>","null","","","","","","","","","",""
"","","","","","html-button-response","108","247860","0.0-108.0","61A13B482CA74777A9B903EA74B0E610","019cf9a9-1c41-7c2d-b56c-61b4dba540c7","019cf974-7aee-7bc9-8ea4-9f55741b365d","","812","
                <div class=""stimulus-container"">
                    <img src=""images/semantic_sequence/using_technology_semantic/using_technology_semantic_5.png"" class=""exp-image"">
                    <div class=""question-area"">
                        <p style=""font-size: 20px; font-weight: bold; margin: 0;"">Is there a person in this image?</p>
                    </div>
                </div>","0","main_experiment_trial","5","using_technology_semantic","semantic_sequence","randomized","","","","",""
"","","","","","html-keyboard-response","109","248865","0.0-109.0","61A13B482CA74777A9B903EA74B0E610","019cf9a9-1c41-7c2d-b56c-61b4dba540c7","019cf974-7aee-7bc9-8ea4-9f55741b365d","","null","
                <div class=""stimulus-container"">
                    <img src=""images/semantic_sequence/using_technology_semantic/using_technology_semantic_ten.png"" class=""exp-image"">
                    <div class=""question-area""></div> 
                </div>","null","","","","","","","","","",""
"","","","","","html-button-response","110","249671","0.0-110.0","61A13B482CA74777A9B903EA74B0E610","019cf9a9-1c41-7c2d-b56c-61b4dba540c7","019cf974-7aee-7bc9-8ea4-9f55741b365d","","805","
                <div class=""stimulus-container"">
                    <img src=""images/semantic_sequence/using_technology_semantic/using_technology_semantic_ten.png"" class=""exp-image"">
                    <div class=""question-area"">
                        <p style=""font-size: 20px; font-weight: bold; margin: 0;"">Is there a person in this image?</p>
                    </div>
                </div>","0","main_experiment_trial","ten","using_technology_semantic","semantic_sequence","randomized","","","","",""
"","","","","","html-keyboard-response","111","250678","0.0-111.0","61A13B482CA74777A9B903EA74B0E610","019cf9a9-1c41-7c2d-b56c-61b4dba540c7","019cf974-7aee-7bc9-8ea4-9f55741b365d","","null","
                <div class=""stimulus-container"">
                    <img src=""images/semantic_sequence/using_technology_semantic/using_technology_semantic_4.png"" class=""exp-image"">
                    <div class=""question-area""></div> 
                </div>","null","","","","","","","","","",""
"","","","","","html-button-response","112","251554","0.0-112.0","61A13B482CA74777A9B903EA74B0E610","019cf9a9-1c41-7c2d-b56c-61b4dba540c7","019cf974-7aee-7bc9-8ea4-9f55741b365d","","875","
                <div class=""stimulus-container"">
                    <img src=""images/semantic_sequence/using_technology_semantic/using_technology_semantic_4.png"" class=""exp-image"">
                    <div class=""question-area"">
                        <p style=""font-size: 20px; font-weight: bold; margin: 0;"">Is there a person in this image?</p>
                    </div>
                </div>","0","main_experiment_trial","4","using_technology_semantic","semantic_sequence","randomized","","","","",""
"","","","","","html-keyboard-response","113","252573","0.0-113.0","61A13B482CA74777A9B903EA74B0E610","019cf9a9-1c41-7c2d-b56c-61b4dba540c7","019cf974-7aee-7bc9-8ea4-9f55741b365d","","null","
                <div class=""stimulus-container"">
                    <img src=""images/semantic_sequence/using_technology_semantic/using_technology_semantic_8.png"" class=""exp-image"">
                    <div class=""question-area""></div> 
                </div>","null","","","","","","","","","",""
"","","","","","html-button-response","114","253405","0.0-114.0","61A13B482CA74777A9B903EA74B0E610","019cf9a9-1c41-7c2d-b56c-61b4dba540c7","019cf974-7aee-7bc9-8ea4-9f55741b365d","","831","
                <div class=""stimulus-container"">
                    <img src=""images/semantic_sequence/using_technology_semantic/using_technology_semantic_8.png"" class=""exp-image"">
                    <div class=""question-area"">
                        <p style=""font-size: 20px; font-weight: bold; margin: 0;"">Is there a person in this image?</p>
                    </div>
                </div>","0","main_experiment_trial","8","using_technology_semantic","semantic_sequence","randomized","","","","",""
"","","","","","html-keyboard-response","115","254412","0.0-115.0","61A13B482CA74777A9B903EA74B0E610","019cf9a9-1c41-7c2d-b56c-61b4dba540c7","019cf974-7aee-7bc9-8ea4-9f55741b365d","","null","
                <div class=""stimulus-container"">
                    <img src=""images/semantic_sequence/using_technology_semantic/using_technology_semantic_9.png"" class=""exp-image"">
                    <div class=""question-area""></div> 
                </div>","null","","","","","","","","","",""
"","","","","","html-button-response","116","255255","0.0-116.0","61A13B482CA74777A9B903EA74B0E610","019cf9a9-1c41-7c2d-b56c-61b4dba540c7","019cf974-7aee-7bc9-8ea4-9f55741b365d","","841","
                <div class=""stimulus-container"">
                    <img src=""images/semantic_sequence/using_technology_semantic/using_technology_semantic_9.png"" class=""exp-image"">
                    <div class=""question-area"">
                        <p style=""font-size: 20px; font-weight: bold; margin: 0;"">Is there a person in this image?</p>
                    </div>
                </div>","0","main_experiment_trial","9","using_technology_semantic","semantic_sequence","randomized","","","","",""
"","","","","","html-keyboard-response","117","256262","0.0-117.0","61A13B482CA74777A9B903EA74B0E610","019cf9a9-1c41-7c2d-b56c-61b4dba540c7","019cf974-7aee-7bc9-8ea4-9f55741b365d","","null","
                <div class=""stimulus-container"">
                    <img src=""images/semantic_sequence/using_technology_semantic/using_technology_semantic_7.png"" class=""exp-image"">
                    <div class=""question-area""></div> 
                </div>","null","","","","","","","","","",""
"","","","","","html-button-response","118","257150","0.0-118.0","61A13B482CA74777A9B903EA74B0E610","019cf9a9-1c41-7c2d-b56c-61b4dba540c7","019cf974-7aee-7bc9-8ea4-9f55741b365d","","887","
                <div class=""stimulus-container"">
                    <img src=""images/semantic_sequence/using_technology_semantic/using_technology_semantic_7.png"" class=""exp-image"">
                    <div class=""question-area"">
                        <p style=""font-size: 20px; font-weight: bold; margin: 0;"">Is there a person in this image?</p>
                    </div>
                </div>","0","main_experiment_trial","7","using_technology_semantic","semantic_sequence","randomized","","","","",""
"","","","","","html-keyboard-response","119","258155","0.0-119.0","61A13B482CA74777A9B903EA74B0E610","019cf9a9-1c41-7c2d-b56c-61b4dba540c7","019cf974-7aee-7bc9-8ea4-9f55741b365d","","null","
                <div class=""stimulus-container"">
                    <img src=""images/semantic_sequence/using_technology_semantic/using_technology_semantic_2.png"" class=""exp-image"">
                    <div class=""question-area""></div> 
                </div>","null","","","","","","","","","",""
"","","","","","html-button-response","120","258990","0.0-120.0","61A13B482CA74777A9B903EA74B0E610","019cf9a9-1c41-7c2d-b56c-61b4dba540c7","019cf974-7aee-7bc9-8ea4-9f55741b365d","","834","
                <div class=""stimulus-container"">
                    <img src=""images/semantic_sequence/using_technology_semantic/using_technology_semantic_2.png"" class=""exp-image"">
                    <div class=""question-area"">
                        <p style=""font-size: 20px; font-weight: bold; margin: 0;"">Is there a person in this image?</p>
                    </div>
                </div>","0","main_experiment_trial","2","using_technology_semantic","semantic_sequence","randomized","","","","",""
"","","","","","html-keyboard-response","121","264001","0.0-121.0","61A13B482CA74777A9B903EA74B0E610","019cf9a9-1c41-7c2d-b56c-61b4dba540c7","019cf974-7aee-7bc9-8ea4-9f55741b365d","","null","<div style=""background-color: white; width: 100vw; height: 100vh;""></div>","null","","","","","","","","","",""
"","","","","","html-keyboard-response","122","265006","0.0-122.0","61A13B482CA74777A9B903EA74B0E610","019cf9a9-1c41-7c2d-b56c-61b4dba540c7","019cf974-7aee-7bc9-8ea4-9f55741b365d","","null","
                <div class=""stimulus-container"">
                    <img src=""images/causal_sequence/coin_causal/coin_causal_1.png"" class=""exp-image"">
                    <div class=""question-area""></div> 
                </div>","null","","","","","","","","","",""
"","","","","","html-button-response","123","266871","0.0-123.0","61A13B482CA74777A9B903EA74B0E610","019cf9a9-1c41-7c2d-b56c-61b4dba540c7","019cf974-7aee-7bc9-8ea4-9f55741b365d","","1865","
                <div class=""stimulus-container"">
                    <img src=""images/causal_sequence/coin_causal/coin_causal_1.png"" class=""exp-image"">
                    <div class=""question-area"">
                        <p style=""font-size: 20px; font-weight: bold; margin: 0;"">Is there a person in this image?</p>
                    </div>
                </div>","0","main_experiment_trial","1","coin_causal","causal_sequence","randomized","","","","",""
"","","","","","html-keyboard-response","124","267877","0.0-124.0","61A13B482CA74777A9B903EA74B0E610","019cf9a9-1c41-7c2d-b56c-61b4dba540c7","019cf974-7aee-7bc9-8ea4-9f55741b365d","","null","
                <div class=""stimulus-container"">
                    <img src=""images/causal_sequence/coin_causal/coin_causal_4.png"" class=""exp-image"">
                    <div class=""question-area""></div> 
                </div>","null","","","","","","","","","",""
"","","","","","html-button-response","125","268603","0.0-125.0","61A13B482CA74777A9B903EA74B0E610","019cf9a9-1c41-7c2d-b56c-61b4dba540c7","019cf974-7aee-7bc9-8ea4-9f55741b365d","","725","
                <div class=""stimulus-container"">
                    <img src=""images/causal_sequence/coin_causal/coin_causal_4.png"" class=""exp-image"">
                    <div class=""question-area"">
                        <p style=""font-size: 20px; font-weight: bold; margin: 0;"">Is there a person in this image?</p>
                    </div>
                </div>","0","main_experiment_trial","4","coin_causal","causal_sequence","randomized","","","","",""
"","","","","","html-keyboard-response","126","269619","0.0-126.0","61A13B482CA74777A9B903EA74B0E610","019cf9a9-1c41-7c2d-b56c-61b4dba540c7","019cf974-7aee-7bc9-8ea4-9f55741b365d","","null","
                <div class=""stimulus-container"">
                    <img src=""images/causal_sequence/coin_causal/coin_causal_3.png"" class=""exp-image"">
                    <div class=""question-area""></div> 
                </div>","null","","","","","","","","","",""
"","","","","","html-button-response","127","270439","0.0-127.0","61A13B482CA74777A9B903EA74B0E610","019cf9a9-1c41-7c2d-b56c-61b4dba540c7","019cf974-7aee-7bc9-8ea4-9f55741b365d","","819","
                <div class=""stimulus-container"">
                    <img src=""images/causal_sequence/coin_causal/coin_causal_3.png"" class=""exp-image"">
                    <div class=""question-area"">
                        <p style=""font-size: 20px; font-weight: bold; margin: 0;"">Is there a person in this image?</p>
                    </div>
                </div>","0","main_experiment_trial","3","coin_causal","causal_sequence","randomized","","","","",""
"","","","","","html-keyboard-response","128","271451","0.0-128.0","61A13B482CA74777A9B903EA74B0E610","019cf9a9-1c41-7c2d-b56c-61b4dba540c7","019cf974-7aee-7bc9-8ea4-9f55741b365d","","null","
                <div class=""stimulus-container"">
                    <img src=""images/causal_sequence/coin_causal/coin_causal_2.png"" class=""exp-image"">
                    <div class=""question-area""></div> 
                </div>","null","","","","","","","","","",""
"","","","","","html-button-response","129","272243","0.0-129.0","61A13B482CA74777A9B903EA74B0E610","019cf9a9-1c41-7c2d-b56c-61b4dba540c7","019cf974-7aee-7bc9-8ea4-9f55741b365d","","790","
                <div class=""stimulus-container"">
                    <img src=""images/causal_sequence/coin_causal/coin_causal_2.png"" class=""exp-image"">
                    <div class=""question-area"">
                        <p style=""font-size: 20px; font-weight: bold; margin: 0;"">Is there a person in this image?</p>
                    </div>
                </div>","0","main_experiment_trial","2","coin_causal","causal_sequence","randomized","","","","",""
"","","","","","html-keyboard-response","130","273244","0.0-130.0","61A13B482CA74777A9B903EA74B0E610","019cf9a9-1c41-7c2d-b56c-61b4dba540c7","019cf974-7aee-7bc9-8ea4-9f55741b365d","","null","
                <div class=""stimulus-container"">
                    <img src=""images/causal_sequence/coin_causal/coin_causal_7.png"" class=""exp-image"">
                    <div class=""question-area""></div> 
                </div>","null","","","","","","","","","",""
"","","","","","html-button-response","131","274091","0.0-131.0","61A13B482CA74777A9B903EA74B0E610","019cf9a9-1c41-7c2d-b56c-61b4dba540c7","019cf974-7aee-7bc9-8ea4-9f55741b365d","","846","
                <div class=""stimulus-container"">
                    <img src=""images/causal_sequence/coin_causal/coin_causal_7.png"" class=""exp-image"">
                    <div class=""question-area"">
                        <p style=""font-size: 20px; font-weight: bold; margin: 0;"">Is there a person in this image?</p>
                    </div>
                </div>","1","main_experiment_trial","7","coin_causal","causal_sequence","randomized","","","","",""
"","","","","","html-keyboard-response","132","275097","0.0-132.0","61A13B482CA74777A9B903EA74B0E610","019cf9a9-1c41-7c2d-b56c-61b4dba540c7","019cf974-7aee-7bc9-8ea4-9f55741b365d","","null","
                <div class=""stimulus-container"">
                    <img src=""images/causal_sequence/coin_causal/coin_causal_ten.png"" class=""exp-image"">
                    <div class=""question-area""></div> 
                </div>","null","","","","","","","","","",""
"","","","","","html-button-response","133","275871","0.0-133.0","61A13B482CA74777A9B903EA74B0E610","019cf9a9-1c41-7c2d-b56c-61b4dba540c7","019cf974-7aee-7bc9-8ea4-9f55741b365d","","773","
                <div class=""stimulus-container"">
                    <img src=""images/causal_sequence/coin_causal/coin_causal_ten.png"" class=""exp-image"">
                    <div class=""question-area"">
                        <p style=""font-size: 20px; font-weight: bold; margin: 0;"">Is there a person in this image?</p>
                    </div>
                </div>","0","main_experiment_trial","ten","coin_causal","causal_sequence","randomized","","","","",""
"","","","","","html-keyboard-response","134","276884","0.0-134.0","61A13B482CA74777A9B903EA74B0E610","019cf9a9-1c41-7c2d-b56c-61b4dba540c7","019cf974-7aee-7bc9-8ea4-9f55741b365d","","null","
                <div class=""stimulus-container"">
                    <img src=""images/causal_sequence/coin_causal/coin_causal_8.png"" class=""exp-image"">
                    <div class=""question-area""></div> 
                </div>","null","","","","","","","","","",""
"","","","","","html-button-response","135","277622","0.0-135.0","61A13B482CA74777A9B903EA74B0E610","019cf9a9-1c41-7c2d-b56c-61b4dba540c7","019cf974-7aee-7bc9-8ea4-9f55741b365d","","737","
                <div class=""stimulus-container"">
                    <img src=""images/causal_sequence/coin_causal/coin_causal_8.png"" class=""exp-image"">
                    <div class=""question-area"">
                        <p style=""font-size: 20px; font-weight: bold; margin: 0;"">Is there a person in this image?</p>
                    </div>
                </div>","0","main_experiment_trial","8","coin_causal","causal_sequence","randomized","","","","",""
"","","","","","html-keyboard-response","136","278625","0.0-136.0","61A13B482CA74777A9B903EA74B0E610","019cf9a9-1c41-7c2d-b56c-61b4dba540c7","019cf974-7aee-7bc9-8ea4-9f55741b365d","","null","
                <div class=""stimulus-container"">
                    <img src=""images/causal_sequence/coin_causal/coin_causal_6.png"" class=""exp-image"">
                    <div class=""question-area""></div> 
                </div>","null","","","","","","","","","",""
"","","","","","html-button-response","137","279409","0.0-137.0","61A13B482CA74777A9B903EA74B0E610","019cf9a9-1c41-7c2d-b56c-61b4dba540c7","019cf974-7aee-7bc9-8ea4-9f55741b365d","","783","
                <div class=""stimulus-container"">
                    <img src=""images/causal_sequence/coin_causal/coin_causal_6.png"" class=""exp-image"">
                    <div class=""question-area"">
                        <p style=""font-size: 20px; font-weight: bold; margin: 0;"">Is there a person in this image?</p>
                    </div>
                </div>","0","main_experiment_trial","6","coin_causal","causal_sequence","randomized","","","","",""
"","","","","","html-keyboard-response","138","280425","0.0-138.0","61A13B482CA74777A9B903EA74B0E610","019cf9a9-1c41-7c2d-b56c-61b4dba540c7","019cf974-7aee-7bc9-8ea4-9f55741b365d","","null","
                <div class=""stimulus-container"">
                    <img src=""images/causal_sequence/coin_causal/coin_causal_5.png"" class=""exp-image"">
                    <div class=""question-area""></div> 
                </div>","null","","","","","","","","","",""
"","","","","","html-button-response","139","281227","0.0-139.0","61A13B482CA74777A9B903EA74B0E610","019cf9a9-1c41-7c2d-b56c-61b4dba540c7","019cf974-7aee-7bc9-8ea4-9f55741b365d","","801","
                <div class=""stimulus-container"">
                    <img src=""images/causal_sequence/coin_causal/coin_causal_5.png"" class=""exp-image"">
                    <div class=""question-area"">
                        <p style=""font-size: 20px; font-weight: bold; margin: 0;"">Is there a person in this image?</p>
                    </div>
                </div>","0","main_experiment_trial","5","coin_causal","causal_sequence","randomized","","","","",""
"","","","","","html-keyboard-response","140","282232","0.0-140.0","61A13B482CA74777A9B903EA74B0E610","019cf9a9-1c41-7c2d-b56c-61b4dba540c7","019cf974-7aee-7bc9-8ea4-9f55741b365d","","null","
                <div class=""stimulus-container"">
                    <img src=""images/causal_sequence/coin_causal/coin_causal_9.png"" class=""exp-image"">
                    <div class=""question-area""></div> 
                </div>","null","","","","","","","","","",""
"","","","","","html-button-response","141","283034","0.0-141.0","61A13B482CA74777A9B903EA74B0E610","019cf9a9-1c41-7c2d-b56c-61b4dba540c7","019cf974-7aee-7bc9-8ea4-9f55741b365d","","802","
                <div class=""stimulus-container"">
                    <img src=""images/causal_sequence/coin_causal/coin_causal_9.png"" class=""exp-image"">
                    <div class=""question-area"">
                        <p style=""font-size: 20px; font-weight: bold; margin: 0;"">Is there a person in this image?</p>
                    </div>
                </div>","0","main_experiment_trial","9","coin_causal","causal_sequence","randomized","","","","",""
"","","","","","html-keyboard-response","142","288043","0.0-142.0","61A13B482CA74777A9B903EA74B0E610","019cf9a9-1c41-7c2d-b56c-61b4dba540c7","019cf974-7aee-7bc9-8ea4-9f55741b365d","","null","<div style=""background-color: white; width: 100vw; height: 100vh;""></div>","null","","","","","","","","","",""
"","","","","","html-keyboard-response","143","289044","0.0-143.0","61A13B482CA74777A9B903EA74B0E610","019cf9a9-1c41-7c2d-b56c-61b4dba540c7","019cf974-7aee-7bc9-8ea4-9f55741b365d","","null","
                <div class=""stimulus-container"">
                    <img src=""images/causal_sequence/the_performance_causal/the_performance_causal_1.png"" class=""exp-image"">
                    <div class=""question-area""></div> 
                </div>","null","","","","","","","","","",""
"","","","","","html-button-response","144","290026","0.0-144.0","61A13B482CA74777A9B903EA74B0E610","019cf9a9-1c41-7c2d-b56c-61b4dba540c7","019cf974-7aee-7bc9-8ea4-9f55741b365d","","980","
                <div class=""stimulus-container"">
                    <img src=""images/causal_sequence/the_performance_causal/the_performance_causal_1.png"" class=""exp-image"">
                    <div class=""question-area"">
                        <p style=""font-size: 20px; font-weight: bold; margin: 0;"">Is there a person in this image?</p>
                    </div>
                </div>","0","main_experiment_trial","1","the_performance_causal","causal_sequence","randomized","","","","",""
"","","","","","html-keyboard-response","145","291027","0.0-145.0","61A13B482CA74777A9B903EA74B0E610","019cf9a9-1c41-7c2d-b56c-61b4dba540c7","019cf974-7aee-7bc9-8ea4-9f55741b365d","","null","
                <div class=""stimulus-container"">
                    <img src=""images/causal_sequence/the_performance_causal/the_performance_causal_7.png"" class=""exp-image"">
                    <div class=""question-area""></div> 
                </div>","null","","","","","","","","","",""
"","","","","","html-button-response","146","291776","0.0-146.0","61A13B482CA74777A9B903EA74B0E610","019cf9a9-1c41-7c2d-b56c-61b4dba540c7","019cf974-7aee-7bc9-8ea4-9f55741b365d","","748","
                <div class=""stimulus-container"">
                    <img src=""images/causal_sequence/the_performance_causal/the_performance_causal_7.png"" class=""exp-image"">
                    <div class=""question-area"">
                        <p style=""font-size: 20px; font-weight: bold; margin: 0;"">Is there a person in this image?</p>
                    </div>
                </div>","0","main_experiment_trial","7","the_performance_causal","causal_sequence","randomized","","","","",""
"","","","","","html-keyboard-response","147","292794","0.0-147.0","61A13B482CA74777A9B903EA74B0E610","019cf9a9-1c41-7c2d-b56c-61b4dba540c7","019cf974-7aee-7bc9-8ea4-9f55741b365d","","null","
                <div class=""stimulus-container"">
                    <img src=""images/causal_sequence/the_performance_causal/the_performance_causal_5.png"" class=""exp-image"">
                    <div class=""question-area""></div> 
                </div>","null","","","","","","","","","",""
"","","","","","html-button-response","148","293393","0.0-148.0","61A13B482CA74777A9B903EA74B0E610","019cf9a9-1c41-7c2d-b56c-61b4dba540c7","019cf974-7aee-7bc9-8ea4-9f55741b365d","","598","
                <div class=""stimulus-container"">
                    <img src=""images/causal_sequence/the_performance_causal/the_performance_causal_5.png"" class=""exp-image"">
                    <div class=""question-area"">
                        <p style=""font-size: 20px; font-weight: bold; margin: 0;"">Is there a person in this image?</p>
                    </div>
                </div>","0","main_experiment_trial","5","the_performance_causal","causal_sequence","randomized","","","","",""
"","","","","","html-keyboard-response","149","294406","0.0-149.0","61A13B482CA74777A9B903EA74B0E610","019cf9a9-1c41-7c2d-b56c-61b4dba540c7","019cf974-7aee-7bc9-8ea4-9f55741b365d","","null","
                <div class=""stimulus-container"">
                    <img src=""images/causal_sequence/the_performance_causal/the_performance_causal_ten.png"" class=""exp-image"">
                    <div class=""question-area""></div> 
                </div>","null","","","","","","","","","",""
"","","","","","html-button-response","150","295077","0.0-150.0","61A13B482CA74777A9B903EA74B0E610","019cf9a9-1c41-7c2d-b56c-61b4dba540c7","019cf974-7aee-7bc9-8ea4-9f55741b365d","","670","
                <div class=""stimulus-container"">
                    <img src=""images/causal_sequence/the_performance_causal/the_performance_causal_ten.png"" class=""exp-image"">
                    <div class=""question-area"">
                        <p style=""font-size: 20px; font-weight: bold; margin: 0;"">Is there a person in this image?</p>
                    </div>
                </div>","0","main_experiment_trial","ten","the_performance_causal","causal_sequence","randomized","","","","",""
"","","","","","html-keyboard-response","151","296082","0.0-151.0","61A13B482CA74777A9B903EA74B0E610","019cf9a9-1c41-7c2d-b56c-61b4dba540c7","019cf974-7aee-7bc9-8ea4-9f55741b365d","","null","
                <div class=""stimulus-container"">
                    <img src=""images/causal_sequence/the_performance_causal/the_performance_causal_2.png"" class=""exp-image"">
                    <div class=""question-area""></div> 
                </div>","null","","","","","","","","","",""
"","","","","","html-button-response","152","296727","0.0-152.0","61A13B482CA74777A9B903EA74B0E610","019cf9a9-1c41-7c2d-b56c-61b4dba540c7","019cf974-7aee-7bc9-8ea4-9f55741b365d","","643","
                <div class=""stimulus-container"">
                    <img src=""images/causal_sequence/the_performance_causal/the_performance_causal_2.png"" class=""exp-image"">
                    <div class=""question-area"">
                        <p style=""font-size: 20px; font-weight: bold; margin: 0;"">Is there a person in this image?</p>
                    </div>
                </div>","0","main_experiment_trial","2","the_performance_causal","causal_sequence","randomized","","","","",""
"","","","","","html-keyboard-response","153","297744","0.0-153.0","61A13B482CA74777A9B903EA74B0E610","019cf9a9-1c41-7c2d-b56c-61b4dba540c7","019cf974-7aee-7bc9-8ea4-9f55741b365d","","null","
                <div class=""stimulus-container"">
                    <img src=""images/causal_sequence/the_performance_causal/the_performance_causal_8.png"" class=""exp-image"">
                    <div class=""question-area""></div> 
                </div>","null","","","","","","","","","",""
"","","","","","html-button-response","154","298321","0.0-154.0","61A13B482CA74777A9B903EA74B0E610","019cf9a9-1c41-7c2d-b56c-61b4dba540c7","019cf974-7aee-7bc9-8ea4-9f55741b365d","","576","
                <div class=""stimulus-container"">
                    <img src=""images/causal_sequence/the_performance_causal/the_performance_causal_8.png"" class=""exp-image"">
                    <div class=""question-area"">
                        <p style=""font-size: 20px; font-weight: bold; margin: 0;"">Is there a person in this image?</p>
                    </div>
                </div>","0","main_experiment_trial","8","the_performance_causal","causal_sequence","randomized","","","","",""
"","","","","","html-keyboard-response","155","299328","0.0-155.0","61A13B482CA74777A9B903EA74B0E610","019cf9a9-1c41-7c2d-b56c-61b4dba540c7","019cf974-7aee-7bc9-8ea4-9f55741b365d","","null","
                <div class=""stimulus-container"">
                    <img src=""images/causal_sequence/the_performance_causal/the_performance_causal_6.png"" class=""exp-image"">
                    <div class=""question-area""></div> 
                </div>","null","","","","","","","","","",""
"","","","","","html-button-response","156","300060","0.0-156.0","61A13B482CA74777A9B903EA74B0E610","019cf9a9-1c41-7c2d-b56c-61b4dba540c7","019cf974-7aee-7bc9-8ea4-9f55741b365d","","731","
                <div class=""stimulus-container"">
                    <img src=""images/causal_sequence/the_performance_causal/the_performance_causal_6.png"" class=""exp-image"">
                    <div class=""question-area"">
                        <p style=""font-size: 20px; font-weight: bold; margin: 0;"">Is there a person in this image?</p>
                    </div>
                </div>","0","main_experiment_trial","6","the_performance_causal","causal_sequence","randomized","","","","",""
"","","","","","html-keyboard-response","157","301063","0.0-157.0","61A13B482CA74777A9B903EA74B0E610","019cf9a9-1c41-7c2d-b56c-61b4dba540c7","019cf974-7aee-7bc9-8ea4-9f55741b365d","","null","
                <div class=""stimulus-container"">
                    <img src=""images/causal_sequence/the_performance_causal/the_performance_causal_9.png"" class=""exp-image"">
                    <div class=""question-area""></div> 
                </div>","null","","","","","","","","","",""
"","","","","","html-button-response","158","301956","0.0-158.0","61A13B482CA74777A9B903EA74B0E610","019cf9a9-1c41-7c2d-b56c-61b4dba540c7","019cf974-7aee-7bc9-8ea4-9f55741b365d","","892","
                <div class=""stimulus-container"">
                    <img src=""images/causal_sequence/the_performance_causal/the_performance_causal_9.png"" class=""exp-image"">
                    <div class=""question-area"">
                        <p style=""font-size: 20px; font-weight: bold; margin: 0;"">Is there a person in this image?</p>
                    </div>
                </div>","0","main_experiment_trial","9","the_performance_causal","causal_sequence","randomized","","","","",""
"","","","","","html-keyboard-response","159","302977","0.0-159.0","61A13B482CA74777A9B903EA74B0E610","019cf9a9-1c41-7c2d-b56c-61b4dba540c7","019cf974-7aee-7bc9-8ea4-9f55741b365d","","null","
                <div class=""stimulus-container"">
                    <img src=""images/causal_sequence/the_performance_causal/the_performance_causal_3.png"" class=""exp-image"">
                    <div class=""question-area""></div> 
                </div>","null","","","","","","","","","",""
"","","","","","html-button-response","160","303621","0.0-160.0","61A13B482CA74777A9B903EA74B0E610","019cf9a9-1c41-7c2d-b56c-61b4dba540c7","019cf974-7aee-7bc9-8ea4-9f55741b365d","","643","
                <div class=""stimulus-container"">
                    <img src=""images/causal_sequence/the_performance_causal/the_performance_causal_3.png"" class=""exp-image"">
                    <div class=""question-area"">
                        <p style=""font-size: 20px; font-weight: bold; margin: 0;"">Is there a person in this image?</p>
                    </div>
                </div>","0","main_experiment_trial","3","the_performance_causal","causal_sequence","randomized","","","","",""
"","","","","","html-keyboard-response","161","304637","0.0-161.0","61A13B482CA74777A9B903EA74B0E610","019cf9a9-1c41-7c2d-b56c-61b4dba540c7","019cf974-7aee-7bc9-8ea4-9f55741b365d","","null","
                <div class=""stimulus-container"">
                    <img src=""images/causal_sequence/the_performance_causal/the_performance_causal_4.png"" class=""exp-image"">
                    <div class=""question-area""></div> 
                </div>","null","","","","","","","","","",""
"","","","","","html-button-response","162","305393","0.0-162.0","61A13B482CA74777A9B903EA74B0E610","019cf9a9-1c41-7c2d-b56c-61b4dba540c7","019cf974-7aee-7bc9-8ea4-9f55741b365d","","755","
                <div class=""stimulus-container"">
                    <img src=""images/causal_sequence/the_performance_causal/the_performance_causal_4.png"" class=""exp-image"">
                    <div class=""question-area"">
                        <p style=""font-size: 20px; font-weight: bold; margin: 0;"">Is there a person in this image?</p>
                    </div>
                </div>","0","main_experiment_trial","4","the_performance_causal","causal_sequence","randomized","","","","",""
"","","","","","html-keyboard-response","163","310397","0.0-163.0","61A13B482CA74777A9B903EA74B0E610","019cf9a9-1c41-7c2d-b56c-61b4dba540c7","019cf974-7aee-7bc9-8ea4-9f55741b365d","","null","<div style=""background-color: white; width: 100vw; height: 100vh;""></div>","null","","","","","","","","","",""
"","","","","","html-keyboard-response","164","311413","0.0-164.0","61A13B482CA74777A9B903EA74B0E610","019cf9a9-1c41-7c2d-b56c-61b4dba540c7","019cf974-7aee-7bc9-8ea4-9f55741b365d","","null","
                <div class=""stimulus-container"">
                    <img src=""images/semantic_sequence/creative_activities_semantic/creative_activities_semantic_ten.png"" class=""exp-image"">
                    <div class=""question-area""></div> 
                </div>","null","","","","","","","","","",""
"","","","","","html-button-response","165","312260","0.0-165.0","61A13B482CA74777A9B903EA74B0E610","019cf9a9-1c41-7c2d-b56c-61b4dba540c7","019cf974-7aee-7bc9-8ea4-9f55741b365d","","845","
                <div class=""stimulus-container"">
                    <img src=""images/semantic_sequence/creative_activities_semantic/creative_activities_semantic_ten.png"" class=""exp-image"">
                    <div class=""question-area"">
                        <p style=""font-size: 20px; font-weight: bold; margin: 0;"">Is there a person in this image?</p>
                    </div>
                </div>","0","main_experiment_trial","ten","creative_activities_semantic","semantic_sequence","randomized","","","","",""
"","","","","","html-keyboard-response","166","313270","0.0-166.0","61A13B482CA74777A9B903EA74B0E610","019cf9a9-1c41-7c2d-b56c-61b4dba540c7","019cf974-7aee-7bc9-8ea4-9f55741b365d","","null","
                <div class=""stimulus-container"">
                    <img src=""images/semantic_sequence/creative_activities_semantic/creative_activities_semantic_8.png"" class=""exp-image"">
                    <div class=""question-area""></div> 
                </div>","null","","","","","","","","","",""
"","","","","","html-button-response","167","313876","0.0-167.0","61A13B482CA74777A9B903EA74B0E610","019cf9a9-1c41-7c2d-b56c-61b4dba540c7","019cf974-7aee-7bc9-8ea4-9f55741b365d","","605","
                <div class=""stimulus-container"">
                    <img src=""images/semantic_sequence/creative_activities_semantic/creative_activities_semantic_8.png"" class=""exp-image"">
                    <div class=""question-area"">
                        <p style=""font-size: 20px; font-weight: bold; margin: 0;"">Is there a person in this image?</p>
                    </div>
                </div>","0","main_experiment_trial","8","creative_activities_semantic","semantic_sequence","randomized","","","","",""
"","","","","","html-keyboard-response","168","314890","0.0-168.0","61A13B482CA74777A9B903EA74B0E610","019cf9a9-1c41-7c2d-b56c-61b4dba540c7","019cf974-7aee-7bc9-8ea4-9f55741b365d","","null","
                <div class=""stimulus-container"">
                    <img src=""images/semantic_sequence/creative_activities_semantic/creative_activities_semantic_4.png"" class=""exp-image"">
                    <div class=""question-area""></div> 
                </div>","null","","","","","","","","","",""
"","","","","","html-button-response","169","315553","0.0-169.0","61A13B482CA74777A9B903EA74B0E610","019cf9a9-1c41-7c2d-b56c-61b4dba540c7","019cf974-7aee-7bc9-8ea4-9f55741b365d","","661","
                <div class=""stimulus-container"">
                    <img src=""images/semantic_sequence/creative_activities_semantic/creative_activities_semantic_4.png"" class=""exp-image"">
                    <div class=""question-area"">
                        <p style=""font-size: 20px; font-weight: bold; margin: 0;"">Is there a person in this image?</p>
                    </div>
                </div>","0","main_experiment_trial","4","creative_activities_semantic","semantic_sequence","randomized","","","","",""
"","","","","","html-keyboard-response","170","316572","0.0-170.0","61A13B482CA74777A9B903EA74B0E610","019cf9a9-1c41-7c2d-b56c-61b4dba540c7","019cf974-7aee-7bc9-8ea4-9f55741b365d","","null","
                <div class=""stimulus-container"">
                    <img src=""images/semantic_sequence/creative_activities_semantic/creative_activities_semantic_6.png"" class=""exp-image"">
                    <div class=""question-area""></div> 
                </div>","null","","","","","","","","","",""
"","","","","","html-button-response","171","317222","0.0-171.0","61A13B482CA74777A9B903EA74B0E610","019cf9a9-1c41-7c2d-b56c-61b4dba540c7","019cf974-7aee-7bc9-8ea4-9f55741b365d","","649","
                <div class=""stimulus-container"">
                    <img src=""images/semantic_sequence/creative_activities_semantic/creative_activities_semantic_6.png"" class=""exp-image"">
                    <div class=""question-area"">
                        <p style=""font-size: 20px; font-weight: bold; margin: 0;"">Is there a person in this image?</p>
                    </div>
                </div>","0","main_experiment_trial","6","creative_activities_semantic","semantic_sequence","randomized","","","","",""
"","","","","","html-keyboard-response","172","318224","0.0-172.0","61A13B482CA74777A9B903EA74B0E610","019cf9a9-1c41-7c2d-b56c-61b4dba540c7","019cf974-7aee-7bc9-8ea4-9f55741b365d","","null","
                <div class=""stimulus-container"">
                    <img src=""images/semantic_sequence/creative_activities_semantic/creative_activities_semantic_7.png"" class=""exp-image"">
                    <div class=""question-area""></div> 
                </div>","null","","","","","","","","","",""
"","","","","","html-button-response","173","318487","0.0-173.0","61A13B482CA74777A9B903EA74B0E610","019cf9a9-1c41-7c2d-b56c-61b4dba540c7","019cf974-7aee-7bc9-8ea4-9f55741b365d","","262","
                <div class=""stimulus-container"">
                    <img src=""images/semantic_sequence/creative_activities_semantic/creative_activities_semantic_7.png"" class=""exp-image"">
                    <div class=""question-area"">
                        <p style=""font-size: 20px; font-weight: bold; margin: 0;"">Is there a person in this image?</p>
                    </div>
                </div>","0","main_experiment_trial","7","creative_activities_semantic","semantic_sequence","randomized","","","","",""
"","","","","","html-keyboard-response","174","319490","0.0-174.0","61A13B482CA74777A9B903EA74B0E610","019cf9a9-1c41-7c2d-b56c-61b4dba540c7","019cf974-7aee-7bc9-8ea4-9f55741b365d","","null","
                <div class=""stimulus-container"">
                    <img src=""images/semantic_sequence/creative_activities_semantic/creative_activities_semantic_5.png"" class=""exp-image"">
                    <div class=""question-area""></div> 
                </div>","null","","","","","","","","","",""
"","","","","","html-button-response","175","320090","0.0-175.0","61A13B482CA74777A9B903EA74B0E610","019cf9a9-1c41-7c2d-b56c-61b4dba540c7","019cf974-7aee-7bc9-8ea4-9f55741b365d","","599","
                <div class=""stimulus-container"">
                    <img src=""images/semantic_sequence/creative_activities_semantic/creative_activities_semantic_5.png"" class=""exp-image"">
                    <div class=""question-area"">
                        <p style=""font-size: 20px; font-weight: bold; margin: 0;"">Is there a person in this image?</p>
                    </div>
                </div>","0","main_experiment_trial","5","creative_activities_semantic","semantic_sequence","randomized","","","","",""
"","","","","","html-keyboard-response","176","321095","0.0-176.0","61A13B482CA74777A9B903EA74B0E610","019cf9a9-1c41-7c2d-b56c-61b4dba540c7","019cf974-7aee-7bc9-8ea4-9f55741b365d","","null","
                <div class=""stimulus-container"">
                    <img src=""images/semantic_sequence/creative_activities_semantic/creative_activities_semantic_2.png"" class=""exp-image"">
                    <div class=""question-area""></div> 
                </div>","null","","","","","","","","","",""
"","","","","","html-button-response","177","321945","0.0-177.0","61A13B482CA74777A9B903EA74B0E610","019cf9a9-1c41-7c2d-b56c-61b4dba540c7","019cf974-7aee-7bc9-8ea4-9f55741b365d","","848","
                <div class=""stimulus-container"">
                    <img src=""images/semantic_sequence/creative_activities_semantic/creative_activities_semantic_2.png"" class=""exp-image"">
                    <div class=""question-area"">
                        <p style=""font-size: 20px; font-weight: bold; margin: 0;"">Is there a person in this image?</p>
                    </div>
