"success","timeout","failed_images","failed_audio","failed_video","trial_type","trial_index","time_elapsed","internal_node_id","subject_id","study_id","session_id","view_history","rt","stimulus","response","task","image_index","folder","sequence_type","presentation_order","valuable_image_index","reward_type","correct_choice","distance_from_x","target_X","chosen_image_index","is_x_plus_dist"
"true","false","[]","[]","[]","preload","0","2752","0.0-0.0","76EFAF0D9F6E4CFFB7CB32910BECA832","019dac67-b6c4-7880-9f84-0bcd07fbcd93","019dac5b-243f-7307-af64-a10f53f1ef70","","","","","","","","","","","","","","","",""
"","","","","","instructions","1","6199","0.0-1.0","76EFAF0D9F6E4CFFB7CB32910BECA832","019dac67-b6c4-7880-9f84-0bcd07fbcd93","019dac5b-243f-7307-af64-a10f53f1ef70","[{""page_index"":0,""viewing_time"":3446}]","3447","","","","","","","","","","","","","",""
"","","","","","instructions","2","25902","0.0-2.0","76EFAF0D9F6E4CFFB7CB32910BECA832","019dac67-b6c4-7880-9f84-0bcd07fbcd93","019dac5b-243f-7307-af64-a10f53f1ef70","[{""page_index"":0,""viewing_time"":19702}]","19703","","","","","","","","","","","","","",""
"true","","","","","fullscreen","3","32001","0.0-3.0","76EFAF0D9F6E4CFFB7CB32910BECA832","019dac67-b6c4-7880-9f84-0bcd07fbcd93","019dac5b-243f-7307-af64-a10f53f1ef70","","5088","","","","","","","","","","","","","",""
"","","","","","instructions","4","44572","0.0-4.0","76EFAF0D9F6E4CFFB7CB32910BECA832","019dac67-b6c4-7880-9f84-0bcd07fbcd93","019dac5b-243f-7307-af64-a10f53f1ef70","[{""page_index"":0,""viewing_time"":12570}]","12570","","","","","","","","","","","","","",""
"","","","","","instructions","5","64518","0.0-5.0","76EFAF0D9F6E4CFFB7CB32910BECA832","019dac67-b6c4-7880-9f84-0bcd07fbcd93","019dac5b-243f-7307-af64-a10f53f1ef70","[{""page_index"":0,""viewing_time"":19945}]","19945","","","","","","","","","","","","","",""
"","","","","","html-keyboard-response","6","68529","0.0-6.0","76EFAF0D9F6E4CFFB7CB32910BECA832","019dac67-b6c4-7880-9f84-0bcd07fbcd93","019dac5b-243f-7307-af64-a10f53f1ef70","","null","
                <div class=""stimulus-container"">
                    <img src=""images/instructions/movie_1.png"" class=""exp-image"">
                    <div class=""question-area""></div> 
                </div>","null","","","","","","","","","","","",""
"","","","","","html-button-response","7","70825","0.0-7.0","76EFAF0D9F6E4CFFB7CB32910BECA832","019dac67-b6c4-7880-9f84-0bcd07fbcd93","019dac5b-243f-7307-af64-a10f53f1ef70","","2295","
                <div class=""stimulus-container"">
                    <img src=""images/instructions/movie_1.png"" class=""exp-image"">
                    <div class=""question-area"">
                        <p style=""font-size: 20px; font-weight: bold; margin: 0;"">Was there a person in this image?</p>
                    </div>
                </div>","0","example_question","1","","","","","","","","","",""
"","","","","","html-keyboard-response","8","74830","0.0-8.0","76EFAF0D9F6E4CFFB7CB32910BECA832","019dac67-b6c4-7880-9f84-0bcd07fbcd93","019dac5b-243f-7307-af64-a10f53f1ef70","","null","
                <div class=""stimulus-container"">
                    <img src=""images/instructions/movie_2.png"" class=""exp-image"">
                    <div class=""question-area""></div> 
                </div>","null","","","","","","","","","","","",""
"","","","","","html-button-response","9","76475","0.0-9.0","76EFAF0D9F6E4CFFB7CB32910BECA832","019dac67-b6c4-7880-9f84-0bcd07fbcd93","019dac5b-243f-7307-af64-a10f53f1ef70","","1645","
                <div class=""stimulus-container"">
                    <img src=""images/instructions/movie_2.png"" class=""exp-image"">
                    <div class=""question-area"">
                        <p style=""font-size: 20px; font-weight: bold; margin: 0;"">Was there a person in this image?</p>
                    </div>
                </div>","0","example_question","2","","","","","","","","","",""
"","","","","","html-keyboard-response","10","80481","0.0-10.0","76EFAF0D9F6E4CFFB7CB32910BECA832","019dac67-b6c4-7880-9f84-0bcd07fbcd93","019dac5b-243f-7307-af64-a10f53f1ef70","","null","
                <div class=""stimulus-container"">
                    <img src=""images/instructions/movie_3.png"" class=""exp-image"">
                    <div class=""question-area""></div> 
                </div>","null","","","","","","","","","","","",""
"","","","","","html-button-response","11","81270","0.0-11.0","76EFAF0D9F6E4CFFB7CB32910BECA832","019dac67-b6c4-7880-9f84-0bcd07fbcd93","019dac5b-243f-7307-af64-a10f53f1ef70","","788","
                <div class=""stimulus-container"">
                    <img src=""images/instructions/movie_3.png"" class=""exp-image"">
                    <div class=""question-area"">
                        <p style=""font-size: 20px; font-weight: bold; margin: 0;"">Was there a person in this image?</p>
                    </div>
                </div>","0","example_question","3","","","","","","","","","",""
"","","","","","html-keyboard-response","12","85278","0.0-12.0","76EFAF0D9F6E4CFFB7CB32910BECA832","019dac67-b6c4-7880-9f84-0bcd07fbcd93","019dac5b-243f-7307-af64-a10f53f1ef70","","null","
                <div class=""stimulus-container"">
                    <img src=""images/instructions/movie_4.png"" class=""exp-image"">
                    <div class=""question-area""></div> 
                </div>","null","","","","","","","","","","","",""
"","","","","","html-button-response","13","87071","0.0-13.0","76EFAF0D9F6E4CFFB7CB32910BECA832","019dac67-b6c4-7880-9f84-0bcd07fbcd93","019dac5b-243f-7307-af64-a10f53f1ef70","","1793","
                <div class=""stimulus-container"">
                    <img src=""images/instructions/movie_4.png"" class=""exp-image"">
                    <div class=""question-area"">
                        <p style=""font-size: 20px; font-weight: bold; margin: 0;"">Was there a person in this image?</p>
                    </div>
                </div>","0","example_question","4","","","","","","","","","",""
"","","","","","instructions","14","89188","0.0-14.0","76EFAF0D9F6E4CFFB7CB32910BECA832","019dac67-b6c4-7880-9f84-0bcd07fbcd93","019dac5b-243f-7307-af64-a10f53f1ef70","[{""page_index"":0,""viewing_time"":2116}]","2117","","","","","","","","","","","","","",""
"","","","","","instructions","15","94047","0.0-15.0","76EFAF0D9F6E4CFFB7CB32910BECA832","019dac67-b6c4-7880-9f84-0bcd07fbcd93","019dac5b-243f-7307-af64-a10f53f1ef70","[{""page_index"":0,""viewing_time"":4859}]","4859","","","","","","","","","","","","","",""
"","","","","","html-keyboard-response","16","99062","0.0-16.0","76EFAF0D9F6E4CFFB7CB32910BECA832","019dac67-b6c4-7880-9f84-0bcd07fbcd93","019dac5b-243f-7307-af64-a10f53f1ef70","","null","<div style=""background-color: white; width: 100vw; height: 100vh;""></div>","null","","","","","","","","","","","",""
"","","","","","html-keyboard-response","17","104078","0.0-17.0","76EFAF0D9F6E4CFFB7CB32910BECA832","019dac67-b6c4-7880-9f84-0bcd07fbcd93","019dac5b-243f-7307-af64-a10f53f1ef70","","null","
                <div class=""stimulus-container"">
                    <img src=""images/causal_sequence/saving_a_cat_causal/saving_a_cat_causal_1.png"" class=""exp-image"">
                    <div class=""question-area""></div> 
                </div>","null","","","","","","","","","","","",""
"","","","","","html-button-response","18","106433","0.0-18.0","76EFAF0D9F6E4CFFB7CB32910BECA832","019dac67-b6c4-7880-9f84-0bcd07fbcd93","019dac5b-243f-7307-af64-a10f53f1ef70","","2353","
                <div class=""stimulus-container"">
                    <img src=""images/causal_sequence/saving_a_cat_causal/saving_a_cat_causal_1.png"" class=""exp-image"">
                    <div class=""question-area"">
                        <p style=""font-size: 20px; font-weight: bold; margin: 0;"">Is there a person in this image?</p>
                    </div>
                </div>","0","main_experiment_trial","1","saving_a_cat_causal","causal_sequence","chronological","","","","","","",""
"","","","","","html-keyboard-response","19","111440","0.0-19.0","76EFAF0D9F6E4CFFB7CB32910BECA832","019dac67-b6c4-7880-9f84-0bcd07fbcd93","019dac5b-243f-7307-af64-a10f53f1ef70","","null","
                <div class=""stimulus-container"">
                    <img src=""images/causal_sequence/saving_a_cat_causal/saving_a_cat_causal_2.png"" class=""exp-image"">
                    <div class=""question-area""></div> 
                </div>","null","","","","","","","","","","","",""
"","","","","","html-button-response","20","114444","0.0-20.0","76EFAF0D9F6E4CFFB7CB32910BECA832","019dac67-b6c4-7880-9f84-0bcd07fbcd93","019dac5b-243f-7307-af64-a10f53f1ef70","","null","
                <div class=""stimulus-container"">
                    <img src=""images/causal_sequence/saving_a_cat_causal/saving_a_cat_causal_2.png"" class=""exp-image"">
                    <div class=""question-area"">
                        <p style=""font-size: 20px; font-weight: bold; margin: 0;"">Is there a person in this image?</p>
                    </div>
                </div>","null","main_experiment_trial","2","saving_a_cat_causal","causal_sequence","chronological","","","","","","",""
"","","","","","html-keyboard-response","21","119456","0.0-21.0","76EFAF0D9F6E4CFFB7CB32910BECA832","019dac67-b6c4-7880-9f84-0bcd07fbcd93","019dac5b-243f-7307-af64-a10f53f1ef70","","null","
                <div class=""stimulus-container"">
                    <img src=""images/causal_sequence/saving_a_cat_causal/saving_a_cat_causal_3.png"" class=""exp-image"">
                    <div class=""question-area""></div> 
                </div>","null","","","","","","","","","","","",""
"","","","","","html-button-response","22","121818","0.0-22.0","76EFAF0D9F6E4CFFB7CB32910BECA832","019dac67-b6c4-7880-9f84-0bcd07fbcd93","019dac5b-243f-7307-af64-a10f53f1ef70","","2362","
                <div class=""stimulus-container"">
                    <img src=""images/causal_sequence/saving_a_cat_causal/saving_a_cat_causal_3.png"" class=""exp-image"">
                    <div class=""question-area"">
                        <p style=""font-size: 20px; font-weight: bold; margin: 0;"">Is there a person in this image?</p>
                    </div>
                </div>","1","main_experiment_trial","3","saving_a_cat_causal","causal_sequence","chronological","","","","","","",""
"","","","","","html-keyboard-response","23","126825","0.0-23.0","76EFAF0D9F6E4CFFB7CB32910BECA832","019dac67-b6c4-7880-9f84-0bcd07fbcd93","019dac5b-243f-7307-af64-a10f53f1ef70","","null","
                <div class=""stimulus-container"">
                    <img src=""images/causal_sequence/saving_a_cat_causal/saving_a_cat_causal_4.png"" class=""exp-image"">
                    <div class=""question-area""></div> 
                </div>","null","","","","","","","","","","","",""
"","","","","","html-button-response","24","128446","0.0-24.0","76EFAF0D9F6E4CFFB7CB32910BECA832","019dac67-b6c4-7880-9f84-0bcd07fbcd93","019dac5b-243f-7307-af64-a10f53f1ef70","","1619","
                <div class=""stimulus-container"">
                    <img src=""images/causal_sequence/saving_a_cat_causal/saving_a_cat_causal_4.png"" class=""exp-image"">
                    <div class=""question-area"">
                        <p style=""font-size: 20px; font-weight: bold; margin: 0;"">Is there a person in this image?</p>
                    </div>
                </div>","0","main_experiment_trial","4","saving_a_cat_causal","causal_sequence","chronological","","","","","","",""
"","","","","","html-keyboard-response","25","133455","0.0-25.0","76EFAF0D9F6E4CFFB7CB32910BECA832","019dac67-b6c4-7880-9f84-0bcd07fbcd93","019dac5b-243f-7307-af64-a10f53f1ef70","","null","
                <div class=""stimulus-container"">
                    <img src=""images/causal_sequence/saving_a_cat_causal/saving_a_cat_causal_5.png"" class=""exp-image"">
                    <div class=""question-area""></div> 
                </div>","null","","","","","","","","","","","",""
"","","","","","html-button-response","26","134760","0.0-26.0","76EFAF0D9F6E4CFFB7CB32910BECA832","019dac67-b6c4-7880-9f84-0bcd07fbcd93","019dac5b-243f-7307-af64-a10f53f1ef70","","1303","
                <div class=""stimulus-container"">
                    <img src=""images/causal_sequence/saving_a_cat_causal/saving_a_cat_causal_5.png"" class=""exp-image"">
                    <div class=""question-area"">
                        <p style=""font-size: 20px; font-weight: bold; margin: 0;"">Is there a person in this image?</p>
                    </div>
                </div>","0","main_experiment_trial","5","saving_a_cat_causal","causal_sequence","chronological","","","","","","",""
"","","","","","html-keyboard-response","27","139762","0.0-27.0","76EFAF0D9F6E4CFFB7CB32910BECA832","019dac67-b6c4-7880-9f84-0bcd07fbcd93","019dac5b-243f-7307-af64-a10f53f1ef70","","null","
                <div class=""stimulus-container"">
                    <img src=""images/causal_sequence/saving_a_cat_causal/saving_a_cat_causal_6.png"" class=""exp-image"">
                    <div class=""question-area""></div> 
                </div>","null","","","","","","","","","","","",""
"","","","","","html-button-response","28","140989","0.0-28.0","76EFAF0D9F6E4CFFB7CB32910BECA832","019dac67-b6c4-7880-9f84-0bcd07fbcd93","019dac5b-243f-7307-af64-a10f53f1ef70","","1226","
                <div class=""stimulus-container"">
                    <img src=""images/causal_sequence/saving_a_cat_causal/saving_a_cat_causal_6.png"" class=""exp-image"">
                    <div class=""question-area"">
                        <p style=""font-size: 20px; font-weight: bold; margin: 0;"">Is there a person in this image?</p>
                    </div>
                </div>","0","main_experiment_trial","6","saving_a_cat_causal","causal_sequence","chronological","","","","","","",""
"","","","","","html-keyboard-response","29","146002","0.0-29.0","76EFAF0D9F6E4CFFB7CB32910BECA832","019dac67-b6c4-7880-9f84-0bcd07fbcd93","019dac5b-243f-7307-af64-a10f53f1ef70","","null","
                <div class=""stimulus-container"">
                    <img src=""images/causal_sequence/saving_a_cat_causal/saving_a_cat_causal_7.png"" class=""exp-image"">
                    <div class=""question-area""></div> 
                </div>","null","","","","","","","","","","","",""
"","","","","","html-button-response","30","147126","0.0-30.0","76EFAF0D9F6E4CFFB7CB32910BECA832","019dac67-b6c4-7880-9f84-0bcd07fbcd93","019dac5b-243f-7307-af64-a10f53f1ef70","","1123","
                <div class=""stimulus-container"">
                    <img src=""images/causal_sequence/saving_a_cat_causal/saving_a_cat_causal_7.png"" class=""exp-image"">
                    <div class=""question-area"">
                        <p style=""font-size: 20px; font-weight: bold; margin: 0;"">Is there a person in this image?</p>
                    </div>
                </div>","0","main_experiment_trial","7","saving_a_cat_causal","causal_sequence","chronological","","","","","","",""
"","","","","","html-keyboard-response","31","152132","0.0-31.0","76EFAF0D9F6E4CFFB7CB32910BECA832","019dac67-b6c4-7880-9f84-0bcd07fbcd93","019dac5b-243f-7307-af64-a10f53f1ef70","","null","
                <div class=""stimulus-container"">
                    <img src=""images/causal_sequence/saving_a_cat_causal/saving_a_cat_causal_8.png"" class=""exp-image"">
                    <div class=""question-area""></div> 
                </div>","null","","","","","","","","","","","",""
"","","","","","html-button-response","32","152900","0.0-32.0","76EFAF0D9F6E4CFFB7CB32910BECA832","019dac67-b6c4-7880-9f84-0bcd07fbcd93","019dac5b-243f-7307-af64-a10f53f1ef70","","767","
                <div class=""stimulus-container"">
                    <img src=""images/causal_sequence/saving_a_cat_causal/saving_a_cat_causal_8.png"" class=""exp-image"">
                    <div class=""question-area"">
                        <p style=""font-size: 20px; font-weight: bold; margin: 0;"">Is there a person in this image?</p>
                    </div>
                </div>","0","main_experiment_trial","8","saving_a_cat_causal","causal_sequence","chronological","","","","","","",""
"","","","","","html-keyboard-response","33","157903","0.0-33.0","76EFAF0D9F6E4CFFB7CB32910BECA832","019dac67-b6c4-7880-9f84-0bcd07fbcd93","019dac5b-243f-7307-af64-a10f53f1ef70","","null","
                <div class=""stimulus-container"">
                    <img src=""images/causal_sequence/saving_a_cat_causal/saving_a_cat_causal_9.png"" class=""exp-image"">
                    <div class=""question-area""></div> 
                </div>","null","","","","","","","","","","","",""
"","","","","","html-button-response","34","158715","0.0-34.0","76EFAF0D9F6E4CFFB7CB32910BECA832","019dac67-b6c4-7880-9f84-0bcd07fbcd93","019dac5b-243f-7307-af64-a10f53f1ef70","","811","
                <div class=""stimulus-container"">
                    <img src=""images/causal_sequence/saving_a_cat_causal/saving_a_cat_causal_9.png"" class=""exp-image"">
                    <div class=""question-area"">
                        <p style=""font-size: 20px; font-weight: bold; margin: 0;"">Is there a person in this image?</p>
                    </div>
                </div>","0","main_experiment_trial","9","saving_a_cat_causal","causal_sequence","chronological","","","","","","",""
"","","","","","html-keyboard-response","35","163730","0.0-35.0","76EFAF0D9F6E4CFFB7CB32910BECA832","019dac67-b6c4-7880-9f84-0bcd07fbcd93","019dac5b-243f-7307-af64-a10f53f1ef70","","null","
                <div class=""stimulus-container"">
                    <img src=""images/causal_sequence/saving_a_cat_causal/saving_a_cat_causal_ten.png"" class=""exp-image"">
                    <div class=""question-area""></div> 
                </div>","null","","","","","","","","","","","",""
"","","","","","html-button-response","36","164909","0.0-36.0","76EFAF0D9F6E4CFFB7CB32910BECA832","019dac67-b6c4-7880-9f84-0bcd07fbcd93","019dac5b-243f-7307-af64-a10f53f1ef70","","1178","
                <div class=""stimulus-container"">
                    <img src=""images/causal_sequence/saving_a_cat_causal/saving_a_cat_causal_ten.png"" class=""exp-image"">
                    <div class=""question-area"">
                        <p style=""font-size: 20px; font-weight: bold; margin: 0;"">Is there a person in this image?</p>
                    </div>
                </div>","0","main_experiment_trial","ten","saving_a_cat_causal","causal_sequence","chronological","","","","","","",""
"","","","","","html-keyboard-response","37","169916","0.0-37.0","76EFAF0D9F6E4CFFB7CB32910BECA832","019dac67-b6c4-7880-9f84-0bcd07fbcd93","019dac5b-243f-7307-af64-a10f53f1ef70","","null","<div style=""background-color: white; width: 100vw; height: 100vh;""></div>","null","","","","","","","","","","","",""
"","","","","","html-keyboard-response","38","174927","0.0-38.0","76EFAF0D9F6E4CFFB7CB32910BECA832","019dac67-b6c4-7880-9f84-0bcd07fbcd93","019dac5b-243f-7307-af64-a10f53f1ef70","","null","
                <div class=""stimulus-container"">
                    <img src=""images/semantic_sequence/housework_semantic/housework_semantic_1.png"" class=""exp-image"">
                    <div class=""question-area""></div> 
                </div>","null","","","","","","","","","","","",""
"","","","","","html-button-response","39","177931","0.0-39.0","76EFAF0D9F6E4CFFB7CB32910BECA832","019dac67-b6c4-7880-9f84-0bcd07fbcd93","019dac5b-243f-7307-af64-a10f53f1ef70","","null","
                <div class=""stimulus-container"">
                    <img src=""images/semantic_sequence/housework_semantic/housework_semantic_1.png"" class=""exp-image"">
                    <div class=""question-area"">
                        <p style=""font-size: 20px; font-weight: bold; margin: 0;"">Is there a person in this image?</p>
                    </div>
                </div>","null","main_experiment_trial","1","housework_semantic","semantic_sequence","chronological","","","","","","",""
"","","","","","html-keyboard-response","40","182946","0.0-40.0","76EFAF0D9F6E4CFFB7CB32910BECA832","019dac67-b6c4-7880-9f84-0bcd07fbcd93","019dac5b-243f-7307-af64-a10f53f1ef70","","null","
                <div class=""stimulus-container"">
                    <img src=""images/semantic_sequence/housework_semantic/housework_semantic_2.png"" class=""exp-image"">
                    <div class=""question-area""></div> 
                </div>","null","","","","","","","","","","","",""
"","","","","","html-button-response","41","185615","0.0-41.0","76EFAF0D9F6E4CFFB7CB32910BECA832","019dac67-b6c4-7880-9f84-0bcd07fbcd93","019dac5b-243f-7307-af64-a10f53f1ef70","","2669","
                <div class=""stimulus-container"">
                    <img src=""images/semantic_sequence/housework_semantic/housework_semantic_2.png"" class=""exp-image"">
                    <div class=""question-area"">
                        <p style=""font-size: 20px; font-weight: bold; margin: 0;"">Is there a person in this image?</p>
                    </div>
                </div>","0","main_experiment_trial","2","housework_semantic","semantic_sequence","chronological","","","","","","",""
"","","","","","html-keyboard-response","42","190625","0.0-42.0","76EFAF0D9F6E4CFFB7CB32910BECA832","019dac67-b6c4-7880-9f84-0bcd07fbcd93","019dac5b-243f-7307-af64-a10f53f1ef70","","null","
                <div class=""stimulus-container"">
                    <img src=""images/semantic_sequence/housework_semantic/housework_semantic_3.png"" class=""exp-image"">
                    <div class=""question-area""></div> 
                </div>","null","","","","","","","","","","","",""
"","","","","","html-button-response","43","191831","0.0-43.0","76EFAF0D9F6E4CFFB7CB32910BECA832","019dac67-b6c4-7880-9f84-0bcd07fbcd93","019dac5b-243f-7307-af64-a10f53f1ef70","","1204","
                <div class=""stimulus-container"">
                    <img src=""images/semantic_sequence/housework_semantic/housework_semantic_3.png"" class=""exp-image"">
                    <div class=""question-area"">
                        <p style=""font-size: 20px; font-weight: bold; margin: 0;"">Is there a person in this image?</p>
                    </div>
                </div>","0","main_experiment_trial","3","housework_semantic","semantic_sequence","chronological","","","","","","",""
"","","","","","html-keyboard-response","44","196841","0.0-44.0","76EFAF0D9F6E4CFFB7CB32910BECA832","019dac67-b6c4-7880-9f84-0bcd07fbcd93","019dac5b-243f-7307-af64-a10f53f1ef70","","null","
                <div class=""stimulus-container"">
                    <img src=""images/semantic_sequence/housework_semantic/housework_semantic_4.png"" class=""exp-image"">
                    <div class=""question-area""></div> 
                </div>","null","","","","","","","","","","","",""
"","","","","","html-button-response","45","197748","0.0-45.0","76EFAF0D9F6E4CFFB7CB32910BECA832","019dac67-b6c4-7880-9f84-0bcd07fbcd93","019dac5b-243f-7307-af64-a10f53f1ef70","","906","
                <div class=""stimulus-container"">
                    <img src=""images/semantic_sequence/housework_semantic/housework_semantic_4.png"" class=""exp-image"">
                    <div class=""question-area"">
                        <p style=""font-size: 20px; font-weight: bold; margin: 0;"">Is there a person in this image?</p>
                    </div>
                </div>","0","main_experiment_trial","4","housework_semantic","semantic_sequence","chronological","","","","","","",""
"","","","","","html-keyboard-response","46","202758","0.0-46.0","76EFAF0D9F6E4CFFB7CB32910BECA832","019dac67-b6c4-7880-9f84-0bcd07fbcd93","019dac5b-243f-7307-af64-a10f53f1ef70","","null","
                <div class=""stimulus-container"">
                    <img src=""images/semantic_sequence/housework_semantic/housework_semantic_5.png"" class=""exp-image"">
                    <div class=""question-area""></div> 
                </div>","null","","","","","","","","","","","",""
"","","","","","html-button-response","47","203702","0.0-47.0","76EFAF0D9F6E4CFFB7CB32910BECA832","019dac67-b6c4-7880-9f84-0bcd07fbcd93","019dac5b-243f-7307-af64-a10f53f1ef70","","943","
                <div class=""stimulus-container"">
                    <img src=""images/semantic_sequence/housework_semantic/housework_semantic_5.png"" class=""exp-image"">
                    <div class=""question-area"">
                        <p style=""font-size: 20px; font-weight: bold; margin: 0;"">Is there a person in this image?</p>
                    </div>
                </div>","0","main_experiment_trial","5","housework_semantic","semantic_sequence","chronological","","","","","","",""
"","","","","","html-keyboard-response","48","208708","0.0-48.0","76EFAF0D9F6E4CFFB7CB32910BECA832","019dac67-b6c4-7880-9f84-0bcd07fbcd93","019dac5b-243f-7307-af64-a10f53f1ef70","","null","
                <div class=""stimulus-container"">
                    <img src=""images/semantic_sequence/housework_semantic/housework_semantic_6.png"" class=""exp-image"">
                    <div class=""question-area""></div> 
                </div>","null","","","","","","","","","","","",""
"","","","","","html-button-response","49","211712","0.0-49.0","76EFAF0D9F6E4CFFB7CB32910BECA832","019dac67-b6c4-7880-9f84-0bcd07fbcd93","019dac5b-243f-7307-af64-a10f53f1ef70","","null","
                <div class=""stimulus-container"">
                    <img src=""images/semantic_sequence/housework_semantic/housework_semantic_6.png"" class=""exp-image"">
                    <div class=""question-area"">
                        <p style=""font-size: 20px; font-weight: bold; margin: 0;"">Is there a person in this image?</p>
                    </div>
                </div>","null","main_experiment_trial","6","housework_semantic","semantic_sequence","chronological","","","","","","",""
"","","","","","html-keyboard-response","50","216716","0.0-50.0","76EFAF0D9F6E4CFFB7CB32910BECA832","019dac67-b6c4-7880-9f84-0bcd07fbcd93","019dac5b-243f-7307-af64-a10f53f1ef70","","null","
                <div class=""stimulus-container"">
                    <img src=""images/semantic_sequence/housework_semantic/housework_semantic_7.png"" class=""exp-image"">
                    <div class=""question-area""></div> 
                </div>","null","","","","","","","","","","","",""
"","","","","","html-button-response","51","217981","0.0-51.0","76EFAF0D9F6E4CFFB7CB32910BECA832","019dac67-b6c4-7880-9f84-0bcd07fbcd93","019dac5b-243f-7307-af64-a10f53f1ef70","","1264","
                <div class=""stimulus-container"">
                    <img src=""images/semantic_sequence/housework_semantic/housework_semantic_7.png"" class=""exp-image"">
                    <div class=""question-area"">
                        <p style=""font-size: 20px; font-weight: bold; margin: 0;"">Is there a person in this image?</p>
                    </div>
                </div>","0","main_experiment_trial","7","housework_semantic","semantic_sequence","chronological","","","","","","",""
"","","","","","html-keyboard-response","52","222993","0.0-52.0","76EFAF0D9F6E4CFFB7CB32910BECA832","019dac67-b6c4-7880-9f84-0bcd07fbcd93","019dac5b-243f-7307-af64-a10f53f1ef70","","null","
                <div class=""stimulus-container"">
                    <img src=""images/semantic_sequence/housework_semantic/housework_semantic_8.png"" class=""exp-image"">
                    <div class=""question-area""></div> 
                </div>","null","","","","","","","","","","","",""
"","","","","","html-button-response","53","224197","0.0-53.0","76EFAF0D9F6E4CFFB7CB32910BECA832","019dac67-b6c4-7880-9f84-0bcd07fbcd93","019dac5b-243f-7307-af64-a10f53f1ef70","","1203","
                <div class=""stimulus-container"">
                    <img src=""images/semantic_sequence/housework_semantic/housework_semantic_8.png"" class=""exp-image"">
                    <div class=""question-area"">
                        <p style=""font-size: 20px; font-weight: bold; margin: 0;"">Is there a person in this image?</p>
                    </div>
                </div>","0","main_experiment_trial","8","housework_semantic","semantic_sequence","chronological","","","","","","",""
"","","","","","html-keyboard-response","54","229204","0.0-54.0","76EFAF0D9F6E4CFFB7CB32910BECA832","019dac67-b6c4-7880-9f84-0bcd07fbcd93","019dac5b-243f-7307-af64-a10f53f1ef70","","null","
                <div class=""stimulus-container"">
                    <img src=""images/semantic_sequence/housework_semantic/housework_semantic_9.png"" class=""exp-image"">
                    <div class=""question-area""></div> 
                </div>","null","","","","","","","","","","","",""
"","","","","","html-button-response","55","229947","0.0-55.0","76EFAF0D9F6E4CFFB7CB32910BECA832","019dac67-b6c4-7880-9f84-0bcd07fbcd93","019dac5b-243f-7307-af64-a10f53f1ef70","","743","
                <div class=""stimulus-container"">
                    <img src=""images/semantic_sequence/housework_semantic/housework_semantic_9.png"" class=""exp-image"">
                    <div class=""question-area"">
                        <p style=""font-size: 20px; font-weight: bold; margin: 0;"">Is there a person in this image?</p>
                    </div>
                </div>","0","main_experiment_trial","9","housework_semantic","semantic_sequence","chronological","","","","","","",""
"","","","","","html-keyboard-response","56","234956","0.0-56.0","76EFAF0D9F6E4CFFB7CB32910BECA832","019dac67-b6c4-7880-9f84-0bcd07fbcd93","019dac5b-243f-7307-af64-a10f53f1ef70","","null","
                <div class=""stimulus-container"">
                    <img src=""images/semantic_sequence/housework_semantic/housework_semantic_ten.png"" class=""exp-image"">
                    <div class=""question-area""></div> 
                </div>","null","","","","","","","","","","","",""
"","","","","","html-button-response","57","235514","0.0-57.0","76EFAF0D9F6E4CFFB7CB32910BECA832","019dac67-b6c4-7880-9f84-0bcd07fbcd93","019dac5b-243f-7307-af64-a10f53f1ef70","","557","
                <div class=""stimulus-container"">
                    <img src=""images/semantic_sequence/housework_semantic/housework_semantic_ten.png"" class=""exp-image"">
                    <div class=""question-area"">
                        <p style=""font-size: 20px; font-weight: bold; margin: 0;"">Is there a person in this image?</p>
                    </div>
                </div>","0","main_experiment_trial","ten","housework_semantic","semantic_sequence","chronological","","","","","","",""
"","","","","","html-keyboard-response","58","240522","0.0-58.0","76EFAF0D9F6E4CFFB7CB32910BECA832","019dac67-b6c4-7880-9f84-0bcd07fbcd93","019dac5b-243f-7307-af64-a10f53f1ef70","","null","<div style=""background-color: white; width: 100vw; height: 100vh;""></div>","null","","","","","","","","","","","",""
"","","","","","html-keyboard-response","59","245527","0.0-59.0","76EFAF0D9F6E4CFFB7CB32910BECA832","019dac67-b6c4-7880-9f84-0bcd07fbcd93","019dac5b-243f-7307-af64-a10f53f1ef70","","null","
                <div class=""stimulus-container"">
                    <img src=""images/semantic_sequence/physical_activity_semantic/physical_activity_semantic_1.png"" class=""exp-image"">
                    <div class=""question-area""></div> 
                </div>","null","","","","","","","","","","","",""
"","","","","","html-button-response","60","246678","0.0-60.0","76EFAF0D9F6E4CFFB7CB32910BECA832","019dac67-b6c4-7880-9f84-0bcd07fbcd93","019dac5b-243f-7307-af64-a10f53f1ef70","","1150","
                <div class=""stimulus-container"">
                    <img src=""images/semantic_sequence/physical_activity_semantic/physical_activity_semantic_1.png"" class=""exp-image"">
                    <div class=""question-area"">
                        <p style=""font-size: 20px; font-weight: bold; margin: 0;"">Is there a person in this image?</p>
                    </div>
                </div>","0","main_experiment_trial","1","physical_activity_semantic","semantic_sequence","chronological","","","","","","",""
"","","","","","html-keyboard-response","61","251679","0.0-61.0","76EFAF0D9F6E4CFFB7CB32910BECA832","019dac67-b6c4-7880-9f84-0bcd07fbcd93","019dac5b-243f-7307-af64-a10f53f1ef70","","null","
                <div class=""stimulus-container"">
                    <img src=""images/semantic_sequence/physical_activity_semantic/physical_activity_semantic_2.png"" class=""exp-image"">
                    <div class=""question-area""></div> 
                </div>","null","","","","","","","","","","","",""
"","","","","","html-button-response","62","252448","0.0-62.0","76EFAF0D9F6E4CFFB7CB32910BECA832","019dac67-b6c4-7880-9f84-0bcd07fbcd93","019dac5b-243f-7307-af64-a10f53f1ef70","","768","
                <div class=""stimulus-container"">
                    <img src=""images/semantic_sequence/physical_activity_semantic/physical_activity_semantic_2.png"" class=""exp-image"">
                    <div class=""question-area"">
                        <p style=""font-size: 20px; font-weight: bold; margin: 0;"">Is there a person in this image?</p>
                    </div>
                </div>","0","main_experiment_trial","2","physical_activity_semantic","semantic_sequence","chronological","","","","","","",""
"","","","","","html-keyboard-response","63","257461","0.0-63.0","76EFAF0D9F6E4CFFB7CB32910BECA832","019dac67-b6c4-7880-9f84-0bcd07fbcd93","019dac5b-243f-7307-af64-a10f53f1ef70","","null","
                <div class=""stimulus-container"">
                    <img src=""images/semantic_sequence/physical_activity_semantic/physical_activity_semantic_3.png"" class=""exp-image"">
                    <div class=""question-area""></div> 
                </div>","null","","","","","","","","","","","",""
"","","","","","html-button-response","64","258363","0.0-64.0","76EFAF0D9F6E4CFFB7CB32910BECA832","019dac67-b6c4-7880-9f84-0bcd07fbcd93","019dac5b-243f-7307-af64-a10f53f1ef70","","901","
                <div class=""stimulus-container"">
                    <img src=""images/semantic_sequence/physical_activity_semantic/physical_activity_semantic_3.png"" class=""exp-image"">
                    <div class=""question-area"">
                        <p style=""font-size: 20px; font-weight: bold; margin: 0;"">Is there a person in this image?</p>
                    </div>
                </div>","0","main_experiment_trial","3","physical_activity_semantic","semantic_sequence","chronological","","","","","","",""
"","","","","","html-keyboard-response","65","263365","0.0-65.0","76EFAF0D9F6E4CFFB7CB32910BECA832","019dac67-b6c4-7880-9f84-0bcd07fbcd93","019dac5b-243f-7307-af64-a10f53f1ef70","","null","
                <div class=""stimulus-container"">
                    <img src=""images/semantic_sequence/physical_activity_semantic/physical_activity_semantic_4.png"" class=""exp-image"">
                    <div class=""question-area""></div> 
                </div>","null","","","","","","","","","","","",""
"","","","","","html-button-response","66","264281","0.0-66.0","76EFAF0D9F6E4CFFB7CB32910BECA832","019dac67-b6c4-7880-9f84-0bcd07fbcd93","019dac5b-243f-7307-af64-a10f53f1ef70","","915","
                <div class=""stimulus-container"">
                    <img src=""images/semantic_sequence/physical_activity_semantic/physical_activity_semantic_4.png"" class=""exp-image"">
                    <div class=""question-area"">
                        <p style=""font-size: 20px; font-weight: bold; margin: 0;"">Is there a person in this image?</p>
                    </div>
                </div>","0","main_experiment_trial","4","physical_activity_semantic","semantic_sequence","chronological","","","","","","",""
"","","","","","html-keyboard-response","67","269285","0.0-67.0","76EFAF0D9F6E4CFFB7CB32910BECA832","019dac67-b6c4-7880-9f84-0bcd07fbcd93","019dac5b-243f-7307-af64-a10f53f1ef70","","null","
                <div class=""stimulus-container"">
                    <img src=""images/semantic_sequence/physical_activity_semantic/physical_activity_semantic_5.png"" class=""exp-image"">
                    <div class=""question-area""></div> 
                </div>","null","","","","","","","","","","","",""
"","","","","","html-button-response","68","271799","0.0-68.0","76EFAF0D9F6E4CFFB7CB32910BECA832","019dac67-b6c4-7880-9f84-0bcd07fbcd93","019dac5b-243f-7307-af64-a10f53f1ef70","","2513","
                <div class=""stimulus-container"">
                    <img src=""images/semantic_sequence/physical_activity_semantic/physical_activity_semantic_5.png"" class=""exp-image"">
                    <div class=""question-area"">
                        <p style=""font-size: 20px; font-weight: bold; margin: 0;"">Is there a person in this image?</p>
                    </div>
                </div>","0","main_experiment_trial","5","physical_activity_semantic","semantic_sequence","chronological","","","","","","",""
"","","","","","html-keyboard-response","69","276800","0.0-69.0","76EFAF0D9F6E4CFFB7CB32910BECA832","019dac67-b6c4-7880-9f84-0bcd07fbcd93","019dac5b-243f-7307-af64-a10f53f1ef70","","null","
                <div class=""stimulus-container"">
                    <img src=""images/semantic_sequence/physical_activity_semantic/physical_activity_semantic_6.png"" class=""exp-image"">
                    <div class=""question-area""></div> 
                </div>","null","","","","","","","","","","","",""
"","","","","","html-button-response","70","277995","0.0-70.0","76EFAF0D9F6E4CFFB7CB32910BECA832","019dac67-b6c4-7880-9f84-0bcd07fbcd93","019dac5b-243f-7307-af64-a10f53f1ef70","","1194","
                <div class=""stimulus-container"">
                    <img src=""images/semantic_sequence/physical_activity_semantic/physical_activity_semantic_6.png"" class=""exp-image"">
                    <div class=""question-area"">
                        <p style=""font-size: 20px; font-weight: bold; margin: 0;"">Is there a person in this image?</p>
                    </div>
                </div>","0","main_experiment_trial","6","physical_activity_semantic","semantic_sequence","chronological","","","","","","",""
"","","","","","html-keyboard-response","71","283009","0.0-71.0","76EFAF0D9F6E4CFFB7CB32910BECA832","019dac67-b6c4-7880-9f84-0bcd07fbcd93","019dac5b-243f-7307-af64-a10f53f1ef70","","null","
                <div class=""stimulus-container"">
                    <img src=""images/semantic_sequence/physical_activity_semantic/physical_activity_semantic_7.png"" class=""exp-image"">
                    <div class=""question-area""></div> 
                </div>","null","","","","","","","","","","","",""
"","","","","","html-button-response","72","283763","0.0-72.0","76EFAF0D9F6E4CFFB7CB32910BECA832","019dac67-b6c4-7880-9f84-0bcd07fbcd93","019dac5b-243f-7307-af64-a10f53f1ef70","","754","
                <div class=""stimulus-container"">
                    <img src=""images/semantic_sequence/physical_activity_semantic/physical_activity_semantic_7.png"" class=""exp-image"">
                    <div class=""question-area"">
                        <p style=""font-size: 20px; font-weight: bold; margin: 0;"">Is there a person in this image?</p>
                    </div>
                </div>","0","main_experiment_trial","7","physical_activity_semantic","semantic_sequence","chronological","","","","","","",""
"","","","","","html-keyboard-response","73","288780","0.0-73.0","76EFAF0D9F6E4CFFB7CB32910BECA832","019dac67-b6c4-7880-9f84-0bcd07fbcd93","019dac5b-243f-7307-af64-a10f53f1ef70","","null","
                <div class=""stimulus-container"">
                    <img src=""images/semantic_sequence/physical_activity_semantic/physical_activity_semantic_8.png"" class=""exp-image"">
                    <div class=""question-area""></div> 
                </div>","null","","","","","","","","","","","",""
"","","","","","html-button-response","74","289311","0.0-74.0","76EFAF0D9F6E4CFFB7CB32910BECA832","019dac67-b6c4-7880-9f84-0bcd07fbcd93","019dac5b-243f-7307-af64-a10f53f1ef70","","530","
                <div class=""stimulus-container"">
                    <img src=""images/semantic_sequence/physical_activity_semantic/physical_activity_semantic_8.png"" class=""exp-image"">
                    <div class=""question-area"">
                        <p style=""font-size: 20px; font-weight: bold; margin: 0;"">Is there a person in this image?</p>
                    </div>
                </div>","0","main_experiment_trial","8","physical_activity_semantic","semantic_sequence","chronological","","","","","","",""
"","","","","","html-keyboard-response","75","294325","0.0-75.0","76EFAF0D9F6E4CFFB7CB32910BECA832","019dac67-b6c4-7880-9f84-0bcd07fbcd93","019dac5b-243f-7307-af64-a10f53f1ef70","","null","
                <div class=""stimulus-container"">
                    <img src=""images/semantic_sequence/physical_activity_semantic/physical_activity_semantic_9.png"" class=""exp-image"">
                    <div class=""question-area""></div> 
                </div>","null","","","","","","","","","","","",""
"","","","","","html-button-response","76","294914","0.0-76.0","76EFAF0D9F6E4CFFB7CB32910BECA832","019dac67-b6c4-7880-9f84-0bcd07fbcd93","019dac5b-243f-7307-af64-a10f53f1ef70","","588","
                <div class=""stimulus-container"">
                    <img src=""images/semantic_sequence/physical_activity_semantic/physical_activity_semantic_9.png"" class=""exp-image"">
                    <div class=""question-area"">
                        <p style=""font-size: 20px; font-weight: bold; margin: 0;"">Is there a person in this image?</p>
                    </div>
                </div>","0","main_experiment_trial","9","physical_activity_semantic","semantic_sequence","chronological","","","","","","",""
"","","","","","html-keyboard-response","77","299930","0.0-77.0","76EFAF0D9F6E4CFFB7CB32910BECA832","019dac67-b6c4-7880-9f84-0bcd07fbcd93","019dac5b-243f-7307-af64-a10f53f1ef70","","null","
                <div class=""stimulus-container"">
                    <img src=""images/semantic_sequence/physical_activity_semantic/physical_activity_semantic_ten.png"" class=""exp-image"">
                    <div class=""question-area""></div> 
                </div>","null","","","","","","","","","","","",""
"","","","","","html-button-response","78","300811","0.0-78.0","76EFAF0D9F6E4CFFB7CB32910BECA832","019dac67-b6c4-7880-9f84-0bcd07fbcd93","019dac5b-243f-7307-af64-a10f53f1ef70","","881","
                <div class=""stimulus-container"">
                    <img src=""images/semantic_sequence/physical_activity_semantic/physical_activity_semantic_ten.png"" class=""exp-image"">
                    <div class=""question-area"">
                        <p style=""font-size: 20px; font-weight: bold; margin: 0;"">Is there a person in this image?</p>
                    </div>
                </div>","0","main_experiment_trial","ten","physical_activity_semantic","semantic_sequence","chronological","","","","","","",""
"","","","","","html-keyboard-response","79","305815","0.0-79.0","76EFAF0D9F6E4CFFB7CB32910BECA832","019dac67-b6c4-7880-9f84-0bcd07fbcd93","019dac5b-243f-7307-af64-a10f53f1ef70","","null","<div style=""background-color: white; width: 100vw; height: 100vh;""></div>","null","","","","","","","","","","","",""
"","","","","","html-keyboard-response","80","310829","0.0-80.0","76EFAF0D9F6E4CFFB7CB32910BECA832","019dac67-b6c4-7880-9f84-0bcd07fbcd93","019dac5b-243f-7307-af64-a10f53f1ef70","","null","
                <div class=""stimulus-container"">
                    <img src=""images/causal_sequence/dog_causal/dog_causal_1.png"" class=""exp-image"">
                    <div class=""question-area""></div> 
                </div>","null","","","","","","","","","","","",""
"","","","","","html-button-response","81","312347","0.0-81.0","76EFAF0D9F6E4CFFB7CB32910BECA832","019dac67-b6c4-7880-9f84-0bcd07fbcd93","019dac5b-243f-7307-af64-a10f53f1ef70","","1517","
                <div class=""stimulus-container"">
                    <img src=""images/causal_sequence/dog_causal/dog_causal_1.png"" class=""exp-image"">
                    <div class=""question-area"">
                        <p style=""font-size: 20px; font-weight: bold; margin: 0;"">Is there a person in this image?</p>
                    </div>
                </div>","0","main_experiment_trial","1","dog_causal","causal_sequence","chronological","","","","","","",""
"","","","","","html-keyboard-response","82","317359","0.0-82.0","76EFAF0D9F6E4CFFB7CB32910BECA832","019dac67-b6c4-7880-9f84-0bcd07fbcd93","019dac5b-243f-7307-af64-a10f53f1ef70","","null","
                <div class=""stimulus-container"">
                    <img src=""images/causal_sequence/dog_causal/dog_causal_2.png"" class=""exp-image"">
                    <div class=""question-area""></div> 
                </div>","null","","","","","","","","","","","",""
"","","","","","html-button-response","83","318509","0.0-83.0","76EFAF0D9F6E4CFFB7CB32910BECA832","019dac67-b6c4-7880-9f84-0bcd07fbcd93","019dac5b-243f-7307-af64-a10f53f1ef70","","1150","
                <div class=""stimulus-container"">
                    <img src=""images/causal_sequence/dog_causal/dog_causal_2.png"" class=""exp-image"">
                    <div class=""question-area"">
                        <p style=""font-size: 20px; font-weight: bold; margin: 0;"">Is there a person in this image?</p>
                    </div>
                </div>","0","main_experiment_trial","2","dog_causal","causal_sequence","chronological","","","","","","",""
"","","","","","html-keyboard-response","84","323519","0.0-84.0","76EFAF0D9F6E4CFFB7CB32910BECA832","019dac67-b6c4-7880-9f84-0bcd07fbcd93","019dac5b-243f-7307-af64-a10f53f1ef70","","null","
                <div class=""stimulus-container"">
                    <img src=""images/causal_sequence/dog_causal/dog_causal_3.png"" class=""exp-image"">
                    <div class=""question-area""></div> 
                </div>","null","","","","","","","","","","","",""
"","","","","","html-button-response","85","326521","0.0-85.0","76EFAF0D9F6E4CFFB7CB32910BECA832","019dac67-b6c4-7880-9f84-0bcd07fbcd93","019dac5b-243f-7307-af64-a10f53f1ef70","","null","
                <div class=""stimulus-container"">
                    <img src=""images/causal_sequence/dog_causal/dog_causal_3.png"" class=""exp-image"">
                    <div class=""question-area"">
                        <p style=""font-size: 20px; font-weight: bold; margin: 0;"">Is there a person in this image?</p>
                    </div>
                </div>","null","main_experiment_trial","3","dog_causal","causal_sequence","chronological","","","","","","",""
"","","","","","html-keyboard-response","86","331527","0.0-86.0","76EFAF0D9F6E4CFFB7CB32910BECA832","019dac67-b6c4-7880-9f84-0bcd07fbcd93","019dac5b-243f-7307-af64-a10f53f1ef70","","null","
                <div class=""stimulus-container"">
                    <img src=""images/causal_sequence/dog_causal/dog_causal_4.png"" class=""exp-image"">
                    <div class=""question-area""></div> 
                </div>","null","","","","","","","","","","","",""
"","","","","","html-button-response","87","333582","0.0-87.0","76EFAF0D9F6E4CFFB7CB32910BECA832","019dac67-b6c4-7880-9f84-0bcd07fbcd93","019dac5b-243f-7307-af64-a10f53f1ef70","","2054","
                <div class=""stimulus-container"">
                    <img src=""images/causal_sequence/dog_causal/dog_causal_4.png"" class=""exp-image"">
                    <div class=""question-area"">
                        <p style=""font-size: 20px; font-weight: bold; margin: 0;"">Is there a person in this image?</p>
                    </div>
                </div>","0","main_experiment_trial","4","dog_causal","causal_sequence","chronological","","","","","","",""
"","","","","","html-keyboard-response","88","338589","0.0-88.0","76EFAF0D9F6E4CFFB7CB32910BECA832","019dac67-b6c4-7880-9f84-0bcd07fbcd93","019dac5b-243f-7307-af64-a10f53f1ef70","","null","
                <div class=""stimulus-container"">
                    <img src=""images/causal_sequence/dog_causal/dog_causal_5.png"" class=""exp-image"">
                    <div class=""question-area""></div> 
                </div>","null","","","","","","","","","","","",""
"","","","","","html-button-response","89","341603","0.0-89.0","76EFAF0D9F6E4CFFB7CB32910BECA832","019dac67-b6c4-7880-9f84-0bcd07fbcd93","019dac5b-243f-7307-af64-a10f53f1ef70","","null","
                <div class=""stimulus-container"">
                    <img src=""images/causal_sequence/dog_causal/dog_causal_5.png"" class=""exp-image"">
                    <div class=""question-area"">
                        <p style=""font-size: 20px; font-weight: bold; margin: 0;"">Is there a person in this image?</p>
                    </div>
                </div>","null","main_experiment_trial","5","dog_causal","causal_sequence","chronological","","","","","","",""
"","","","","","html-keyboard-response","90","346611","0.0-90.0","76EFAF0D9F6E4CFFB7CB32910BECA832","019dac67-b6c4-7880-9f84-0bcd07fbcd93","019dac5b-243f-7307-af64-a10f53f1ef70","","null","
                <div class=""stimulus-container"">
                    <img src=""images/causal_sequence/dog_causal/dog_causal_6.png"" class=""exp-image"">
                    <div class=""question-area""></div> 
                </div>","null","","","","","","","","","","","",""
"","","","","","html-button-response","91","348014","0.0-91.0","76EFAF0D9F6E4CFFB7CB32910BECA832","019dac67-b6c4-7880-9f84-0bcd07fbcd93","019dac5b-243f-7307-af64-a10f53f1ef70","","1402","
                <div class=""stimulus-container"">
                    <img src=""images/causal_sequence/dog_causal/dog_causal_6.png"" class=""exp-image"">
                    <div class=""question-area"">
                        <p style=""font-size: 20px; font-weight: bold; margin: 0;"">Is there a person in this image?</p>
                    </div>
                </div>","0","main_experiment_trial","6","dog_causal","causal_sequence","chronological","","","","","","",""
"","","","","","html-keyboard-response","92","353018","0.0-92.0","76EFAF0D9F6E4CFFB7CB32910BECA832","019dac67-b6c4-7880-9f84-0bcd07fbcd93","019dac5b-243f-7307-af64-a10f53f1ef70","","null","
                <div class=""stimulus-container"">
                    <img src=""images/causal_sequence/dog_causal/dog_causal_7.png"" class=""exp-image"">
                    <div class=""question-area""></div> 
                </div>","null","","","","","","","","","","","",""
"","","","","","html-button-response","93","354843","0.0-93.0","76EFAF0D9F6E4CFFB7CB32910BECA832","019dac67-b6c4-7880-9f84-0bcd07fbcd93","019dac5b-243f-7307-af64-a10f53f1ef70","","1825","
                <div class=""stimulus-container"">
                    <img src=""images/causal_sequence/dog_causal/dog_causal_7.png"" class=""exp-image"">
                    <div class=""question-area"">
                        <p style=""font-size: 20px; font-weight: bold; margin: 0;"">Is there a person in this image?</p>
                    </div>
                </div>","0","main_experiment_trial","7","dog_causal","causal_sequence","chronological","","","","","","",""
"","","","","","html-keyboard-response","94","359854","0.0-94.0","76EFAF0D9F6E4CFFB7CB32910BECA832","019dac67-b6c4-7880-9f84-0bcd07fbcd93","019dac5b-243f-7307-af64-a10f53f1ef70","","null","
                <div class=""stimulus-container"">
                    <img src=""images/causal_sequence/dog_causal/dog_causal_8.png"" class=""exp-image"">
                    <div class=""question-area""></div> 
                </div>","null","","","","","","","","","","","",""
"","","","","","html-button-response","95","361647","0.0-95.0","76EFAF0D9F6E4CFFB7CB32910BECA832","019dac67-b6c4-7880-9f84-0bcd07fbcd93","019dac5b-243f-7307-af64-a10f53f1ef70","","1792","
                <div class=""stimulus-container"">
                    <img src=""images/causal_sequence/dog_causal/dog_causal_8.png"" class=""exp-image"">
                    <div class=""question-area"">
                        <p style=""font-size: 20px; font-weight: bold; margin: 0;"">Is there a person in this image?</p>
                    </div>
                </div>","0","main_experiment_trial","8","dog_causal","causal_sequence","chronological","","","","","","",""
"","","","","","html-keyboard-response","96","366652","0.0-96.0","76EFAF0D9F6E4CFFB7CB32910BECA832","019dac67-b6c4-7880-9f84-0bcd07fbcd93","019dac5b-243f-7307-af64-a10f53f1ef70","","null","
                <div class=""stimulus-container"">
                    <img src=""images/causal_sequence/dog_causal/dog_causal_9.png"" class=""exp-image"">
                    <div class=""question-area""></div> 
                </div>","null","","","","","","","","","","","",""
"","","","","","html-button-response","97","367330","0.0-97.0","76EFAF0D9F6E4CFFB7CB32910BECA832","019dac67-b6c4-7880-9f84-0bcd07fbcd93","019dac5b-243f-7307-af64-a10f53f1ef70","","677","
                <div class=""stimulus-container"">
                    <img src=""images/causal_sequence/dog_causal/dog_causal_9.png"" class=""exp-image"">
                    <div class=""question-area"">
                        <p style=""font-size: 20px; font-weight: bold; margin: 0;"">Is there a person in this image?</p>
                    </div>
                </div>","0","main_experiment_trial","9","dog_causal","causal_sequence","chronological","","","","","","",""
"","","","","","html-keyboard-response","98","372332","0.0-98.0","76EFAF0D9F6E4CFFB7CB32910BECA832","019dac67-b6c4-7880-9f84-0bcd07fbcd93","019dac5b-243f-7307-af64-a10f53f1ef70","","null","
                <div class=""stimulus-container"">
                    <img src=""images/causal_sequence/dog_causal/dog_causal_ten.png"" class=""exp-image"">
                    <div class=""question-area""></div> 
                </div>","null","","","","","","","","","","","",""
"","","","","","html-button-response","99","373264","0.0-99.0","76EFAF0D9F6E4CFFB7CB32910BECA832","019dac67-b6c4-7880-9f84-0bcd07fbcd93","019dac5b-243f-7307-af64-a10f53f1ef70","","931","
                <div class=""stimulus-container"">
                    <img src=""images/causal_sequence/dog_causal/dog_causal_ten.png"" class=""exp-image"">
                    <div class=""question-area"">
                        <p style=""font-size: 20px; font-weight: bold; margin: 0;"">Is there a person in this image?</p>
                    </div>
                </div>","0","main_experiment_trial","ten","dog_causal","causal_sequence","chronological","","","","","","",""
"","","","","","html-keyboard-response","100","378273","0.0-100.0","76EFAF0D9F6E4CFFB7CB32910BECA832","019dac67-b6c4-7880-9f84-0bcd07fbcd93","019dac5b-243f-7307-af64-a10f53f1ef70","","null","<div style=""background-color: white; width: 100vw; height: 100vh;""></div>","null","","","","","","","","","","","",""
"","","","","","html-keyboard-response","101","383276","0.0-101.0","76EFAF0D9F6E4CFFB7CB32910BECA832","019dac67-b6c4-7880-9f84-0bcd07fbcd93","019dac5b-243f-7307-af64-a10f53f1ef70","","null","
                <div class=""stimulus-container"">
                    <img src=""images/semantic_sequence/maintaining_a_car_semantic/maintaining_a_car_semantic_1.png"" class=""exp-image"">
                    <div class=""question-area""></div> 
                </div>","null","","","","","","","","","","","",""
"","","","","","html-button-response","102","383957","0.0-102.0","76EFAF0D9F6E4CFFB7CB32910BECA832","019dac67-b6c4-7880-9f84-0bcd07fbcd93","019dac5b-243f-7307-af64-a10f53f1ef70","","681","
                <div class=""stimulus-container"">
                    <img src=""images/semantic_sequence/maintaining_a_car_semantic/maintaining_a_car_semantic_1.png"" class=""exp-image"">
                    <div class=""question-area"">
                        <p style=""font-size: 20px; font-weight: bold; margin: 0;"">Is there a person in this image?</p>
                    </div>
                </div>","0","main_experiment_trial","1","maintaining_a_car_semantic","semantic_sequence","chronological","","","","","","",""
"","","","","","html-keyboard-response","103","388962","0.0-103.0","76EFAF0D9F6E4CFFB7CB32910BECA832","019dac67-b6c4-7880-9f84-0bcd07fbcd93","019dac5b-243f-7307-af64-a10f53f1ef70","","null","
                <div class=""stimulus-container"">
                    <img src=""images/semantic_sequence/maintaining_a_car_semantic/maintaining_a_car_semantic_2.png"" class=""exp-image"">
                    <div class=""question-area""></div> 
                </div>","null","","","","","","","","","","","",""
"","","","","","html-button-response","104","390826","0.0-104.0","76EFAF0D9F6E4CFFB7CB32910BECA832","019dac67-b6c4-7880-9f84-0bcd07fbcd93","019dac5b-243f-7307-af64-a10f53f1ef70","","1863","
                <div class=""stimulus-container"">
                    <img src=""images/semantic_sequence/maintaining_a_car_semantic/maintaining_a_car_semantic_2.png"" class=""exp-image"">
                    <div class=""question-area"">
                        <p style=""font-size: 20px; font-weight: bold; margin: 0;"">Is there a person in this image?</p>
                    </div>
                </div>","0","main_experiment_trial","2","maintaining_a_car_semantic","semantic_sequence","chronological","","","","","","",""
"","","","","","html-keyboard-response","105","395837","0.0-105.0","76EFAF0D9F6E4CFFB7CB32910BECA832","019dac67-b6c4-7880-9f84-0bcd07fbcd93","019dac5b-243f-7307-af64-a10f53f1ef70","","null","
                <div class=""stimulus-container"">
                    <img src=""images/semantic_sequence/maintaining_a_car_semantic/maintaining_a_car_semantic_3.png"" class=""exp-image"">
                    <div class=""question-area""></div> 
                </div>","null","","","","","","","","","","","",""
"","","","","","html-button-response","106","396543","0.0-106.0","76EFAF0D9F6E4CFFB7CB32910BECA832","019dac67-b6c4-7880-9f84-0bcd07fbcd93","019dac5b-243f-7307-af64-a10f53f1ef70","","706","
                <div class=""stimulus-container"">
                    <img src=""images/semantic_sequence/maintaining_a_car_semantic/maintaining_a_car_semantic_3.png"" class=""exp-image"">
                    <div class=""question-area"">
                        <p style=""font-size: 20px; font-weight: bold; margin: 0;"">Is there a person in this image?</p>
                    </div>
                </div>","0","main_experiment_trial","3","maintaining_a_car_semantic","semantic_sequence","chronological","","","","","","",""
"","","","","","html-keyboard-response","107","401548","0.0-107.0","76EFAF0D9F6E4CFFB7CB32910BECA832","019dac67-b6c4-7880-9f84-0bcd07fbcd93","019dac5b-243f-7307-af64-a10f53f1ef70","","null","
                <div class=""stimulus-container"">
                    <img src=""images/semantic_sequence/maintaining_a_car_semantic/maintaining_a_car_semantic_4.png"" class=""exp-image"">
                    <div class=""question-area""></div> 
                </div>","null","","","","","","","","","","","",""
"","","","","","html-button-response","108","402712","0.0-108.0","76EFAF0D9F6E4CFFB7CB32910BECA832","019dac67-b6c4-7880-9f84-0bcd07fbcd93","019dac5b-243f-7307-af64-a10f53f1ef70","","1163","
                <div class=""stimulus-container"">
                    <img src=""images/semantic_sequence/maintaining_a_car_semantic/maintaining_a_car_semantic_4.png"" class=""exp-image"">
                    <div class=""question-area"">
                        <p style=""font-size: 20px; font-weight: bold; margin: 0;"">Is there a person in this image?</p>
                    </div>
                </div>","0","main_experiment_trial","4","maintaining_a_car_semantic","semantic_sequence","chronological","","","","","","",""
"","","","","","html-keyboard-response","109","407723","0.0-109.0","76EFAF0D9F6E4CFFB7CB32910BECA832","019dac67-b6c4-7880-9f84-0bcd07fbcd93","019dac5b-243f-7307-af64-a10f53f1ef70","","null","
                <div class=""stimulus-container"">
                    <img src=""images/semantic_sequence/maintaining_a_car_semantic/maintaining_a_car_semantic_5.png"" class=""exp-image"">
                    <div class=""question-area""></div> 
                </div>","null","","","","","","","","","","","",""
"","","","","","html-button-response","110","409743","0.0-110.0","76EFAF0D9F6E4CFFB7CB32910BECA832","019dac67-b6c4-7880-9f84-0bcd07fbcd93","019dac5b-243f-7307-af64-a10f53f1ef70","","2020","
                <div class=""stimulus-container"">
                    <img src=""images/semantic_sequence/maintaining_a_car_semantic/maintaining_a_car_semantic_5.png"" class=""exp-image"">
                    <div class=""question-area"">
                        <p style=""font-size: 20px; font-weight: bold; margin: 0;"">Is there a person in this image?</p>
                    </div>
                </div>","0","main_experiment_trial","5","maintaining_a_car_semantic","semantic_sequence","chronological","","","","","","",""
"","","","","","html-keyboard-response","111","414755","0.0-111.0","76EFAF0D9F6E4CFFB7CB32910BECA832","019dac67-b6c4-7880-9f84-0bcd07fbcd93","019dac5b-243f-7307-af64-a10f53f1ef70","","null","
                <div class=""stimulus-container"">
                    <img src=""images/semantic_sequence/maintaining_a_car_semantic/maintaining_a_car_semantic_6.png"" class=""exp-image"">
                    <div class=""question-area""></div> 
                </div>","null","","","","","","","","","","","",""
"","","","","","html-button-response","112","415370","0.0-112.0","76EFAF0D9F6E4CFFB7CB32910BECA832","019dac67-b6c4-7880-9f84-0bcd07fbcd93","019dac5b-243f-7307-af64-a10f53f1ef70","","614","
                <div class=""stimulus-container"">
                    <img src=""images/semantic_sequence/maintaining_a_car_semantic/maintaining_a_car_semantic_6.png"" class=""exp-image"">
                    <div class=""question-area"">
                        <p style=""font-size: 20px; font-weight: bold; margin: 0;"">Is there a person in this image?</p>
                    </div>
                </div>","0","main_experiment_trial","6","maintaining_a_car_semantic","semantic_sequence","chronological","","","","","","",""
"","","","","","html-keyboard-response","113","420383","0.0-113.0","76EFAF0D9F6E4CFFB7CB32910BECA832","019dac67-b6c4-7880-9f84-0bcd07fbcd93","019dac5b-243f-7307-af64-a10f53f1ef70","","null","
                <div class=""stimulus-container"">
                    <img src=""images/semantic_sequence/maintaining_a_car_semantic/maintaining_a_car_semantic_7.png"" class=""exp-image"">
                    <div class=""question-area""></div> 
                </div>","null","","","","","","","","","","","",""
"","","","","","html-button-response","114","421661","0.0-114.0","76EFAF0D9F6E4CFFB7CB32910BECA832","019dac67-b6c4-7880-9f84-0bcd07fbcd93","019dac5b-243f-7307-af64-a10f53f1ef70","","1277","
                <div class=""stimulus-container"">
                    <img src=""images/semantic_sequence/maintaining_a_car_semantic/maintaining_a_car_semantic_7.png"" class=""exp-image"">
                    <div class=""question-area"">
                        <p style=""font-size: 20px; font-weight: bold; margin: 0;"">Is there a person in this image?</p>
                    </div>
                </div>","0","main_experiment_trial","7","maintaining_a_car_semantic","semantic_sequence","chronological","","","","","","",""
"","","","","","html-keyboard-response","115","426673","0.0-115.0","76EFAF0D9F6E4CFFB7CB32910BECA832","019dac67-b6c4-7880-9f84-0bcd07fbcd93","019dac5b-243f-7307-af64-a10f53f1ef70","","null","
                <div class=""stimulus-container"">
                    <img src=""images/semantic_sequence/maintaining_a_car_semantic/maintaining_a_car_semantic_8.png"" class=""exp-image"">
                    <div class=""question-area""></div> 
                </div>","null","","","","","","","","","","","",""
"","","","","","html-button-response","116","428595","0.0-116.0","76EFAF0D9F6E4CFFB7CB32910BECA832","019dac67-b6c4-7880-9f84-0bcd07fbcd93","019dac5b-243f-7307-af64-a10f53f1ef70","","1920","
                <div class=""stimulus-container"">
                    <img src=""images/semantic_sequence/maintaining_a_car_semantic/maintaining_a_car_semantic_8.png"" class=""exp-image"">
                    <div class=""question-area"">
                        <p style=""font-size: 20px; font-weight: bold; margin: 0;"">Is there a person in this image?</p>
                    </div>
                </div>","0","main_experiment_trial","8","maintaining_a_car_semantic","semantic_sequence","chronological","","","","","","",""
"","","","","","html-keyboard-response","117","433611","0.0-117.0","76EFAF0D9F6E4CFFB7CB32910BECA832","019dac67-b6c4-7880-9f84-0bcd07fbcd93","019dac5b-243f-7307-af64-a10f53f1ef70","","null","
                <div class=""stimulus-container"">
                    <img src=""images/semantic_sequence/maintaining_a_car_semantic/maintaining_a_car_semantic_9.png"" class=""exp-image"">
                    <div class=""question-area""></div> 
                </div>","null","","","","","","","","","","","",""
"","","","","","html-button-response","118","435521","0.0-118.0","76EFAF0D9F6E4CFFB7CB32910BECA832","019dac67-b6c4-7880-9f84-0bcd07fbcd93","019dac5b-243f-7307-af64-a10f53f1ef70","","1909","
                <div class=""stimulus-container"">
                    <img src=""images/semantic_sequence/maintaining_a_car_semantic/maintaining_a_car_semantic_9.png"" class=""exp-image"">
                    <div class=""question-area"">
                        <p style=""font-size: 20px; font-weight: bold; margin: 0;"">Is there a person in this image?</p>
                    </div>
                </div>","0","main_experiment_trial","9","maintaining_a_car_semantic","semantic_sequence","chronological","","","","","","",""
"","","","","","html-keyboard-response","119","440522","0.0-119.0","76EFAF0D9F6E4CFFB7CB32910BECA832","019dac67-b6c4-7880-9f84-0bcd07fbcd93","019dac5b-243f-7307-af64-a10f53f1ef70","","null","
                <div class=""stimulus-container"">
                    <img src=""images/semantic_sequence/maintaining_a_car_semantic/maintaining_a_car_semantic_ten.png"" class=""exp-image"">
                    <div class=""question-area""></div> 
                </div>","null","","","","","","","","","","","",""
"","","","","","html-button-response","120","441898","0.0-120.0","76EFAF0D9F6E4CFFB7CB32910BECA832","019dac67-b6c4-7880-9f84-0bcd07fbcd93","019dac5b-243f-7307-af64-a10f53f1ef70","","1376","
                <div class=""stimulus-container"">
                    <img src=""images/semantic_sequence/maintaining_a_car_semantic/maintaining_a_car_semantic_ten.png"" class=""exp-image"">
                    <div class=""question-area"">
                        <p style=""font-size: 20px; font-weight: bold; margin: 0;"">Is there a person in this image?</p>
                    </div>
                </div>","0","main_experiment_trial","ten","maintaining_a_car_semantic","semantic_sequence","chronological","","","","","","",""
"","","","","","html-keyboard-response","121","446908","0.0-121.0","76EFAF0D9F6E4CFFB7CB32910BECA832","019dac67-b6c4-7880-9f84-0bcd07fbcd93","019dac5b-243f-7307-af64-a10f53f1ef70","","null","<div style=""background-color: white; width: 100vw; height: 100vh;""></div>","null","","","","","","","","","","","",""
"","","","","","html-keyboard-response","122","451911","0.0-122.0","76EFAF0D9F6E4CFFB7CB32910BECA832","019dac67-b6c4-7880-9f84-0bcd07fbcd93","019dac5b-243f-7307-af64-a10f53f1ef70","","null","
                <div class=""stimulus-container"">
                    <img src=""images/semantic_sequence/visiting_cities_semantic/visiting_cities_semantic_1.png"" class=""exp-image"">
                    <div class=""question-area""></div> 
                </div>","null","","","","","","","","","","","",""
"","","","","","html-button-response","123","454922","0.0-123.0","76EFAF0D9F6E4CFFB7CB32910BECA832","019dac67-b6c4-7880-9f84-0bcd07fbcd93","019dac5b-243f-7307-af64-a10f53f1ef70","","null","
                <div class=""stimulus-container"">
                    <img src=""images/semantic_sequence/visiting_cities_semantic/visiting_cities_semantic_1.png"" class=""exp-image"">
                    <div class=""question-area"">
                        <p style=""font-size: 20px; font-weight: bold; margin: 0;"">Is there a person in this image?</p>
                    </div>
                </div>","null","main_experiment_trial","1","visiting_cities_semantic","semantic_sequence","chronological","","","","","","",""
"","","","","","html-keyboard-response","124","459937","0.0-124.0","76EFAF0D9F6E4CFFB7CB32910BECA832","019dac67-b6c4-7880-9f84-0bcd07fbcd93","019dac5b-243f-7307-af64-a10f53f1ef70","","null","
                <div class=""stimulus-container"">
                    <img src=""images/semantic_sequence/visiting_cities_semantic/visiting_cities_semantic_2.png"" class=""exp-image"">
                    <div class=""question-area""></div> 
                </div>","null","","","","","","","","","","","",""
"","","","","","html-button-response","125","462940","0.0-125.0","76EFAF0D9F6E4CFFB7CB32910BECA832","019dac67-b6c4-7880-9f84-0bcd07fbcd93","019dac5b-243f-7307-af64-a10f53f1ef70","","null","
                <div class=""stimulus-container"">
                    <img src=""images/semantic_sequence/visiting_cities_semantic/visiting_cities_semantic_2.png"" class=""exp-image"">
                    <div class=""question-area"">
                        <p style=""font-size: 20px; font-weight: bold; margin: 0;"">Is there a person in this image?</p>
                    </div>
                </div>","null","main_experiment_trial","2","visiting_cities_semantic","semantic_sequence","chronological","","","","","","",""
"","","","","","html-keyboard-response","126","467945","0.0-126.0","76EFAF0D9F6E4CFFB7CB32910BECA832","019dac67-b6c4-7880-9f84-0bcd07fbcd93","019dac5b-243f-7307-af64-a10f53f1ef70","","null","
                <div class=""stimulus-container"">
                    <img src=""images/semantic_sequence/visiting_cities_semantic/visiting_cities_semantic_3.png"" class=""exp-image"">
                    <div class=""question-area""></div> 
                </div>","null","","","","","","","","","","","",""
"","","","","","html-button-response","127","469055","0.0-127.0","76EFAF0D9F6E4CFFB7CB32910BECA832","019dac67-b6c4-7880-9f84-0bcd07fbcd93","019dac5b-243f-7307-af64-a10f53f1ef70","","1109","
                <div class=""stimulus-container"">
                    <img src=""images/semantic_sequence/visiting_cities_semantic/visiting_cities_semantic_3.png"" class=""exp-image"">
                    <div class=""question-area"">
                        <p style=""font-size: 20px; font-weight: bold; margin: 0;"">Is there a person in this image?</p>
                    </div>
                </div>","1","main_experiment_trial","3","visiting_cities_semantic","semantic_sequence","chronological","","","","","","",""
"","","","","","html-keyboard-response","128","474059","0.0-128.0","76EFAF0D9F6E4CFFB7CB32910BECA832","019dac67-b6c4-7880-9f84-0bcd07fbcd93","019dac5b-243f-7307-af64-a10f53f1ef70","","null","
                <div class=""stimulus-container"">
                    <img src=""images/semantic_sequence/visiting_cities_semantic/visiting_cities_semantic_4.png"" class=""exp-image"">
                    <div class=""question-area""></div> 
                </div>","null","","","","","","","","","","","",""
"","","","","","html-button-response","129","474684","0.0-129.0","76EFAF0D9F6E4CFFB7CB32910BECA832","019dac67-b6c4-7880-9f84-0bcd07fbcd93","019dac5b-243f-7307-af64-a10f53f1ef70","","624","
                <div class=""stimulus-container"">
                    <img src=""images/semantic_sequence/visiting_cities_semantic/visiting_cities_semantic_4.png"" class=""exp-image"">
                    <div class=""question-area"">
                        <p style=""font-size: 20px; font-weight: bold; margin: 0;"">Is there a person in this image?</p>
                    </div>
                </div>","1","main_experiment_trial","4","visiting_cities_semantic","semantic_sequence","chronological","","","","","","",""
"","","","","","html-keyboard-response","130","479692","0.0-130.0","76EFAF0D9F6E4CFFB7CB32910BECA832","019dac67-b6c4-7880-9f84-0bcd07fbcd93","019dac5b-243f-7307-af64-a10f53f1ef70","","null","
                <div class=""stimulus-container"">
                    <img src=""images/semantic_sequence/visiting_cities_semantic/visiting_cities_semantic_5.png"" class=""exp-image"">
                    <div class=""question-area""></div> 
                </div>","null","","","","","","","","","","","",""
"","","","","","html-button-response","131","482706","0.0-131.0","76EFAF0D9F6E4CFFB7CB32910BECA832","019dac67-b6c4-7880-9f84-0bcd07fbcd93","019dac5b-243f-7307-af64-a10f53f1ef70","","null","
                <div class=""stimulus-container"">
                    <img src=""images/semantic_sequence/visiting_cities_semantic/visiting_cities_semantic_5.png"" class=""exp-image"">
                    <div class=""question-area"">
                        <p style=""font-size: 20px; font-weight: bold; margin: 0;"">Is there a person in this image?</p>
                    </div>
                </div>","null","main_experiment_trial","5","visiting_cities_semantic","semantic_sequence","chronological","","","","","","",""
"","","","","","html-keyboard-response","132","487710","0.0-132.0","76EFAF0D9F6E4CFFB7CB32910BECA832","019dac67-b6c4-7880-9f84-0bcd07fbcd93","019dac5b-243f-7307-af64-a10f53f1ef70","","null","
                <div class=""stimulus-container"">
                    <img src=""images/semantic_sequence/visiting_cities_semantic/visiting_cities_semantic_6.png"" class=""exp-image"">
                    <div class=""question-area""></div> 
                </div>","null","","","","","","","","","","","",""
"","","","","","html-button-response","133","488281","0.0-133.0","76EFAF0D9F6E4CFFB7CB32910BECA832","019dac67-b6c4-7880-9f84-0bcd07fbcd93","019dac5b-243f-7307-af64-a10f53f1ef70","","570","
                <div class=""stimulus-container"">
                    <img src=""images/semantic_sequence/visiting_cities_semantic/visiting_cities_semantic_6.png"" class=""exp-image"">
                    <div class=""question-area"">
                        <p style=""font-size: 20px; font-weight: bold; margin: 0;"">Is there a person in this image?</p>
                    </div>
                </div>","1","main_experiment_trial","6","visiting_cities_semantic","semantic_sequence","chronological","","","","","","",""
"","","","","","html-keyboard-response","134","493283","0.0-134.0","76EFAF0D9F6E4CFFB7CB32910BECA832","019dac67-b6c4-7880-9f84-0bcd07fbcd93","019dac5b-243f-7307-af64-a10f53f1ef70","","null","
                <div class=""stimulus-container"">
                    <img src=""images/semantic_sequence/visiting_cities_semantic/visiting_cities_semantic_7.png"" class=""exp-image"">
                    <div class=""question-area""></div> 
                </div>","null","","","","","","","","","","","",""
"","","","","","html-button-response","135","493953","0.0-135.0","76EFAF0D9F6E4CFFB7CB32910BECA832","019dac67-b6c4-7880-9f84-0bcd07fbcd93","019dac5b-243f-7307-af64-a10f53f1ef70","","670","
                <div class=""stimulus-container"">
                    <img src=""images/semantic_sequence/visiting_cities_semantic/visiting_cities_semantic_7.png"" class=""exp-image"">
                    <div class=""question-area"">
                        <p style=""font-size: 20px; font-weight: bold; margin: 0;"">Is there a person in this image?</p>
                    </div>
                </div>","0","main_experiment_trial","7","visiting_cities_semantic","semantic_sequence","chronological","","","","","","",""
"","","","","","html-keyboard-response","136","498956","0.0-136.0","76EFAF0D9F6E4CFFB7CB32910BECA832","019dac67-b6c4-7880-9f84-0bcd07fbcd93","019dac5b-243f-7307-af64-a10f53f1ef70","","null","
                <div class=""stimulus-container"">
                    <img src=""images/semantic_sequence/visiting_cities_semantic/visiting_cities_semantic_8.png"" class=""exp-image"">
                    <div class=""question-area""></div> 
                </div>","null","","","","","","","","","","","",""
"","","","","","html-button-response","137","499633","0.0-137.0","76EFAF0D9F6E4CFFB7CB32910BECA832","019dac67-b6c4-7880-9f84-0bcd07fbcd93","019dac5b-243f-7307-af64-a10f53f1ef70","","677","
                <div class=""stimulus-container"">
                    <img src=""images/semantic_sequence/visiting_cities_semantic/visiting_cities_semantic_8.png"" class=""exp-image"">
                    <div class=""question-area"">
                        <p style=""font-size: 20px; font-weight: bold; margin: 0;"">Is there a person in this image?</p>
                    </div>
                </div>","0","main_experiment_trial","8","visiting_cities_semantic","semantic_sequence","chronological","","","","","","",""
"","","","","","html-keyboard-response","138","504649","0.0-138.0","76EFAF0D9F6E4CFFB7CB32910BECA832","019dac67-b6c4-7880-9f84-0bcd07fbcd93","019dac5b-243f-7307-af64-a10f53f1ef70","","null","
                <div class=""stimulus-container"">
                    <img src=""images/semantic_sequence/visiting_cities_semantic/visiting_cities_semantic_9.png"" class=""exp-image"">
                    <div class=""question-area""></div> 
                </div>","null","","","","","","","","","","","",""
"","","","","","html-button-response","139","505640","0.0-139.0","76EFAF0D9F6E4CFFB7CB32910BECA832","019dac67-b6c4-7880-9f84-0bcd07fbcd93","019dac5b-243f-7307-af64-a10f53f1ef70","","990","
                <div class=""stimulus-container"">
                    <img src=""images/semantic_sequence/visiting_cities_semantic/visiting_cities_semantic_9.png"" class=""exp-image"">
                    <div class=""question-area"">
                        <p style=""font-size: 20px; font-weight: bold; margin: 0;"">Is there a person in this image?</p>
                    </div>
                </div>","0","main_experiment_trial","9","visiting_cities_semantic","semantic_sequence","chronological","","","","","","",""
"","","","","","html-keyboard-response","140","510650","0.0-140.0","76EFAF0D9F6E4CFFB7CB32910BECA832","019dac67-b6c4-7880-9f84-0bcd07fbcd93","019dac5b-243f-7307-af64-a10f53f1ef70","","null","
                <div class=""stimulus-container"">
                    <img src=""images/semantic_sequence/visiting_cities_semantic/visiting_cities_semantic_ten.png"" class=""exp-image"">
                    <div class=""question-area""></div> 
                </div>","null","","","","","","","","","","","",""
"","","","","","html-button-response","141","511556","0.0-141.0","76EFAF0D9F6E4CFFB7CB32910BECA832","019dac67-b6c4-7880-9f84-0bcd07fbcd93","019dac5b-243f-7307-af64-a10f53f1ef70","","905","
                <div class=""stimulus-container"">
                    <img src=""images/semantic_sequence/visiting_cities_semantic/visiting_cities_semantic_ten.png"" class=""exp-image"">
                    <div class=""question-area"">
                        <p style=""font-size: 20px; font-weight: bold; margin: 0;"">Is there a person in this image?</p>
                    </div>
                </div>","1","main_experiment_trial","ten","visiting_cities_semantic","semantic_sequence","chronological","","","","","","",""
"","","","","","html-keyboard-response","142","516558","0.0-142.0","76EFAF0D9F6E4CFFB7CB32910BECA832","019dac67-b6c4-7880-9f84-0bcd07fbcd93","019dac5b-243f-7307-af64-a10f53f1ef70","","null","<div style=""background-color: white; width: 100vw; height: 100vh;""></div>","null","","","","","","","","","","","",""
"","","","","","html-keyboard-response","143","521566","0.0-143.0","76EFAF0D9F6E4CFFB7CB32910BECA832","019dac67-b6c4-7880-9f84-0bcd07fbcd93","019dac5b-243f-7307-af64-a10f53f1ef70","","null","
                <div class=""stimulus-container"">
                    <img src=""images/causal_sequence/the_performance_causal/the_performance_causal_1.png"" class=""exp-image"">
                    <div class=""question-area""></div> 
                </div>","null","","","","","","","","","","","",""
"","","","","","html-button-response","144","522628","0.0-144.0","76EFAF0D9F6E4CFFB7CB32910BECA832","019dac67-b6c4-7880-9f84-0bcd07fbcd93","019dac5b-243f-7307-af64-a10f53f1ef70","","1062","
                <div class=""stimulus-container"">
                    <img src=""images/causal_sequence/the_performance_causal/the_performance_causal_1.png"" class=""exp-image"">
                    <div class=""question-area"">
                        <p style=""font-size: 20px; font-weight: bold; margin: 0;"">Is there a person in this image?</p>
                    </div>
                </div>","0","main_experiment_trial","1","the_performance_causal","causal_sequence","chronological","","","","","","",""
"","","","","","html-keyboard-response","145","527634","0.0-145.0","76EFAF0D9F6E4CFFB7CB32910BECA832","019dac67-b6c4-7880-9f84-0bcd07fbcd93","019dac5b-243f-7307-af64-a10f53f1ef70","","null","
                <div class=""stimulus-container"">
                    <img src=""images/causal_sequence/the_performance_causal/the_performance_causal_2.png"" class=""exp-image"">
                    <div class=""question-area""></div> 
                </div>","null","","","","","","","","","","","",""
"","","","","","html-button-response","146","530040","0.0-146.0","76EFAF0D9F6E4CFFB7CB32910BECA832","019dac67-b6c4-7880-9f84-0bcd07fbcd93","019dac5b-243f-7307-af64-a10f53f1ef70","","2405","
                <div class=""stimulus-container"">
                    <img src=""images/causal_sequence/the_performance_causal/the_performance_causal_2.png"" class=""exp-image"">
                    <div class=""question-area"">
                        <p style=""font-size: 20px; font-weight: bold; margin: 0;"">Is there a person in this image?</p>
                    </div>
                </div>","0","main_experiment_trial","2","the_performance_causal","causal_sequence","chronological","","","","","","",""
"","","","","","html-keyboard-response","147","535044","0.0-147.0","76EFAF0D9F6E4CFFB7CB32910BECA832","019dac67-b6c4-7880-9f84-0bcd07fbcd93","019dac5b-243f-7307-af64-a10f53f1ef70","","null","
                <div class=""stimulus-container"">
                    <img src=""images/causal_sequence/the_performance_causal/the_performance_causal_3.png"" class=""exp-image"">
                    <div class=""question-area""></div> 
                </div>","null","","","","","","","","","","","",""
"","","","","","html-button-response","148","535855","0.0-148.0","76EFAF0D9F6E4CFFB7CB32910BECA832","019dac67-b6c4-7880-9f84-0bcd07fbcd93","019dac5b-243f-7307-af64-a10f53f1ef70","","810","
                <div class=""stimulus-container"">
                    <img src=""images/causal_sequence/the_performance_causal/the_performance_causal_3.png"" class=""exp-image"">
                    <div class=""question-area"">
                        <p style=""font-size: 20px; font-weight: bold; margin: 0;"">Is there a person in this image?</p>
                    </div>
                </div>","0","main_experiment_trial","3","the_performance_causal","causal_sequence","chronological","","","","","","",""
"","","","","","html-keyboard-response","149","540868","0.0-149.0","76EFAF0D9F6E4CFFB7CB32910BECA832","019dac67-b6c4-7880-9f84-0bcd07fbcd93","019dac5b-243f-7307-af64-a10f53f1ef70","","null","
                <div class=""stimulus-container"">
                    <img src=""images/causal_sequence/the_performance_causal/the_performance_causal_4.png"" class=""exp-image"">
                    <div class=""question-area""></div> 
                </div>","null","","","","","","","","","","","",""
"","","","","","html-button-response","150","542788","0.0-150.0","76EFAF0D9F6E4CFFB7CB32910BECA832","019dac67-b6c4-7880-9f84-0bcd07fbcd93","019dac5b-243f-7307-af64-a10f53f1ef70","","1919","
                <div class=""stimulus-container"">
                    <img src=""images/causal_sequence/the_performance_causal/the_performance_causal_4.png"" class=""exp-image"">
                    <div class=""question-area"">
                        <p style=""font-size: 20px; font-weight: bold; margin: 0;"">Is there a person in this image?</p>
                    </div>
                </div>","0","main_experiment_trial","4","the_performance_causal","causal_sequence","chronological","","","","","","",""
"","","","","","html-keyboard-response","151","547798","0.0-151.0","76EFAF0D9F6E4CFFB7CB32910BECA832","019dac67-b6c4-7880-9f84-0bcd07fbcd93","019dac5b-243f-7307-af64-a10f53f1ef70","","null","
                <div class=""stimulus-container"">
                    <img src=""images/causal_sequence/the_performance_causal/the_performance_causal_5.png"" class=""exp-image"">
                    <div class=""question-area""></div> 
                </div>","null","","","","","","","","","","","",""
"","","","","","html-button-response","152","548403","0.0-152.0","76EFAF0D9F6E4CFFB7CB32910BECA832","019dac67-b6c4-7880-9f84-0bcd07fbcd93","019dac5b-243f-7307-af64-a10f53f1ef70","","605","
                <div class=""stimulus-container"">
                    <img src=""images/causal_sequence/the_performance_causal/the_performance_causal_5.png"" class=""exp-image"">
                    <div class=""question-area"">
                        <p style=""font-size: 20px; font-weight: bold; margin: 0;"">Is there a person in this image?</p>
                    </div>
                </div>","0","main_experiment_trial","5","the_performance_causal","causal_sequence","chronological","","","","","","",""
"","","","","","html-keyboard-response","153","553418","0.0-153.0","76EFAF0D9F6E4CFFB7CB32910BECA832","019dac67-b6c4-7880-9f84-0bcd07fbcd93","019dac5b-243f-7307-af64-a10f53f1ef70","","null","
                <div class=""stimulus-container"">
                    <img src=""images/causal_sequence/the_performance_causal/the_performance_causal_6.png"" class=""exp-image"">
                    <div class=""question-area""></div> 
                </div>","null","","","","","","","","","","","",""
"","","","","","html-button-response","154","554155","0.0-154.0","76EFAF0D9F6E4CFFB7CB32910BECA832","019dac67-b6c4-7880-9f84-0bcd07fbcd93","019dac5b-243f-7307-af64-a10f53f1ef70","","736","
                <div class=""stimulus-container"">
                    <img src=""images/causal_sequence/the_performance_causal/the_performance_causal_6.png"" class=""exp-image"">
                    <div class=""question-area"">
                        <p style=""font-size: 20px; font-weight: bold; margin: 0;"">Is there a person in this image?</p>
                    </div>
                </div>","0","main_experiment_trial","6","the_performance_causal","causal_sequence","chronological","","","","","","",""
"","","","","","html-keyboard-response","155","559161","0.0-155.0","76EFAF0D9F6E4CFFB7CB32910BECA832","019dac67-b6c4-7880-9f84-0bcd07fbcd93","019dac5b-243f-7307-af64-a10f53f1ef70","","null","
                <div class=""stimulus-container"">
                    <img src=""images/causal_sequence/the_performance_causal/the_performance_causal_7.png"" class=""exp-image"">
                    <div class=""question-area""></div> 
                </div>","null","","","","","","","","","","","",""
"","","","","","html-button-response","156","560306","0.0-156.0","76EFAF0D9F6E4CFFB7CB32910BECA832","019dac67-b6c4-7880-9f84-0bcd07fbcd93","019dac5b-243f-7307-af64-a10f53f1ef70","","1144","
                <div class=""stimulus-container"">
                    <img src=""images/causal_sequence/the_performance_causal/the_performance_causal_7.png"" class=""exp-image"">
                    <div class=""question-area"">
                        <p style=""font-size: 20px; font-weight: bold; margin: 0;"">Is there a person in this image?</p>
                    </div>
                </div>","0","main_experiment_trial","7","the_performance_causal","causal_sequence","chronological","","","","","","",""
"","","","","","html-keyboard-response","157","565321","0.0-157.0","76EFAF0D9F6E4CFFB7CB32910BECA832","019dac67-b6c4-7880-9f84-0bcd07fbcd93","019dac5b-243f-7307-af64-a10f53f1ef70","","null","
                <div class=""stimulus-container"">
                    <img src=""images/causal_sequence/the_performance_causal/the_performance_causal_8.png"" class=""exp-image"">
                    <div class=""question-area""></div> 
                </div>","null","","","","","","","","","","","",""
"","","","","","html-button-response","158","566407","0.0-158.0","76EFAF0D9F6E4CFFB7CB32910BECA832","019dac67-b6c4-7880-9f84-0bcd07fbcd93","019dac5b-243f-7307-af64-a10f53f1ef70","","1085","
                <div class=""stimulus-container"">
                    <img src=""images/causal_sequence/the_performance_causal/the_performance_causal_8.png"" class=""exp-image"">
                    <div class=""question-area"">
                        <p style=""font-size: 20px; font-weight: bold; margin: 0;"">Is there a person in this image?</p>
                    </div>
                </div>","0","main_experiment_trial","8","the_performance_causal","causal_sequence","chronological","","","","","","",""
"","","","","","html-keyboard-response","159","571411","0.0-159.0","76EFAF0D9F6E4CFFB7CB32910BECA832","019dac67-b6c4-7880-9f84-0bcd07fbcd93","019dac5b-243f-7307-af64-a10f53f1ef70","","null","
                <div class=""stimulus-container"">
                    <img src=""images/causal_sequence/the_performance_causal/the_performance_causal_9.png"" class=""exp-image"">
                    <div class=""question-area""></div> 
                </div>","null","","","","","","","","","","","",""
"","","","","","html-button-response","160","571985","0.0-160.0","76EFAF0D9F6E4CFFB7CB32910BECA832","019dac67-b6c4-7880-9f84-0bcd07fbcd93","019dac5b-243f-7307-af64-a10f53f1ef70","","573","
                <div class=""stimulus-container"">
                    <img src=""images/causal_sequence/the_performance_causal/the_performance_causal_9.png"" class=""exp-image"">
                    <div class=""question-area"">
                        <p style=""font-size: 20px; font-weight: bold; margin: 0;"">Is there a person in this image?</p>
                    </div>
                </div>","0","main_experiment_trial","9","the_performance_causal","causal_sequence","chronological","","","","","","",""
"","","","","","html-keyboard-response","161","576995","0.0-161.0","76EFAF0D9F6E4CFFB7CB32910BECA832","019dac67-b6c4-7880-9f84-0bcd07fbcd93","019dac5b-243f-7307-af64-a10f53f1ef70","","null","
                <div class=""stimulus-container"">
                    <img src=""images/causal_sequence/the_performance_causal/the_performance_causal_ten.png"" class=""exp-image"">
                    <div class=""question-area""></div> 
                </div>","null","","","","","","","","","","","",""
"","","","","","html-button-response","162","578373","0.0-162.0","76EFAF0D9F6E4CFFB7CB32910BECA832","019dac67-b6c4-7880-9f84-0bcd07fbcd93","019dac5b-243f-7307-af64-a10f53f1ef70","","1377","
                <div class=""stimulus-container"">
                    <img src=""images/causal_sequence/the_performance_causal/the_performance_causal_ten.png"" class=""exp-image"">
                    <div class=""question-area"">
                        <p style=""font-size: 20px; font-weight: bold; margin: 0;"">Is there a person in this image?</p>
                    </div>
                </div>","0","main_experiment_trial","ten","the_performance_causal","causal_sequence","chronological","","","","","","",""
"","","","","","html-keyboard-response","163","583383","0.0-163.0","76EFAF0D9F6E4CFFB7CB32910BECA832","019dac67-b6c4-7880-9f84-0bcd07fbcd93","019dac5b-243f-7307-af64-a10f53f1ef70","","null","<div style=""background-color: white; width: 100vw; height: 100vh;""></div>","null","","","","","","","","","","","",""
"","","","","","html-keyboard-response","164","588385","0.0-164.0","76EFAF0D9F6E4CFFB7CB32910BECA832","019dac67-b6c4-7880-9f84-0bcd07fbcd93","019dac5b-243f-7307-af64-a10f53f1ef70","","null","
                <div class=""stimulus-container"">
                    <img src=""images/causal_sequence/coin_causal/coin_causal_1.png"" class=""exp-image"">
                    <div class=""question-area""></div> 
                </div>","null","","","","","","","","","","","",""
"","","","","","html-button-response","165","589863","0.0-165.0","76EFAF0D9F6E4CFFB7CB32910BECA832","019dac67-b6c4-7880-9f84-0bcd07fbcd93","019dac5b-243f-7307-af64-a10f53f1ef70","","1477","
                <div class=""stimulus-container"">
                    <img src=""images/causal_sequence/coin_causal/coin_causal_1.png"" class=""exp-image"">
                    <div class=""question-area"">
                        <p style=""font-size: 20px; font-weight: bold; margin: 0;"">Is there a person in this image?</p>
                    </div>
                </div>","0","main_experiment_trial","1","coin_causal","causal_sequence","chronological","","","","","","",""
"","","","","","html-keyboard-response","166","594870","0.0-166.0","76EFAF0D9F6E4CFFB7CB32910BECA832","019dac67-b6c4-7880-9f84-0bcd07fbcd93","019dac5b-243f-7307-af64-a10f53f1ef70","","null","
                <div class=""stimulus-container"">
                    <img src=""images/causal_sequence/coin_causal/coin_causal_2.png"" class=""exp-image"">
                    <div class=""question-area""></div> 
                </div>","null","","","","","","","","","","","",""
"","","","","","html-button-response","167","596514","0.0-167.0","76EFAF0D9F6E4CFFB7CB32910BECA832","019dac67-b6c4-7880-9f84-0bcd07fbcd93","019dac5b-243f-7307-af64-a10f53f1ef70","","1643","
                <div class=""stimulus-container"">
                    <img src=""images/causal_sequence/coin_causal/coin_causal_2.png"" class=""exp-image"">
                    <div class=""question-area"">
                        <p style=""font-size: 20px; font-weight: bold; margin: 0;"">Is there a person in this image?</p>
                    </div>
                </div>","0","main_experiment_trial","2","coin_causal","causal_sequence","chronological","","","","","","",""
"","","","","","html-keyboard-response","168","601518","0.0-168.0","76EFAF0D9F6E4CFFB7CB32910BECA832","019dac67-b6c4-7880-9f84-0bcd07fbcd93","019dac5b-243f-7307-af64-a10f53f1ef70","","null","
                <div class=""stimulus-container"">
                    <img src=""images/causal_sequence/coin_causal/coin_causal_3.png"" class=""exp-image"">
                    <div class=""question-area""></div> 
                </div>","null","","","","","","","","","","","",""
"","","","","","html-button-response","169","603130","0.0-169.0","76EFAF0D9F6E4CFFB7CB32910BECA832","019dac67-b6c4-7880-9f84-0bcd07fbcd93","019dac5b-243f-7307-af64-a10f53f1ef70","","1611","
                <div class=""stimulus-container"">
                    <img src=""images/causal_sequence/coin_causal/coin_causal_3.png"" class=""exp-image"">
                    <div class=""question-area"">
                        <p style=""font-size: 20px; font-weight: bold; margin: 0;"">Is there a person in this image?</p>
                    </div>
                </div>","0","main_experiment_trial","3","coin_causal","causal_sequence","chronological","","","","","","",""
"","","","","","html-keyboard-response","170","608142","0.0-170.0","76EFAF0D9F6E4CFFB7CB32910BECA832","019dac67-b6c4-7880-9f84-0bcd07fbcd93","019dac5b-243f-7307-af64-a10f53f1ef70","","null","
                <div class=""stimulus-container"">
                    <img src=""images/causal_sequence/coin_causal/coin_causal_4.png"" class=""exp-image"">
                    <div class=""question-area""></div> 
                </div>","null","","","","","","","","","","","",""
"","","","","","html-button-response","171","609746","0.0-171.0","76EFAF0D9F6E4CFFB7CB32910BECA832","019dac67-b6c4-7880-9f84-0bcd07fbcd93","019dac5b-243f-7307-af64-a10f53f1ef70","","1604","
                <div class=""stimulus-container"">
                    <img src=""images/causal_sequence/coin_causal/coin_causal_4.png"" class=""exp-image"">
                    <div class=""question-area"">
                        <p style=""font-size: 20px; font-weight: bold; margin: 0;"">Is there a person in this image?</p>
                    </div>
                </div>","0","main_experiment_trial","4","coin_causal","causal_sequence","chronological","","","","","","",""
"","","","","","html-keyboard-response","172","614754","0.0-172.0","76EFAF0D9F6E4CFFB7CB32910BECA832","019dac67-b6c4-7880-9f84-0bcd07fbcd93","019dac5b-243f-7307-af64-a10f53f1ef70","","null","
                <div class=""stimulus-container"">
                    <img src=""images/causal_sequence/coin_causal/coin_causal_5.png"" class=""exp-image"">
                    <div class=""question-area""></div> 
                </div>","null","","","","","","","","","","","",""
"","","","","","html-button-response","173","617563","0.0-173.0","76EFAF0D9F6E4CFFB7CB32910BECA832","019dac67-b6c4-7880-9f84-0bcd07fbcd93","019dac5b-243f-7307-af64-a10f53f1ef70","","2808","
                <div class=""stimulus-container"">
                    <img src=""images/causal_sequence/coin_causal/coin_causal_5.png"" class=""exp-image"">
                    <div class=""question-area"">
                        <p style=""font-size: 20px; font-weight: bold; margin: 0;"">Is there a person in this image?</p>
                    </div>
                </div>","0","main_experiment_trial","5","coin_causal","causal_sequence","chronological","","","","","","",""
"","","","","","html-keyboard-response","174","622568","0.0-174.0","76EFAF0D9F6E4CFFB7CB32910BECA832","019dac67-b6c4-7880-9f84-0bcd07fbcd93","019dac5b-243f-7307-af64-a10f53f1ef70","","null","
                <div class=""stimulus-container"">
                    <img src=""images/causal_sequence/coin_causal/coin_causal_6.png"" class=""exp-image"">
                    <div class=""question-area""></div> 
                </div>","null","","","","","","","","","","","",""
"","","","","","html-button-response","175","623896","0.0-175.0","76EFAF0D9F6E4CFFB7CB32910BECA832","019dac67-b6c4-7880-9f84-0bcd07fbcd93","019dac5b-243f-7307-af64-a10f53f1ef70","","1327","
                <div class=""stimulus-container"">
                    <img src=""images/causal_sequence/coin_causal/coin_causal_6.png"" class=""exp-image"">
                    <div class=""question-area"">
                        <p style=""font-size: 20px; font-weight: bold; margin: 0;"">Is there a person in this image?</p>
                    </div>
                </div>","0","main_experiment_trial","6","coin_causal","causal_sequence","chronological","","","","","","",""
"","","","","","html-keyboard-response","176","628899","0.0-176.0","76EFAF0D9F6E4CFFB7CB32910BECA832","019dac67-b6c4-7880-9f84-0bcd07fbcd93","019dac5b-243f-7307-af64-a10f53f1ef70","","null","
