"success","timeout","failed_images","failed_audio","failed_video","trial_type","trial_index","time_elapsed","internal_node_id","subject_id","study_id","session_id","view_history","rt","stimulus","response","task","image_index","folder","sequence_type","valuable_image_index","reward_type","chosen_image_index","target_X","correct_choice"
"true","false","[]","[]","[]","preload","0","6725","0.0-0.0","6CD5331589A943B6872A294881D4E0DE","019cf835-8ff3-7bf2-9697-d31d4e6eaac8","019cf80d-4266-7117-8a51-54e13c84aca4","","","","","","","","","","","","",""
"","","","","","instructions","1","26654","0.0-1.0","6CD5331589A943B6872A294881D4E0DE","019cf835-8ff3-7bf2-9697-d31d4e6eaac8","019cf80d-4266-7117-8a51-54e13c84aca4","[{""page_index"":0,""viewing_time"":19929}]","19929","","","","","","","","","","",""
"","","","","","instructions","2","66576","0.0-2.0","6CD5331589A943B6872A294881D4E0DE","019cf835-8ff3-7bf2-9697-d31d4e6eaac8","019cf80d-4266-7117-8a51-54e13c84aca4","[{""page_index"":0,""viewing_time"":39921}]","39921","","","","","","","","","","",""
"true","","","","","fullscreen","3","70826","0.0-3.0","6CD5331589A943B6872A294881D4E0DE","019cf835-8ff3-7bf2-9697-d31d4e6eaac8","019cf80d-4266-7117-8a51-54e13c84aca4","","3248","","","","","","","","","","",""
"","","","","","instructions","4","77547","0.0-4.0","6CD5331589A943B6872A294881D4E0DE","019cf835-8ff3-7bf2-9697-d31d4e6eaac8","019cf80d-4266-7117-8a51-54e13c84aca4","[{""page_index"":0,""viewing_time"":6720}]","6721","","","","","","","","","","",""
"","","","","","instructions","5","80049","0.0-5.0","6CD5331589A943B6872A294881D4E0DE","019cf835-8ff3-7bf2-9697-d31d4e6eaac8","019cf80d-4266-7117-8a51-54e13c84aca4","[{""page_index"":0,""viewing_time"":2501}]","2502","","","","","","","","","","",""
"","","","","","html-keyboard-response","6","84056","0.0-6.0","6CD5331589A943B6872A294881D4E0DE","019cf835-8ff3-7bf2-9697-d31d4e6eaac8","019cf80d-4266-7117-8a51-54e13c84aca4","","null","
                <div class=""stimulus-container"">
                    <img src=""images/instructions/movie_1.png"" class=""exp-image"">
                    <div class=""question-area""></div> 
                </div>","null","","","","","","","","",""
"","","","","","html-button-response","7","86745","0.0-7.0","6CD5331589A943B6872A294881D4E0DE","019cf835-8ff3-7bf2-9697-d31d4e6eaac8","019cf80d-4266-7117-8a51-54e13c84aca4","","2685","
                <div class=""stimulus-container"">
                    <img src=""images/instructions/movie_1.png"" class=""exp-image"">
                    <div class=""question-area"">
                        <p style=""font-size: 20px; font-weight: bold; margin: 0;"">Was there a person in this image?</p>
                    </div>
                </div>","0","example_question","1","","","","","","",""
"","","","","","html-keyboard-response","8","90755","0.0-8.0","6CD5331589A943B6872A294881D4E0DE","019cf835-8ff3-7bf2-9697-d31d4e6eaac8","019cf80d-4266-7117-8a51-54e13c84aca4","","null","
                <div class=""stimulus-container"">
                    <img src=""images/instructions/movie_2.png"" class=""exp-image"">
                    <div class=""question-area""></div> 
                </div>","null","","","","","","","","",""
"","","","","","html-button-response","9","92197","0.0-9.0","6CD5331589A943B6872A294881D4E0DE","019cf835-8ff3-7bf2-9697-d31d4e6eaac8","019cf80d-4266-7117-8a51-54e13c84aca4","","1440","
                <div class=""stimulus-container"">
                    <img src=""images/instructions/movie_2.png"" class=""exp-image"">
                    <div class=""question-area"">
                        <p style=""font-size: 20px; font-weight: bold; margin: 0;"">Was there a person in this image?</p>
                    </div>
                </div>","0","example_question","2","","","","","","",""
"","","","","","html-keyboard-response","10","96207","0.0-10.0","6CD5331589A943B6872A294881D4E0DE","019cf835-8ff3-7bf2-9697-d31d4e6eaac8","019cf80d-4266-7117-8a51-54e13c84aca4","","null","
                <div class=""stimulus-container"">
                    <img src=""images/instructions/movie_3.png"" class=""exp-image"">
                    <div class=""question-area""></div> 
                </div>","null","","","","","","","","",""
"","","","","","html-button-response","11","96984","0.0-11.0","6CD5331589A943B6872A294881D4E0DE","019cf835-8ff3-7bf2-9697-d31d4e6eaac8","019cf80d-4266-7117-8a51-54e13c84aca4","","775","
                <div class=""stimulus-container"">
                    <img src=""images/instructions/movie_3.png"" class=""exp-image"">
                    <div class=""question-area"">
                        <p style=""font-size: 20px; font-weight: bold; margin: 0;"">Was there a person in this image?</p>
                    </div>
                </div>","0","example_question","3","","","","","","",""
"","","","","","html-keyboard-response","12","100987","0.0-12.0","6CD5331589A943B6872A294881D4E0DE","019cf835-8ff3-7bf2-9697-d31d4e6eaac8","019cf80d-4266-7117-8a51-54e13c84aca4","","null","
                <div class=""stimulus-container"">
                    <img src=""images/instructions/movie_4.png"" class=""exp-image"">
                    <div class=""question-area""></div> 
                </div>","null","","","","","","","","",""
"","","","","","html-button-response","13","102010","0.0-13.0","6CD5331589A943B6872A294881D4E0DE","019cf835-8ff3-7bf2-9697-d31d4e6eaac8","019cf80d-4266-7117-8a51-54e13c84aca4","","1020","
                <div class=""stimulus-container"">
                    <img src=""images/instructions/movie_4.png"" class=""exp-image"">
                    <div class=""question-area"">
                        <p style=""font-size: 20px; font-weight: bold; margin: 0;"">Was there a person in this image?</p>
                    </div>
                </div>","0","example_question","4","","","","","","",""
"","","","","","instructions","14","103755","0.0-14.0","6CD5331589A943B6872A294881D4E0DE","019cf835-8ff3-7bf2-9697-d31d4e6eaac8","019cf80d-4266-7117-8a51-54e13c84aca4","[{""page_index"":0,""viewing_time"":1745}]","1745","","","","","","","","","","",""
"","","","","","instructions","15","105794","0.0-15.0","6CD5331589A943B6872A294881D4E0DE","019cf835-8ff3-7bf2-9697-d31d4e6eaac8","019cf80d-4266-7117-8a51-54e13c84aca4","[{""page_index"":0,""viewing_time"":2037}]","2038","","","","","","","","","","",""
"","","","","","html-keyboard-response","16","106808","0.0-16.0","6CD5331589A943B6872A294881D4E0DE","019cf835-8ff3-7bf2-9697-d31d4e6eaac8","019cf80d-4266-7117-8a51-54e13c84aca4","","null","<div style=""background-color: white; width: 100vw; height: 100vh;""></div>","null","","","","","","","","",""
"","","","","","html-keyboard-response","17","111814","0.0-17.0","6CD5331589A943B6872A294881D4E0DE","019cf835-8ff3-7bf2-9697-d31d4e6eaac8","019cf80d-4266-7117-8a51-54e13c84aca4","","null","
                <div class=""stimulus-container"">
                    <img src=""images/schematic_sequence/hotel_scheme/hotel_scheme_1.png"" class=""exp-image"">
                    <div class=""question-area""></div> 
                </div>","null","","","","","","","","",""
"","","","","","html-button-response","18","113221","0.0-18.0","6CD5331589A943B6872A294881D4E0DE","019cf835-8ff3-7bf2-9697-d31d4e6eaac8","019cf80d-4266-7117-8a51-54e13c84aca4","","1407","
                <div class=""stimulus-container"">
                    <img src=""images/schematic_sequence/hotel_scheme/hotel_scheme_1.png"" class=""exp-image"">
                    <div class=""question-area"">
                        <p style=""font-size: 20px; font-weight: bold; margin: 0;"">Is there a person in this image?</p>
                    </div>
                </div>","1","main_experiment_trial","1","hotel_scheme","schematic_sequence","","","","",""
"","","","","","html-keyboard-response","19","118224","0.0-19.0","6CD5331589A943B6872A294881D4E0DE","019cf835-8ff3-7bf2-9697-d31d4e6eaac8","019cf80d-4266-7117-8a51-54e13c84aca4","","null","
                <div class=""stimulus-container"">
                    <img src=""images/schematic_sequence/hotel_scheme/hotel_scheme_2.png"" class=""exp-image"">
                    <div class=""question-area""></div> 
                </div>","null","","","","","","","","",""
"","","","","","html-button-response","20","119245","0.0-20.0","6CD5331589A943B6872A294881D4E0DE","019cf835-8ff3-7bf2-9697-d31d4e6eaac8","019cf80d-4266-7117-8a51-54e13c84aca4","","1020","
                <div class=""stimulus-container"">
                    <img src=""images/schematic_sequence/hotel_scheme/hotel_scheme_2.png"" class=""exp-image"">
                    <div class=""question-area"">
                        <p style=""font-size: 20px; font-weight: bold; margin: 0;"">Is there a person in this image?</p>
                    </div>
                </div>","0","main_experiment_trial","2","hotel_scheme","schematic_sequence","","","","",""
"","","","","","html-keyboard-response","21","124246","0.0-21.0","6CD5331589A943B6872A294881D4E0DE","019cf835-8ff3-7bf2-9697-d31d4e6eaac8","019cf80d-4266-7117-8a51-54e13c84aca4","","null","
                <div class=""stimulus-container"">
                    <img src=""images/schematic_sequence/hotel_scheme/hotel_scheme_3.png"" class=""exp-image"">
                    <div class=""question-area""></div> 
                </div>","null","","","","","","","","",""
"","","","","","html-button-response","22","126949","0.0-22.0","6CD5331589A943B6872A294881D4E0DE","019cf835-8ff3-7bf2-9697-d31d4e6eaac8","019cf80d-4266-7117-8a51-54e13c84aca4","","2702","
                <div class=""stimulus-container"">
                    <img src=""images/schematic_sequence/hotel_scheme/hotel_scheme_3.png"" class=""exp-image"">
                    <div class=""question-area"">
                        <p style=""font-size: 20px; font-weight: bold; margin: 0;"">Is there a person in this image?</p>
                    </div>
                </div>","0","main_experiment_trial","3","hotel_scheme","schematic_sequence","","","","",""
"","","","","","html-keyboard-response","23","131954","0.0-23.0","6CD5331589A943B6872A294881D4E0DE","019cf835-8ff3-7bf2-9697-d31d4e6eaac8","019cf80d-4266-7117-8a51-54e13c84aca4","","null","
                <div class=""stimulus-container"">
                    <img src=""images/schematic_sequence/hotel_scheme/hotel_scheme_4.png"" class=""exp-image"">
                    <div class=""question-area""></div> 
                </div>","null","","","","","","","","",""
"","","","","","html-button-response","24","132993","0.0-24.0","6CD5331589A943B6872A294881D4E0DE","019cf835-8ff3-7bf2-9697-d31d4e6eaac8","019cf80d-4266-7117-8a51-54e13c84aca4","","1037","
                <div class=""stimulus-container"">
                    <img src=""images/schematic_sequence/hotel_scheme/hotel_scheme_4.png"" class=""exp-image"">
                    <div class=""question-area"">
                        <p style=""font-size: 20px; font-weight: bold; margin: 0;"">Is there a person in this image?</p>
                    </div>
                </div>","1","main_experiment_trial","4","hotel_scheme","schematic_sequence","","","","",""
"","","","","","html-keyboard-response","25","137999","0.0-25.0","6CD5331589A943B6872A294881D4E0DE","019cf835-8ff3-7bf2-9697-d31d4e6eaac8","019cf80d-4266-7117-8a51-54e13c84aca4","","null","
                <div class=""stimulus-container"">
                    <img src=""images/schematic_sequence/hotel_scheme/hotel_scheme_5.png"" class=""exp-image"">
                    <div class=""question-area""></div> 
                </div>","null","","","","","","","","",""
"","","","","","html-button-response","26","139129","0.0-26.0","6CD5331589A943B6872A294881D4E0DE","019cf835-8ff3-7bf2-9697-d31d4e6eaac8","019cf80d-4266-7117-8a51-54e13c84aca4","","1130","
                <div class=""stimulus-container"">
                    <img src=""images/schematic_sequence/hotel_scheme/hotel_scheme_5.png"" class=""exp-image"">
                    <div class=""question-area"">
                        <p style=""font-size: 20px; font-weight: bold; margin: 0;"">Is there a person in this image?</p>
                    </div>
                </div>","0","main_experiment_trial","5","hotel_scheme","schematic_sequence","","","","",""
"","","","","","html-keyboard-response","27","144135","0.0-27.0","6CD5331589A943B6872A294881D4E0DE","019cf835-8ff3-7bf2-9697-d31d4e6eaac8","019cf80d-4266-7117-8a51-54e13c84aca4","","null","
                <div class=""stimulus-container"">
                    <img src=""images/schematic_sequence/hotel_scheme/hotel_scheme_6.png"" class=""exp-image"">
                    <div class=""question-area""></div> 
                </div>","null","","","","","","","","",""
"","","","","","html-button-response","28","144964","0.0-28.0","6CD5331589A943B6872A294881D4E0DE","019cf835-8ff3-7bf2-9697-d31d4e6eaac8","019cf80d-4266-7117-8a51-54e13c84aca4","","828","
                <div class=""stimulus-container"">
                    <img src=""images/schematic_sequence/hotel_scheme/hotel_scheme_6.png"" class=""exp-image"">
                    <div class=""question-area"">
                        <p style=""font-size: 20px; font-weight: bold; margin: 0;"">Is there a person in this image?</p>
                    </div>
                </div>","0","main_experiment_trial","6","hotel_scheme","schematic_sequence","","","","",""
"","","","","","html-keyboard-response","29","149970","0.0-29.0","6CD5331589A943B6872A294881D4E0DE","019cf835-8ff3-7bf2-9697-d31d4e6eaac8","019cf80d-4266-7117-8a51-54e13c84aca4","","null","
                <div class=""stimulus-container"">
                    <img src=""images/schematic_sequence/hotel_scheme/hotel_scheme_7.png"" class=""exp-image"">
                    <div class=""question-area""></div> 
                </div>","null","","","","","","","","",""
"","","","","","html-button-response","30","152973","0.0-30.0","6CD5331589A943B6872A294881D4E0DE","019cf835-8ff3-7bf2-9697-d31d4e6eaac8","019cf80d-4266-7117-8a51-54e13c84aca4","","null","
                <div class=""stimulus-container"">
                    <img src=""images/schematic_sequence/hotel_scheme/hotel_scheme_7.png"" class=""exp-image"">
                    <div class=""question-area"">
                        <p style=""font-size: 20px; font-weight: bold; margin: 0;"">Is there a person in this image?</p>
                    </div>
                </div>","null","main_experiment_trial","7","hotel_scheme","schematic_sequence","","","","",""
"","","","","","html-keyboard-response","31","157980","0.0-31.0","6CD5331589A943B6872A294881D4E0DE","019cf835-8ff3-7bf2-9697-d31d4e6eaac8","019cf80d-4266-7117-8a51-54e13c84aca4","","null","
                <div class=""stimulus-container"">
                    <img src=""images/schematic_sequence/hotel_scheme/hotel_scheme_8.png"" class=""exp-image"">
                    <div class=""question-area""></div> 
                </div>","null","","","","","","","","",""
"","","","","","html-button-response","32","160983","0.0-32.0","6CD5331589A943B6872A294881D4E0DE","019cf835-8ff3-7bf2-9697-d31d4e6eaac8","019cf80d-4266-7117-8a51-54e13c84aca4","","null","
                <div class=""stimulus-container"">
                    <img src=""images/schematic_sequence/hotel_scheme/hotel_scheme_8.png"" class=""exp-image"">
                    <div class=""question-area"">
                        <p style=""font-size: 20px; font-weight: bold; margin: 0;"">Is there a person in this image?</p>
                    </div>
                </div>","null","main_experiment_trial","8","hotel_scheme","schematic_sequence","","","","",""
"","","","","","html-keyboard-response","33","165986","0.0-33.0","6CD5331589A943B6872A294881D4E0DE","019cf835-8ff3-7bf2-9697-d31d4e6eaac8","019cf80d-4266-7117-8a51-54e13c84aca4","","null","
                <div class=""stimulus-container"">
                    <img src=""images/schematic_sequence/hotel_scheme/hotel_scheme_9.png"" class=""exp-image"">
                    <div class=""question-area""></div> 
                </div>","null","","","","","","","","",""
"","","","","","html-button-response","34","168990","0.0-34.0","6CD5331589A943B6872A294881D4E0DE","019cf835-8ff3-7bf2-9697-d31d4e6eaac8","019cf80d-4266-7117-8a51-54e13c84aca4","","null","
                <div class=""stimulus-container"">
                    <img src=""images/schematic_sequence/hotel_scheme/hotel_scheme_9.png"" class=""exp-image"">
                    <div class=""question-area"">
                        <p style=""font-size: 20px; font-weight: bold; margin: 0;"">Is there a person in this image?</p>
                    </div>
                </div>","null","main_experiment_trial","9","hotel_scheme","schematic_sequence","","","","",""
"","","","","","html-keyboard-response","35","173999","0.0-35.0","6CD5331589A943B6872A294881D4E0DE","019cf835-8ff3-7bf2-9697-d31d4e6eaac8","019cf80d-4266-7117-8a51-54e13c84aca4","","null","
                <div class=""stimulus-container"">
                    <img src=""images/schematic_sequence/hotel_scheme/hotel_scheme_ten.png"" class=""exp-image"">
                    <div class=""question-area""></div> 
                </div>","null","","","","","","","","",""
"","","","","","html-button-response","36","177013","0.0-36.0","6CD5331589A943B6872A294881D4E0DE","019cf835-8ff3-7bf2-9697-d31d4e6eaac8","019cf80d-4266-7117-8a51-54e13c84aca4","","null","
                <div class=""stimulus-container"">
                    <img src=""images/schematic_sequence/hotel_scheme/hotel_scheme_ten.png"" class=""exp-image"">
                    <div class=""question-area"">
                        <p style=""font-size: 20px; font-weight: bold; margin: 0;"">Is there a person in this image?</p>
                    </div>
                </div>","null","main_experiment_trial","ten","hotel_scheme","schematic_sequence","","","","",""
"","","","","","html-keyboard-response","37","178017","0.0-37.0","6CD5331589A943B6872A294881D4E0DE","019cf835-8ff3-7bf2-9697-d31d4e6eaac8","019cf80d-4266-7117-8a51-54e13c84aca4","","null","<div style=""background-color: white; width: 100vw; height: 100vh;""></div>","null","","","","","","","","",""
"","","","","","html-keyboard-response","38","183022","0.0-38.0","6CD5331589A943B6872A294881D4E0DE","019cf835-8ff3-7bf2-9697-d31d4e6eaac8","019cf80d-4266-7117-8a51-54e13c84aca4","","null","
                <div class=""stimulus-container"">
                    <img src=""images/schematic_sequence/supermarket_scheme/supermarket_scheme_1.png"" class=""exp-image"">
                    <div class=""question-area""></div> 
                </div>","null","","","","","","","","",""
"","","","","","html-button-response","39","185507","0.0-39.0","6CD5331589A943B6872A294881D4E0DE","019cf835-8ff3-7bf2-9697-d31d4e6eaac8","019cf80d-4266-7117-8a51-54e13c84aca4","","2485","
                <div class=""stimulus-container"">
                    <img src=""images/schematic_sequence/supermarket_scheme/supermarket_scheme_1.png"" class=""exp-image"">
                    <div class=""question-area"">
                        <p style=""font-size: 20px; font-weight: bold; margin: 0;"">Is there a person in this image?</p>
                    </div>
                </div>","1","main_experiment_trial","1","supermarket_scheme","schematic_sequence","","","","",""
"","","","","","html-keyboard-response","40","190509","0.0-40.0","6CD5331589A943B6872A294881D4E0DE","019cf835-8ff3-7bf2-9697-d31d4e6eaac8","019cf80d-4266-7117-8a51-54e13c84aca4","","null","
                <div class=""stimulus-container"">
                    <img src=""images/schematic_sequence/supermarket_scheme/supermarket_scheme_2.png"" class=""exp-image"">
                    <div class=""question-area""></div> 
                </div>","null","","","","","","","","",""
"","","","","","html-button-response","41","192844","0.0-41.0","6CD5331589A943B6872A294881D4E0DE","019cf835-8ff3-7bf2-9697-d31d4e6eaac8","019cf80d-4266-7117-8a51-54e13c84aca4","","2333","
                <div class=""stimulus-container"">
                    <img src=""images/schematic_sequence/supermarket_scheme/supermarket_scheme_2.png"" class=""exp-image"">
                    <div class=""question-area"">
                        <p style=""font-size: 20px; font-weight: bold; margin: 0;"">Is there a person in this image?</p>
                    </div>
                </div>","1","main_experiment_trial","2","supermarket_scheme","schematic_sequence","","","","",""
"","","","","","html-keyboard-response","42","197851","0.0-42.0","6CD5331589A943B6872A294881D4E0DE","019cf835-8ff3-7bf2-9697-d31d4e6eaac8","019cf80d-4266-7117-8a51-54e13c84aca4","","null","
                <div class=""stimulus-container"">
                    <img src=""images/schematic_sequence/supermarket_scheme/supermarket_scheme_3.png"" class=""exp-image"">
                    <div class=""question-area""></div> 
                </div>","null","","","","","","","","",""
"","","","","","html-button-response","43","198632","0.0-43.0","6CD5331589A943B6872A294881D4E0DE","019cf835-8ff3-7bf2-9697-d31d4e6eaac8","019cf80d-4266-7117-8a51-54e13c84aca4","","780","
                <div class=""stimulus-container"">
                    <img src=""images/schematic_sequence/supermarket_scheme/supermarket_scheme_3.png"" class=""exp-image"">
                    <div class=""question-area"">
                        <p style=""font-size: 20px; font-weight: bold; margin: 0;"">Is there a person in this image?</p>
                    </div>
                </div>","1","main_experiment_trial","3","supermarket_scheme","schematic_sequence","","","","",""
"","","","","","html-keyboard-response","44","203640","0.0-44.0","6CD5331589A943B6872A294881D4E0DE","019cf835-8ff3-7bf2-9697-d31d4e6eaac8","019cf80d-4266-7117-8a51-54e13c84aca4","","null","
                <div class=""stimulus-container"">
                    <img src=""images/schematic_sequence/supermarket_scheme/supermarket_scheme_4.png"" class=""exp-image"">
                    <div class=""question-area""></div> 
                </div>","null","","","","","","","","",""
"","","","","","html-button-response","45","206648","0.0-45.0","6CD5331589A943B6872A294881D4E0DE","019cf835-8ff3-7bf2-9697-d31d4e6eaac8","019cf80d-4266-7117-8a51-54e13c84aca4","","null","
                <div class=""stimulus-container"">
                    <img src=""images/schematic_sequence/supermarket_scheme/supermarket_scheme_4.png"" class=""exp-image"">
                    <div class=""question-area"">
                        <p style=""font-size: 20px; font-weight: bold; margin: 0;"">Is there a person in this image?</p>
                    </div>
                </div>","null","main_experiment_trial","4","supermarket_scheme","schematic_sequence","","","","",""
"","","","","","html-keyboard-response","46","211650","0.0-46.0","6CD5331589A943B6872A294881D4E0DE","019cf835-8ff3-7bf2-9697-d31d4e6eaac8","019cf80d-4266-7117-8a51-54e13c84aca4","","null","
                <div class=""stimulus-container"">
                    <img src=""images/schematic_sequence/supermarket_scheme/supermarket_scheme_5.png"" class=""exp-image"">
                    <div class=""question-area""></div> 
                </div>","null","","","","","","","","",""
"","","","","","html-button-response","47","212379","0.0-47.0","6CD5331589A943B6872A294881D4E0DE","019cf835-8ff3-7bf2-9697-d31d4e6eaac8","019cf80d-4266-7117-8a51-54e13c84aca4","","728","
                <div class=""stimulus-container"">
                    <img src=""images/schematic_sequence/supermarket_scheme/supermarket_scheme_5.png"" class=""exp-image"">
                    <div class=""question-area"">
                        <p style=""font-size: 20px; font-weight: bold; margin: 0;"">Is there a person in this image?</p>
                    </div>
                </div>","1","main_experiment_trial","5","supermarket_scheme","schematic_sequence","","","","",""
"","","","","","html-keyboard-response","48","217395","0.0-48.0","6CD5331589A943B6872A294881D4E0DE","019cf835-8ff3-7bf2-9697-d31d4e6eaac8","019cf80d-4266-7117-8a51-54e13c84aca4","","null","
                <div class=""stimulus-container"">
                    <img src=""images/schematic_sequence/supermarket_scheme/supermarket_scheme_6.png"" class=""exp-image"">
                    <div class=""question-area""></div> 
                </div>","null","","","","","","","","",""
"","","","","","html-button-response","49","218228","0.0-49.0","6CD5331589A943B6872A294881D4E0DE","019cf835-8ff3-7bf2-9697-d31d4e6eaac8","019cf80d-4266-7117-8a51-54e13c84aca4","","832","
                <div class=""stimulus-container"">
                    <img src=""images/schematic_sequence/supermarket_scheme/supermarket_scheme_6.png"" class=""exp-image"">
                    <div class=""question-area"">
                        <p style=""font-size: 20px; font-weight: bold; margin: 0;"">Is there a person in this image?</p>
                    </div>
                </div>","0","main_experiment_trial","6","supermarket_scheme","schematic_sequence","","","","",""
"","","","","","html-keyboard-response","50","223235","0.0-50.0","6CD5331589A943B6872A294881D4E0DE","019cf835-8ff3-7bf2-9697-d31d4e6eaac8","019cf80d-4266-7117-8a51-54e13c84aca4","","null","
                <div class=""stimulus-container"">
                    <img src=""images/schematic_sequence/supermarket_scheme/supermarket_scheme_7.png"" class=""exp-image"">
                    <div class=""question-area""></div> 
                </div>","null","","","","","","","","",""
"","","","","","html-button-response","51","225146","0.0-51.0","6CD5331589A943B6872A294881D4E0DE","019cf835-8ff3-7bf2-9697-d31d4e6eaac8","019cf80d-4266-7117-8a51-54e13c84aca4","","1909","
                <div class=""stimulus-container"">
                    <img src=""images/schematic_sequence/supermarket_scheme/supermarket_scheme_7.png"" class=""exp-image"">
                    <div class=""question-area"">
                        <p style=""font-size: 20px; font-weight: bold; margin: 0;"">Is there a person in this image?</p>
                    </div>
                </div>","0","main_experiment_trial","7","supermarket_scheme","schematic_sequence","","","","",""
"","","","","","html-keyboard-response","52","230158","0.0-52.0","6CD5331589A943B6872A294881D4E0DE","019cf835-8ff3-7bf2-9697-d31d4e6eaac8","019cf80d-4266-7117-8a51-54e13c84aca4","","null","
                <div class=""stimulus-container"">
                    <img src=""images/schematic_sequence/supermarket_scheme/supermarket_scheme_8.png"" class=""exp-image"">
                    <div class=""question-area""></div> 
                </div>","null","","","","","","","","",""
"","","","","","html-button-response","53","231355","0.0-53.0","6CD5331589A943B6872A294881D4E0DE","019cf835-8ff3-7bf2-9697-d31d4e6eaac8","019cf80d-4266-7117-8a51-54e13c84aca4","","1196","
                <div class=""stimulus-container"">
                    <img src=""images/schematic_sequence/supermarket_scheme/supermarket_scheme_8.png"" class=""exp-image"">
                    <div class=""question-area"">
                        <p style=""font-size: 20px; font-weight: bold; margin: 0;"">Is there a person in this image?</p>
                    </div>
                </div>","0","main_experiment_trial","8","supermarket_scheme","schematic_sequence","","","","",""
"","","","","","html-keyboard-response","54","236364","0.0-54.0","6CD5331589A943B6872A294881D4E0DE","019cf835-8ff3-7bf2-9697-d31d4e6eaac8","019cf80d-4266-7117-8a51-54e13c84aca4","","null","
                <div class=""stimulus-container"">
                    <img src=""images/schematic_sequence/supermarket_scheme/supermarket_scheme_9.png"" class=""exp-image"">
                    <div class=""question-area""></div> 
                </div>","null","","","","","","","","",""
"","","","","","html-button-response","55","237665","0.0-55.0","6CD5331589A943B6872A294881D4E0DE","019cf835-8ff3-7bf2-9697-d31d4e6eaac8","019cf80d-4266-7117-8a51-54e13c84aca4","","1299","
                <div class=""stimulus-container"">
                    <img src=""images/schematic_sequence/supermarket_scheme/supermarket_scheme_9.png"" class=""exp-image"">
                    <div class=""question-area"">
                        <p style=""font-size: 20px; font-weight: bold; margin: 0;"">Is there a person in this image?</p>
                    </div>
                </div>","0","main_experiment_trial","9","supermarket_scheme","schematic_sequence","","","","",""
"","","","","","html-keyboard-response","56","242671","0.0-56.0","6CD5331589A943B6872A294881D4E0DE","019cf835-8ff3-7bf2-9697-d31d4e6eaac8","019cf80d-4266-7117-8a51-54e13c84aca4","","null","
                <div class=""stimulus-container"">
                    <img src=""images/schematic_sequence/supermarket_scheme/supermarket_scheme_ten.png"" class=""exp-image"">
                    <div class=""question-area""></div> 
                </div>","null","","","","","","","","",""
"","","","","","html-button-response","57","244607","0.0-57.0","6CD5331589A943B6872A294881D4E0DE","019cf835-8ff3-7bf2-9697-d31d4e6eaac8","019cf80d-4266-7117-8a51-54e13c84aca4","","1936","
                <div class=""stimulus-container"">
                    <img src=""images/schematic_sequence/supermarket_scheme/supermarket_scheme_ten.png"" class=""exp-image"">
                    <div class=""question-area"">
                        <p style=""font-size: 20px; font-weight: bold; margin: 0;"">Is there a person in this image?</p>
                    </div>
                </div>","1","main_experiment_trial","ten","supermarket_scheme","schematic_sequence","","","","",""
"","","","","","html-keyboard-response","58","245614","0.0-58.0","6CD5331589A943B6872A294881D4E0DE","019cf835-8ff3-7bf2-9697-d31d4e6eaac8","019cf80d-4266-7117-8a51-54e13c84aca4","","null","<div style=""background-color: white; width: 100vw; height: 100vh;""></div>","null","","","","","","","","",""
"","","","","","html-keyboard-response","59","250621","0.0-59.0","6CD5331589A943B6872A294881D4E0DE","019cf835-8ff3-7bf2-9697-d31d4e6eaac8","019cf80d-4266-7117-8a51-54e13c84aca4","","null","
                <div class=""stimulus-container"">
                    <img src=""images/semantic_sequence/redecorating_a_house_semantic/redecorating_a_house_semantic_1.png"" class=""exp-image"">
                    <div class=""question-area""></div> 
                </div>","null","","","","","","","","",""
"","","","","","html-button-response","60","252470","0.0-60.0","6CD5331589A943B6872A294881D4E0DE","019cf835-8ff3-7bf2-9697-d31d4e6eaac8","019cf80d-4266-7117-8a51-54e13c84aca4","","1848","
                <div class=""stimulus-container"">
                    <img src=""images/semantic_sequence/redecorating_a_house_semantic/redecorating_a_house_semantic_1.png"" class=""exp-image"">
                    <div class=""question-area"">
                        <p style=""font-size: 20px; font-weight: bold; margin: 0;"">Is there a person in this image?</p>
                    </div>
                </div>","0","main_experiment_trial","1","redecorating_a_house_semantic","semantic_sequence","","","","",""
"","","","","","html-keyboard-response","61","257487","0.0-61.0","6CD5331589A943B6872A294881D4E0DE","019cf835-8ff3-7bf2-9697-d31d4e6eaac8","019cf80d-4266-7117-8a51-54e13c84aca4","","null","
                <div class=""stimulus-container"">
                    <img src=""images/semantic_sequence/redecorating_a_house_semantic/redecorating_a_house_semantic_2.png"" class=""exp-image"">
                    <div class=""question-area""></div> 
                </div>","null","","","","","","","","",""
"","","","","","html-button-response","62","258318","0.0-62.0","6CD5331589A943B6872A294881D4E0DE","019cf835-8ff3-7bf2-9697-d31d4e6eaac8","019cf80d-4266-7117-8a51-54e13c84aca4","","830","
                <div class=""stimulus-container"">
                    <img src=""images/semantic_sequence/redecorating_a_house_semantic/redecorating_a_house_semantic_2.png"" class=""exp-image"">
                    <div class=""question-area"">
                        <p style=""font-size: 20px; font-weight: bold; margin: 0;"">Is there a person in this image?</p>
                    </div>
                </div>","0","main_experiment_trial","2","redecorating_a_house_semantic","semantic_sequence","","","","",""
"","","","","","html-keyboard-response","63","263334","0.0-63.0","6CD5331589A943B6872A294881D4E0DE","019cf835-8ff3-7bf2-9697-d31d4e6eaac8","019cf80d-4266-7117-8a51-54e13c84aca4","","null","
                <div class=""stimulus-container"">
                    <img src=""images/semantic_sequence/redecorating_a_house_semantic/redecorating_a_house_semantic_3.png"" class=""exp-image"">
                    <div class=""question-area""></div> 
                </div>","null","","","","","","","","",""
"","","","","","html-button-response","64","265181","0.0-64.0","6CD5331589A943B6872A294881D4E0DE","019cf835-8ff3-7bf2-9697-d31d4e6eaac8","019cf80d-4266-7117-8a51-54e13c84aca4","","1844","
                <div class=""stimulus-container"">
                    <img src=""images/semantic_sequence/redecorating_a_house_semantic/redecorating_a_house_semantic_3.png"" class=""exp-image"">
                    <div class=""question-area"">
                        <p style=""font-size: 20px; font-weight: bold; margin: 0;"">Is there a person in this image?</p>
                    </div>
                </div>","0","main_experiment_trial","3","redecorating_a_house_semantic","semantic_sequence","","","","",""
"","","","","","html-keyboard-response","65","270184","0.0-65.0","6CD5331589A943B6872A294881D4E0DE","019cf835-8ff3-7bf2-9697-d31d4e6eaac8","019cf80d-4266-7117-8a51-54e13c84aca4","","null","
                <div class=""stimulus-container"">
                    <img src=""images/semantic_sequence/redecorating_a_house_semantic/redecorating_a_house_semantic_4.png"" class=""exp-image"">
                    <div class=""question-area""></div> 
                </div>","null","","","","","","","","",""
"","","","","","html-button-response","66","272746","0.0-66.0","6CD5331589A943B6872A294881D4E0DE","019cf835-8ff3-7bf2-9697-d31d4e6eaac8","019cf80d-4266-7117-8a51-54e13c84aca4","","2561","
                <div class=""stimulus-container"">
                    <img src=""images/semantic_sequence/redecorating_a_house_semantic/redecorating_a_house_semantic_4.png"" class=""exp-image"">
                    <div class=""question-area"">
                        <p style=""font-size: 20px; font-weight: bold; margin: 0;"">Is there a person in this image?</p>
                    </div>
                </div>","0","main_experiment_trial","4","redecorating_a_house_semantic","semantic_sequence","","","","",""
"","","","","","html-keyboard-response","67","277759","0.0-67.0","6CD5331589A943B6872A294881D4E0DE","019cf835-8ff3-7bf2-9697-d31d4e6eaac8","019cf80d-4266-7117-8a51-54e13c84aca4","","null","
                <div class=""stimulus-container"">
                    <img src=""images/semantic_sequence/redecorating_a_house_semantic/redecorating_a_house_semantic_5.png"" class=""exp-image"">
                    <div class=""question-area""></div> 
                </div>","null","","","","","","","","",""
"","","","","","html-button-response","68","278848","0.0-68.0","6CD5331589A943B6872A294881D4E0DE","019cf835-8ff3-7bf2-9697-d31d4e6eaac8","019cf80d-4266-7117-8a51-54e13c84aca4","","1088","
                <div class=""stimulus-container"">
                    <img src=""images/semantic_sequence/redecorating_a_house_semantic/redecorating_a_house_semantic_5.png"" class=""exp-image"">
                    <div class=""question-area"">
                        <p style=""font-size: 20px; font-weight: bold; margin: 0;"">Is there a person in this image?</p>
                    </div>
                </div>","0","main_experiment_trial","5","redecorating_a_house_semantic","semantic_sequence","","","","",""
"","","","","","html-keyboard-response","69","283854","0.0-69.0","6CD5331589A943B6872A294881D4E0DE","019cf835-8ff3-7bf2-9697-d31d4e6eaac8","019cf80d-4266-7117-8a51-54e13c84aca4","","null","
                <div class=""stimulus-container"">
                    <img src=""images/semantic_sequence/redecorating_a_house_semantic/redecorating_a_house_semantic_6.png"" class=""exp-image"">
                    <div class=""question-area""></div> 
                </div>","null","","","","","","","","",""
"","","","","","html-button-response","70","284422","0.0-70.0","6CD5331589A943B6872A294881D4E0DE","019cf835-8ff3-7bf2-9697-d31d4e6eaac8","019cf80d-4266-7117-8a51-54e13c84aca4","","566","
                <div class=""stimulus-container"">
                    <img src=""images/semantic_sequence/redecorating_a_house_semantic/redecorating_a_house_semantic_6.png"" class=""exp-image"">
                    <div class=""question-area"">
                        <p style=""font-size: 20px; font-weight: bold; margin: 0;"">Is there a person in this image?</p>
                    </div>
                </div>","0","main_experiment_trial","6","redecorating_a_house_semantic","semantic_sequence","","","","",""
"","","","","","html-keyboard-response","71","289435","0.0-71.0","6CD5331589A943B6872A294881D4E0DE","019cf835-8ff3-7bf2-9697-d31d4e6eaac8","019cf80d-4266-7117-8a51-54e13c84aca4","","null","
                <div class=""stimulus-container"">
                    <img src=""images/semantic_sequence/redecorating_a_house_semantic/redecorating_a_house_semantic_7.png"" class=""exp-image"">
                    <div class=""question-area""></div> 
                </div>","null","","","","","","","","",""
"","","","","","html-button-response","72","290933","0.0-72.0","6CD5331589A943B6872A294881D4E0DE","019cf835-8ff3-7bf2-9697-d31d4e6eaac8","019cf80d-4266-7117-8a51-54e13c84aca4","","1498","
                <div class=""stimulus-container"">
                    <img src=""images/semantic_sequence/redecorating_a_house_semantic/redecorating_a_house_semantic_7.png"" class=""exp-image"">
                    <div class=""question-area"">
                        <p style=""font-size: 20px; font-weight: bold; margin: 0;"">Is there a person in this image?</p>
                    </div>
                </div>","0","main_experiment_trial","7","redecorating_a_house_semantic","semantic_sequence","","","","",""
"","","","","","html-keyboard-response","73","295947","0.0-73.0","6CD5331589A943B6872A294881D4E0DE","019cf835-8ff3-7bf2-9697-d31d4e6eaac8","019cf80d-4266-7117-8a51-54e13c84aca4","","null","
                <div class=""stimulus-container"">
                    <img src=""images/semantic_sequence/redecorating_a_house_semantic/redecorating_a_house_semantic_8.png"" class=""exp-image"">
                    <div class=""question-area""></div> 
                </div>","null","","","","","","","","",""
"","","","","","html-button-response","74","298665","0.0-74.0","6CD5331589A943B6872A294881D4E0DE","019cf835-8ff3-7bf2-9697-d31d4e6eaac8","019cf80d-4266-7117-8a51-54e13c84aca4","","2716","
                <div class=""stimulus-container"">
                    <img src=""images/semantic_sequence/redecorating_a_house_semantic/redecorating_a_house_semantic_8.png"" class=""exp-image"">
                    <div class=""question-area"">
                        <p style=""font-size: 20px; font-weight: bold; margin: 0;"">Is there a person in this image?</p>
                    </div>
                </div>","0","main_experiment_trial","8","redecorating_a_house_semantic","semantic_sequence","","","","",""
"","","","","","html-keyboard-response","75","303671","0.0-75.0","6CD5331589A943B6872A294881D4E0DE","019cf835-8ff3-7bf2-9697-d31d4e6eaac8","019cf80d-4266-7117-8a51-54e13c84aca4","","null","
                <div class=""stimulus-container"">
                    <img src=""images/semantic_sequence/redecorating_a_house_semantic/redecorating_a_house_semantic_9.png"" class=""exp-image"">
                    <div class=""question-area""></div> 
                </div>","null","","","","","","","","",""
"","","","","","html-button-response","76","304302","0.0-76.0","6CD5331589A943B6872A294881D4E0DE","019cf835-8ff3-7bf2-9697-d31d4e6eaac8","019cf80d-4266-7117-8a51-54e13c84aca4","","631","
                <div class=""stimulus-container"">
                    <img src=""images/semantic_sequence/redecorating_a_house_semantic/redecorating_a_house_semantic_9.png"" class=""exp-image"">
                    <div class=""question-area"">
                        <p style=""font-size: 20px; font-weight: bold; margin: 0;"">Is there a person in this image?</p>
                    </div>
                </div>","0","main_experiment_trial","9","redecorating_a_house_semantic","semantic_sequence","","","","",""
"","","","","","html-keyboard-response","77","309318","0.0-77.0","6CD5331589A943B6872A294881D4E0DE","019cf835-8ff3-7bf2-9697-d31d4e6eaac8","019cf80d-4266-7117-8a51-54e13c84aca4","","null","
                <div class=""stimulus-container"">
                    <img src=""images/semantic_sequence/redecorating_a_house_semantic/redecorating_a_house_semantic_ten.png"" class=""exp-image"">
                    <div class=""question-area""></div> 
                </div>","null","","","","","","","","",""
"","","","","","html-button-response","78","311055","0.0-78.0","6CD5331589A943B6872A294881D4E0DE","019cf835-8ff3-7bf2-9697-d31d4e6eaac8","019cf80d-4266-7117-8a51-54e13c84aca4","","1735","
                <div class=""stimulus-container"">
                    <img src=""images/semantic_sequence/redecorating_a_house_semantic/redecorating_a_house_semantic_ten.png"" class=""exp-image"">
                    <div class=""question-area"">
                        <p style=""font-size: 20px; font-weight: bold; margin: 0;"">Is there a person in this image?</p>
                    </div>
                </div>","0","main_experiment_trial","ten","redecorating_a_house_semantic","semantic_sequence","","","","",""
"","","","","","html-keyboard-response","79","312070","0.0-79.0","6CD5331589A943B6872A294881D4E0DE","019cf835-8ff3-7bf2-9697-d31d4e6eaac8","019cf80d-4266-7117-8a51-54e13c84aca4","","null","<div style=""background-color: white; width: 100vw; height: 100vh;""></div>","null","","","","","","","","",""
"","","","","","html-keyboard-response","80","317080","0.0-80.0","6CD5331589A943B6872A294881D4E0DE","019cf835-8ff3-7bf2-9697-d31d4e6eaac8","019cf80d-4266-7117-8a51-54e13c84aca4","","null","
                <div class=""stimulus-container"">
                    <img src=""images/semantic_sequence/physical_activity_semantic/physical_activity_semantic_1.png"" class=""exp-image"">
                    <div class=""question-area""></div> 
                </div>","null","","","","","","","","",""
"","","","","","html-button-response","81","319930","0.0-81.0","6CD5331589A943B6872A294881D4E0DE","019cf835-8ff3-7bf2-9697-d31d4e6eaac8","019cf80d-4266-7117-8a51-54e13c84aca4","","2849","
                <div class=""stimulus-container"">
                    <img src=""images/semantic_sequence/physical_activity_semantic/physical_activity_semantic_1.png"" class=""exp-image"">
                    <div class=""question-area"">
                        <p style=""font-size: 20px; font-weight: bold; margin: 0;"">Is there a person in this image?</p>
                    </div>
                </div>","0","main_experiment_trial","1","physical_activity_semantic","semantic_sequence","","","","",""
"","","","","","html-keyboard-response","82","324935","0.0-82.0","6CD5331589A943B6872A294881D4E0DE","019cf835-8ff3-7bf2-9697-d31d4e6eaac8","019cf80d-4266-7117-8a51-54e13c84aca4","","null","
                <div class=""stimulus-container"">
                    <img src=""images/semantic_sequence/physical_activity_semantic/physical_activity_semantic_2.png"" class=""exp-image"">
                    <div class=""question-area""></div> 
                </div>","null","","","","","","","","",""
"","","","","","html-button-response","83","325949","0.0-83.0","6CD5331589A943B6872A294881D4E0DE","019cf835-8ff3-7bf2-9697-d31d4e6eaac8","019cf80d-4266-7117-8a51-54e13c84aca4","","1011","
                <div class=""stimulus-container"">
                    <img src=""images/semantic_sequence/physical_activity_semantic/physical_activity_semantic_2.png"" class=""exp-image"">
                    <div class=""question-area"">
                        <p style=""font-size: 20px; font-weight: bold; margin: 0;"">Is there a person in this image?</p>
                    </div>
                </div>","0","main_experiment_trial","2","physical_activity_semantic","semantic_sequence","","","","",""
"","","","","","html-keyboard-response","84","330965","0.0-84.0","6CD5331589A943B6872A294881D4E0DE","019cf835-8ff3-7bf2-9697-d31d4e6eaac8","019cf80d-4266-7117-8a51-54e13c84aca4","","null","
                <div class=""stimulus-container"">
                    <img src=""images/semantic_sequence/physical_activity_semantic/physical_activity_semantic_3.png"" class=""exp-image"">
                    <div class=""question-area""></div> 
                </div>","null","","","","","","","","",""
"","","","","","html-button-response","85","331492","0.0-85.0","6CD5331589A943B6872A294881D4E0DE","019cf835-8ff3-7bf2-9697-d31d4e6eaac8","019cf80d-4266-7117-8a51-54e13c84aca4","","525","
                <div class=""stimulus-container"">
                    <img src=""images/semantic_sequence/physical_activity_semantic/physical_activity_semantic_3.png"" class=""exp-image"">
                    <div class=""question-area"">
                        <p style=""font-size: 20px; font-weight: bold; margin: 0;"">Is there a person in this image?</p>
                    </div>
                </div>","0","main_experiment_trial","3","physical_activity_semantic","semantic_sequence","","","","",""
"","","","","","html-keyboard-response","86","336495","0.0-86.0","6CD5331589A943B6872A294881D4E0DE","019cf835-8ff3-7bf2-9697-d31d4e6eaac8","019cf80d-4266-7117-8a51-54e13c84aca4","","null","
                <div class=""stimulus-container"">
                    <img src=""images/semantic_sequence/physical_activity_semantic/physical_activity_semantic_4.png"" class=""exp-image"">
                    <div class=""question-area""></div> 
                </div>","null","","","","","","","","",""
"","","","","","html-button-response","87","337885","0.0-87.0","6CD5331589A943B6872A294881D4E0DE","019cf835-8ff3-7bf2-9697-d31d4e6eaac8","019cf80d-4266-7117-8a51-54e13c84aca4","","1388","
                <div class=""stimulus-container"">
                    <img src=""images/semantic_sequence/physical_activity_semantic/physical_activity_semantic_4.png"" class=""exp-image"">
                    <div class=""question-area"">
                        <p style=""font-size: 20px; font-weight: bold; margin: 0;"">Is there a person in this image?</p>
                    </div>
                </div>","0","main_experiment_trial","4","physical_activity_semantic","semantic_sequence","","","","",""
"","","","","","html-keyboard-response","88","342891","0.0-88.0","6CD5331589A943B6872A294881D4E0DE","019cf835-8ff3-7bf2-9697-d31d4e6eaac8","019cf80d-4266-7117-8a51-54e13c84aca4","","null","
                <div class=""stimulus-container"">
                    <img src=""images/semantic_sequence/physical_activity_semantic/physical_activity_semantic_5.png"" class=""exp-image"">
                    <div class=""question-area""></div> 
                </div>","null","","","","","","","","",""
"","","","","","html-button-response","89","344018","0.0-89.0","6CD5331589A943B6872A294881D4E0DE","019cf835-8ff3-7bf2-9697-d31d4e6eaac8","019cf80d-4266-7117-8a51-54e13c84aca4","","1126","
                <div class=""stimulus-container"">
                    <img src=""images/semantic_sequence/physical_activity_semantic/physical_activity_semantic_5.png"" class=""exp-image"">
                    <div class=""question-area"">
                        <p style=""font-size: 20px; font-weight: bold; margin: 0;"">Is there a person in this image?</p>
                    </div>
                </div>","0","main_experiment_trial","5","physical_activity_semantic","semantic_sequence","","","","",""
"","","","","","html-keyboard-response","90","349028","0.0-90.0","6CD5331589A943B6872A294881D4E0DE","019cf835-8ff3-7bf2-9697-d31d4e6eaac8","019cf80d-4266-7117-8a51-54e13c84aca4","","null","
                <div class=""stimulus-container"">
                    <img src=""images/semantic_sequence/physical_activity_semantic/physical_activity_semantic_6.png"" class=""exp-image"">
                    <div class=""question-area""></div> 
                </div>","null","","","","","","","","",""
"","","","","","html-button-response","91","351651","0.0-91.0","6CD5331589A943B6872A294881D4E0DE","019cf835-8ff3-7bf2-9697-d31d4e6eaac8","019cf80d-4266-7117-8a51-54e13c84aca4","","2621","
                <div class=""stimulus-container"">
                    <img src=""images/semantic_sequence/physical_activity_semantic/physical_activity_semantic_6.png"" class=""exp-image"">
                    <div class=""question-area"">
                        <p style=""font-size: 20px; font-weight: bold; margin: 0;"">Is there a person in this image?</p>
                    </div>
                </div>","0","main_experiment_trial","6","physical_activity_semantic","semantic_sequence","","","","",""
"","","","","","html-keyboard-response","92","356663","0.0-92.0","6CD5331589A943B6872A294881D4E0DE","019cf835-8ff3-7bf2-9697-d31d4e6eaac8","019cf80d-4266-7117-8a51-54e13c84aca4","","null","
                <div class=""stimulus-container"">
                    <img src=""images/semantic_sequence/physical_activity_semantic/physical_activity_semantic_7.png"" class=""exp-image"">
                    <div class=""question-area""></div> 
                </div>","null","","","","","","","","",""
"","","","","","html-button-response","93","359678","0.0-93.0","6CD5331589A943B6872A294881D4E0DE","019cf835-8ff3-7bf2-9697-d31d4e6eaac8","019cf80d-4266-7117-8a51-54e13c84aca4","","null","
                <div class=""stimulus-container"">
                    <img src=""images/semantic_sequence/physical_activity_semantic/physical_activity_semantic_7.png"" class=""exp-image"">
                    <div class=""question-area"">
                        <p style=""font-size: 20px; font-weight: bold; margin: 0;"">Is there a person in this image?</p>
                    </div>
                </div>","null","main_experiment_trial","7","physical_activity_semantic","semantic_sequence","","","","",""
"","","","","","html-keyboard-response","94","364692","0.0-94.0","6CD5331589A943B6872A294881D4E0DE","019cf835-8ff3-7bf2-9697-d31d4e6eaac8","019cf80d-4266-7117-8a51-54e13c84aca4","","null","
                <div class=""stimulus-container"">
                    <img src=""images/semantic_sequence/physical_activity_semantic/physical_activity_semantic_8.png"" class=""exp-image"">
                    <div class=""question-area""></div> 
                </div>","null","","","","","","","","",""
"","","","","","html-button-response","95","365890","0.0-95.0","6CD5331589A943B6872A294881D4E0DE","019cf835-8ff3-7bf2-9697-d31d4e6eaac8","019cf80d-4266-7117-8a51-54e13c84aca4","","1198","
                <div class=""stimulus-container"">
                    <img src=""images/semantic_sequence/physical_activity_semantic/physical_activity_semantic_8.png"" class=""exp-image"">
                    <div class=""question-area"">
                        <p style=""font-size: 20px; font-weight: bold; margin: 0;"">Is there a person in this image?</p>
                    </div>
                </div>","0","main_experiment_trial","8","physical_activity_semantic","semantic_sequence","","","","",""
"","","","","","html-keyboard-response","96","370907","0.0-96.0","6CD5331589A943B6872A294881D4E0DE","019cf835-8ff3-7bf2-9697-d31d4e6eaac8","019cf80d-4266-7117-8a51-54e13c84aca4","","null","
                <div class=""stimulus-container"">
                    <img src=""images/semantic_sequence/physical_activity_semantic/physical_activity_semantic_9.png"" class=""exp-image"">
                    <div class=""question-area""></div> 
                </div>","null","","","","","","","","",""
"","","","","","html-button-response","97","372872","0.0-97.0","6CD5331589A943B6872A294881D4E0DE","019cf835-8ff3-7bf2-9697-d31d4e6eaac8","019cf80d-4266-7117-8a51-54e13c84aca4","","1963","
                <div class=""stimulus-container"">
                    <img src=""images/semantic_sequence/physical_activity_semantic/physical_activity_semantic_9.png"" class=""exp-image"">
                    <div class=""question-area"">
                        <p style=""font-size: 20px; font-weight: bold; margin: 0;"">Is there a person in this image?</p>
                    </div>
                </div>","0","main_experiment_trial","9","physical_activity_semantic","semantic_sequence","","","","",""
"","","","","","html-keyboard-response","98","377878","0.0-98.0","6CD5331589A943B6872A294881D4E0DE","019cf835-8ff3-7bf2-9697-d31d4e6eaac8","019cf80d-4266-7117-8a51-54e13c84aca4","","null","
                <div class=""stimulus-container"">
                    <img src=""images/semantic_sequence/physical_activity_semantic/physical_activity_semantic_ten.png"" class=""exp-image"">
                    <div class=""question-area""></div> 
                </div>","null","","","","","","","","",""
"","","","","","html-button-response","99","380881","0.0-99.0","6CD5331589A943B6872A294881D4E0DE","019cf835-8ff3-7bf2-9697-d31d4e6eaac8","019cf80d-4266-7117-8a51-54e13c84aca4","","null","
                <div class=""stimulus-container"">
                    <img src=""images/semantic_sequence/physical_activity_semantic/physical_activity_semantic_ten.png"" class=""exp-image"">
                    <div class=""question-area"">
                        <p style=""font-size: 20px; font-weight: bold; margin: 0;"">Is there a person in this image?</p>
                    </div>
                </div>","null","main_experiment_trial","ten","physical_activity_semantic","semantic_sequence","","","","",""
"","","","","","html-keyboard-response","100","381889","0.0-100.0","6CD5331589A943B6872A294881D4E0DE","019cf835-8ff3-7bf2-9697-d31d4e6eaac8","019cf80d-4266-7117-8a51-54e13c84aca4","","null","<div style=""background-color: white; width: 100vw; height: 100vh;""></div>","null","","","","","","","","",""
"","","","","","html-keyboard-response","101","386899","0.0-101.0","6CD5331589A943B6872A294881D4E0DE","019cf835-8ff3-7bf2-9697-d31d4e6eaac8","019cf80d-4266-7117-8a51-54e13c84aca4","","null","
                <div class=""stimulus-container"">
                    <img src=""images/semantic_sequence/self_care_activities_semantic/self_care_activities_semantic_1.png"" class=""exp-image"">
                    <div class=""question-area""></div> 
                </div>","null","","","","","","","","",""
"","","","","","html-button-response","102","387428","0.0-102.0","6CD5331589A943B6872A294881D4E0DE","019cf835-8ff3-7bf2-9697-d31d4e6eaac8","019cf80d-4266-7117-8a51-54e13c84aca4","","528","
                <div class=""stimulus-container"">
                    <img src=""images/semantic_sequence/self_care_activities_semantic/self_care_activities_semantic_1.png"" class=""exp-image"">
                    <div class=""question-area"">
                        <p style=""font-size: 20px; font-weight: bold; margin: 0;"">Is there a person in this image?</p>
                    </div>
                </div>","0","main_experiment_trial","1","self_care_activities_semantic","semantic_sequence","","","","",""
"","","","","","html-keyboard-response","103","392434","0.0-103.0","6CD5331589A943B6872A294881D4E0DE","019cf835-8ff3-7bf2-9697-d31d4e6eaac8","019cf80d-4266-7117-8a51-54e13c84aca4","","null","
                <div class=""stimulus-container"">
                    <img src=""images/semantic_sequence/self_care_activities_semantic/self_care_activities_semantic_2.png"" class=""exp-image"">
                    <div class=""question-area""></div> 
                </div>","null","","","","","","","","",""
"","","","","","html-button-response","104","395442","0.0-104.0","6CD5331589A943B6872A294881D4E0DE","019cf835-8ff3-7bf2-9697-d31d4e6eaac8","019cf80d-4266-7117-8a51-54e13c84aca4","","null","
                <div class=""stimulus-container"">
                    <img src=""images/semantic_sequence/self_care_activities_semantic/self_care_activities_semantic_2.png"" class=""exp-image"">
                    <div class=""question-area"">
                        <p style=""font-size: 20px; font-weight: bold; margin: 0;"">Is there a person in this image?</p>
                    </div>
                </div>","null","main_experiment_trial","2","self_care_activities_semantic","semantic_sequence","","","","",""
"","","","","","html-keyboard-response","105","400448","0.0-105.0","6CD5331589A943B6872A294881D4E0DE","019cf835-8ff3-7bf2-9697-d31d4e6eaac8","019cf80d-4266-7117-8a51-54e13c84aca4","","null","
                <div class=""stimulus-container"">
                    <img src=""images/semantic_sequence/self_care_activities_semantic/self_care_activities_semantic_3.png"" class=""exp-image"">
                    <div class=""question-area""></div> 
                </div>","null","","","","","","","","",""
"","","","","","html-button-response","106","401271","0.0-106.0","6CD5331589A943B6872A294881D4E0DE","019cf835-8ff3-7bf2-9697-d31d4e6eaac8","019cf80d-4266-7117-8a51-54e13c84aca4","","821","
                <div class=""stimulus-container"">
                    <img src=""images/semantic_sequence/self_care_activities_semantic/self_care_activities_semantic_3.png"" class=""exp-image"">
                    <div class=""question-area"">
                        <p style=""font-size: 20px; font-weight: bold; margin: 0;"">Is there a person in this image?</p>
                    </div>
                </div>","0","main_experiment_trial","3","self_care_activities_semantic","semantic_sequence","","","","",""
"","","","","","html-keyboard-response","107","406274","0.0-107.0","6CD5331589A943B6872A294881D4E0DE","019cf835-8ff3-7bf2-9697-d31d4e6eaac8","019cf80d-4266-7117-8a51-54e13c84aca4","","null","
                <div class=""stimulus-container"">
                    <img src=""images/semantic_sequence/self_care_activities_semantic/self_care_activities_semantic_4.png"" class=""exp-image"">
                    <div class=""question-area""></div> 
                </div>","null","","","","","","","","",""
"","","","","","html-button-response","108","408732","0.0-108.0","6CD5331589A943B6872A294881D4E0DE","019cf835-8ff3-7bf2-9697-d31d4e6eaac8","019cf80d-4266-7117-8a51-54e13c84aca4","","2456","
                <div class=""stimulus-container"">
                    <img src=""images/semantic_sequence/self_care_activities_semantic/self_care_activities_semantic_4.png"" class=""exp-image"">
                    <div class=""question-area"">
                        <p style=""font-size: 20px; font-weight: bold; margin: 0;"">Is there a person in this image?</p>
                    </div>
                </div>","0","main_experiment_trial","4","self_care_activities_semantic","semantic_sequence","","","","",""
"","","","","","html-keyboard-response","109","413735","0.0-109.0","6CD5331589A943B6872A294881D4E0DE","019cf835-8ff3-7bf2-9697-d31d4e6eaac8","019cf80d-4266-7117-8a51-54e13c84aca4","","null","
                <div class=""stimulus-container"">
                    <img src=""images/semantic_sequence/self_care_activities_semantic/self_care_activities_semantic_5.png"" class=""exp-image"">
                    <div class=""question-area""></div> 
                </div>","null","","","","","","","","",""
"","","","","","html-button-response","110","416738","0.0-110.0","6CD5331589A943B6872A294881D4E0DE","019cf835-8ff3-7bf2-9697-d31d4e6eaac8","019cf80d-4266-7117-8a51-54e13c84aca4","","null","
                <div class=""stimulus-container"">
                    <img src=""images/semantic_sequence/self_care_activities_semantic/self_care_activities_semantic_5.png"" class=""exp-image"">
                    <div class=""question-area"">
                        <p style=""font-size: 20px; font-weight: bold; margin: 0;"">Is there a person in this image?</p>
                    </div>
                </div>","null","main_experiment_trial","5","self_care_activities_semantic","semantic_sequence","","","","",""
"","","","","","html-keyboard-response","111","421754","0.0-111.0","6CD5331589A943B6872A294881D4E0DE","019cf835-8ff3-7bf2-9697-d31d4e6eaac8","019cf80d-4266-7117-8a51-54e13c84aca4","","null","
                <div class=""stimulus-container"">
                    <img src=""images/semantic_sequence/self_care_activities_semantic/self_care_activities_semantic_6.png"" class=""exp-image"">
                    <div class=""question-area""></div> 
                </div>","null","","","","","","","","",""
"","","","","","html-button-response","112","424550","0.0-112.0","6CD5331589A943B6872A294881D4E0DE","019cf835-8ff3-7bf2-9697-d31d4e6eaac8","019cf80d-4266-7117-8a51-54e13c84aca4","","2795","
                <div class=""stimulus-container"">
                    <img src=""images/semantic_sequence/self_care_activities_semantic/self_care_activities_semantic_6.png"" class=""exp-image"">
                    <div class=""question-area"">
                        <p style=""font-size: 20px; font-weight: bold; margin: 0;"">Is there a person in this image?</p>
                    </div>
                </div>","0","main_experiment_trial","6","self_care_activities_semantic","semantic_sequence","","","","",""
"","","","","","html-keyboard-response","113","429561","0.0-113.0","6CD5331589A943B6872A294881D4E0DE","019cf835-8ff3-7bf2-9697-d31d4e6eaac8","019cf80d-4266-7117-8a51-54e13c84aca4","","null","
                <div class=""stimulus-container"">
                    <img src=""images/semantic_sequence/self_care_activities_semantic/self_care_activities_semantic_7.png"" class=""exp-image"">
                    <div class=""question-area""></div> 
                </div>","null","","","","","","","","",""
"","","","","","html-button-response","114","430951","0.0-114.0","6CD5331589A943B6872A294881D4E0DE","019cf835-8ff3-7bf2-9697-d31d4e6eaac8","019cf80d-4266-7117-8a51-54e13c84aca4","","1388","
                <div class=""stimulus-container"">
                    <img src=""images/semantic_sequence/self_care_activities_semantic/self_care_activities_semantic_7.png"" class=""exp-image"">
                    <div class=""question-area"">
                        <p style=""font-size: 20px; font-weight: bold; margin: 0;"">Is there a person in this image?</p>
                    </div>
                </div>","0","main_experiment_trial","7","self_care_activities_semantic","semantic_sequence","","","","",""
"","","","","","html-keyboard-response","115","435963","0.0-115.0","6CD5331589A943B6872A294881D4E0DE","019cf835-8ff3-7bf2-9697-d31d4e6eaac8","019cf80d-4266-7117-8a51-54e13c84aca4","","null","
                <div class=""stimulus-container"">
                    <img src=""images/semantic_sequence/self_care_activities_semantic/self_care_activities_semantic_8.png"" class=""exp-image"">
                    <div class=""question-area""></div> 
                </div>","null","","","","","","","","",""
"","","","","","html-button-response","116","438980","0.0-116.0","6CD5331589A943B6872A294881D4E0DE","019cf835-8ff3-7bf2-9697-d31d4e6eaac8","019cf80d-4266-7117-8a51-54e13c84aca4","","null","
                <div class=""stimulus-container"">
                    <img src=""images/semantic_sequence/self_care_activities_semantic/self_care_activities_semantic_8.png"" class=""exp-image"">
                    <div class=""question-area"">
                        <p style=""font-size: 20px; font-weight: bold; margin: 0;"">Is there a person in this image?</p>
                    </div>
                </div>","null","main_experiment_trial","8","self_care_activities_semantic","semantic_sequence","","","","",""
"","","","","","html-keyboard-response","117","443983","0.0-117.0","6CD5331589A943B6872A294881D4E0DE","019cf835-8ff3-7bf2-9697-d31d4e6eaac8","019cf80d-4266-7117-8a51-54e13c84aca4","","null","
                <div class=""stimulus-container"">
                    <img src=""images/semantic_sequence/self_care_activities_semantic/self_care_activities_semantic_9.png"" class=""exp-image"">
                    <div class=""question-area""></div> 
                </div>","null","","","","","","","","",""
"","","","","","html-button-response","118","446724","0.0-118.0","6CD5331589A943B6872A294881D4E0DE","019cf835-8ff3-7bf2-9697-d31d4e6eaac8","019cf80d-4266-7117-8a51-54e13c84aca4","","2740","
                <div class=""stimulus-container"">
                    <img src=""images/semantic_sequence/self_care_activities_semantic/self_care_activities_semantic_9.png"" class=""exp-image"">
                    <div class=""question-area"">
                        <p style=""font-size: 20px; font-weight: bold; margin: 0;"">Is there a person in this image?</p>
                    </div>
                </div>","0","main_experiment_trial","9","self_care_activities_semantic","semantic_sequence","","","","",""
"","","","","","html-keyboard-response","119","451729","0.0-119.0","6CD5331589A943B6872A294881D4E0DE","019cf835-8ff3-7bf2-9697-d31d4e6eaac8","019cf80d-4266-7117-8a51-54e13c84aca4","","null","
                <div class=""stimulus-container"">
                    <img src=""images/semantic_sequence/self_care_activities_semantic/self_care_activities_semantic_ten.png"" class=""exp-image"">
                    <div class=""question-area""></div> 
                </div>","null","","","","","","","","",""
"","","","","","html-button-response","120","452355","0.0-120.0","6CD5331589A943B6872A294881D4E0DE","019cf835-8ff3-7bf2-9697-d31d4e6eaac8","019cf80d-4266-7117-8a51-54e13c84aca4","","625","
                <div class=""stimulus-container"">
                    <img src=""images/semantic_sequence/self_care_activities_semantic/self_care_activities_semantic_ten.png"" class=""exp-image"">
                    <div class=""question-area"">
                        <p style=""font-size: 20px; font-weight: bold; margin: 0;"">Is there a person in this image?</p>
                    </div>
                </div>","0","main_experiment_trial","ten","self_care_activities_semantic","semantic_sequence","","","","",""
"","","","","","html-keyboard-response","121","453367","0.0-121.0","6CD5331589A943B6872A294881D4E0DE","019cf835-8ff3-7bf2-9697-d31d4e6eaac8","019cf80d-4266-7117-8a51-54e13c84aca4","","null","<div style=""background-color: white; width: 100vw; height: 100vh;""></div>","null","","","","","","","","",""
"","","","","","html-keyboard-response","122","458375","0.0-122.0","6CD5331589A943B6872A294881D4E0DE","019cf835-8ff3-7bf2-9697-d31d4e6eaac8","019cf80d-4266-7117-8a51-54e13c84aca4","","null","
                <div class=""stimulus-container"">
                    <img src=""images/schematic_sequence/interview_scheme/interview_scheme_1.png"" class=""exp-image"">
                    <div class=""question-area""></div> 
                </div>","null","","","","","","","","",""
"","","","","","html-button-response","123","459284","0.0-123.0","6CD5331589A943B6872A294881D4E0DE","019cf835-8ff3-7bf2-9697-d31d4e6eaac8","019cf80d-4266-7117-8a51-54e13c84aca4","","907","
                <div class=""stimulus-container"">
                    <img src=""images/schematic_sequence/interview_scheme/interview_scheme_1.png"" class=""exp-image"">
                    <div class=""question-area"">
                        <p style=""font-size: 20px; font-weight: bold; margin: 0;"">Is there a person in this image?</p>
                    </div>
                </div>","1","main_experiment_trial","1","interview_scheme","schematic_sequence","","","","",""
"","","","","","html-keyboard-response","124","464286","0.0-124.0","6CD5331589A943B6872A294881D4E0DE","019cf835-8ff3-7bf2-9697-d31d4e6eaac8","019cf80d-4266-7117-8a51-54e13c84aca4","","null","
                <div class=""stimulus-container"">
                    <img src=""images/schematic_sequence/interview_scheme/interview_scheme_2.png"" class=""exp-image"">
                    <div class=""question-area""></div> 
                </div>","null","","","","","","","","",""
"","","","","","html-button-response","125","466236","0.0-125.0","6CD5331589A943B6872A294881D4E0DE","019cf835-8ff3-7bf2-9697-d31d4e6eaac8","019cf80d-4266-7117-8a51-54e13c84aca4","","1949","
                <div class=""stimulus-container"">
                    <img src=""images/schematic_sequence/interview_scheme/interview_scheme_2.png"" class=""exp-image"">
                    <div class=""question-area"">
                        <p style=""font-size: 20px; font-weight: bold; margin: 0;"">Is there a person in this image?</p>
                    </div>
                </div>","1","main_experiment_trial","2","interview_scheme","schematic_sequence","","","","",""
"","","","","","html-keyboard-response","126","471248","0.0-126.0","6CD5331589A943B6872A294881D4E0DE","019cf835-8ff3-7bf2-9697-d31d4e6eaac8","019cf80d-4266-7117-8a51-54e13c84aca4","","null","
                <div class=""stimulus-container"">
                    <img src=""images/schematic_sequence/interview_scheme/interview_scheme_3.png"" class=""exp-image"">
                    <div class=""question-area""></div> 
                </div>","null","","","","","","","","",""
"","","","","","html-button-response","127","472983","0.0-127.0","6CD5331589A943B6872A294881D4E0DE","019cf835-8ff3-7bf2-9697-d31d4e6eaac8","019cf80d-4266-7117-8a51-54e13c84aca4","","1732","
                <div class=""stimulus-container"">
                    <img src=""images/schematic_sequence/interview_scheme/interview_scheme_3.png"" class=""exp-image"">
                    <div class=""question-area"">
                        <p style=""font-size: 20px; font-weight: bold; margin: 0;"">Is there a person in this image?</p>
                    </div>
                </div>","1","main_experiment_trial","3","interview_scheme","schematic_sequence","","","","",""
"","","","","","html-keyboard-response","128","477987","0.0-128.0","6CD5331589A943B6872A294881D4E0DE","019cf835-8ff3-7bf2-9697-d31d4e6eaac8","019cf80d-4266-7117-8a51-54e13c84aca4","","null","
                <div class=""stimulus-container"">
                    <img src=""images/schematic_sequence/interview_scheme/interview_scheme_4.png"" class=""exp-image"">
                    <div class=""question-area""></div> 
                </div>","null","","","","","","","","",""
"","","","","","html-button-response","129","478802","0.0-129.0","6CD5331589A943B6872A294881D4E0DE","019cf835-8ff3-7bf2-9697-d31d4e6eaac8","019cf80d-4266-7117-8a51-54e13c84aca4","","813","
                <div class=""stimulus-container"">
                    <img src=""images/schematic_sequence/interview_scheme/interview_scheme_4.png"" class=""exp-image"">
                    <div class=""question-area"">
                        <p style=""font-size: 20px; font-weight: bold; margin: 0;"">Is there a person in this image?</p>
                    </div>
                </div>","1","main_experiment_trial","4","interview_scheme","schematic_sequence","","","","",""
"","","","","","html-keyboard-response","130","483804","0.0-130.0","6CD5331589A943B6872A294881D4E0DE","019cf835-8ff3-7bf2-9697-d31d4e6eaac8","019cf80d-4266-7117-8a51-54e13c84aca4","","null","
                <div class=""stimulus-container"">
                    <img src=""images/schematic_sequence/interview_scheme/interview_scheme_5.png"" class=""exp-image"">
                    <div class=""question-area""></div> 
                </div>","null","","","","","","","","",""
"","","","","","html-button-response","131","484639","0.0-131.0","6CD5331589A943B6872A294881D4E0DE","019cf835-8ff3-7bf2-9697-d31d4e6eaac8","019cf80d-4266-7117-8a51-54e13c84aca4","","833","
                <div class=""stimulus-container"">
                    <img src=""images/schematic_sequence/interview_scheme/interview_scheme_5.png"" class=""exp-image"">
                    <div class=""question-area"">
                        <p style=""font-size: 20px; font-weight: bold; margin: 0;"">Is there a person in this image?</p>
                    </div>
                </div>","0","main_experiment_trial","5","interview_scheme","schematic_sequence","","","","",""
"","","","","","html-keyboard-response","132","489657","0.0-132.0","6CD5331589A943B6872A294881D4E0DE","019cf835-8ff3-7bf2-9697-d31d4e6eaac8","019cf80d-4266-7117-8a51-54e13c84aca4","","null","
                <div class=""stimulus-container"">
                    <img src=""images/schematic_sequence/interview_scheme/interview_scheme_6.png"" class=""exp-image"">
                    <div class=""question-area""></div> 
                </div>","null","","","","","","","","",""
"","","","","","html-button-response","133","491448","0.0-133.0","6CD5331589A943B6872A294881D4E0DE","019cf835-8ff3-7bf2-9697-d31d4e6eaac8","019cf80d-4266-7117-8a51-54e13c84aca4","","1790","
                <div class=""stimulus-container"">
                    <img src=""images/schematic_sequence/interview_scheme/interview_scheme_6.png"" class=""exp-image"">
                    <div class=""question-area"">
                        <p style=""font-size: 20px; font-weight: bold; margin: 0;"">Is there a person in this image?</p>
                    </div>
                </div>","0","main_experiment_trial","6","interview_scheme","schematic_sequence","","","","",""
"","","","","","html-keyboard-response","134","496457","0.0-134.0","6CD5331589A943B6872A294881D4E0DE","019cf835-8ff3-7bf2-9697-d31d4e6eaac8","019cf80d-4266-7117-8a51-54e13c84aca4","","null","
                <div class=""stimulus-container"">
                    <img src=""images/schematic_sequence/interview_scheme/interview_scheme_7.png"" class=""exp-image"">
                    <div class=""question-area""></div> 
                </div>","null","","","","","","","","",""
"","","","","","html-button-response","135","497489","0.0-135.0","6CD5331589A943B6872A294881D4E0DE","019cf835-8ff3-7bf2-9697-d31d4e6eaac8","019cf80d-4266-7117-8a51-54e13c84aca4","","1030","
                <div class=""stimulus-container"">
                    <img src=""images/schematic_sequence/interview_scheme/interview_scheme_7.png"" class=""exp-image"">
                    <div class=""question-area"">
                        <p style=""font-size: 20px; font-weight: bold; margin: 0;"">Is there a person in this image?</p>
                    </div>
                </div>","0","main_experiment_trial","7","interview_scheme","schematic_sequence","","","","",""
"","","","","","html-keyboard-response","136","502500","0.0-136.0","6CD5331589A943B6872A294881D4E0DE","019cf835-8ff3-7bf2-9697-d31d4e6eaac8","019cf80d-4266-7117-8a51-54e13c84aca4","","null","
                <div class=""stimulus-container"">
                    <img src=""images/schematic_sequence/interview_scheme/interview_scheme_8.png"" class=""exp-image"">
                    <div class=""question-area""></div> 
                </div>","null","","","","","","","","",""
"","","","","","html-button-response","137","504069","0.0-137.0","6CD5331589A943B6872A294881D4E0DE","019cf835-8ff3-7bf2-9697-d31d4e6eaac8","019cf80d-4266-7117-8a51-54e13c84aca4","","1567","
                <div class=""stimulus-container"">
                    <img src=""images/schematic_sequence/interview_scheme/interview_scheme_8.png"" class=""exp-image"">
                    <div class=""question-area"">
                        <p style=""font-size: 20px; font-weight: bold; margin: 0;"">Is there a person in this image?</p>
                    </div>
                </div>","0","main_experiment_trial","8","interview_scheme","schematic_sequence","","","","",""
"","","","","","html-keyboard-response","138","509082","0.0-138.0","6CD5331589A943B6872A294881D4E0DE","019cf835-8ff3-7bf2-9697-d31d4e6eaac8","019cf80d-4266-7117-8a51-54e13c84aca4","","null","
                <div class=""stimulus-container"">
                    <img src=""images/schematic_sequence/interview_scheme/interview_scheme_9.png"" class=""exp-image"">
                    <div class=""question-area""></div> 
                </div>","null","","","","","","","","",""
"","","","","","html-button-response","139","510662","0.0-139.0","6CD5331589A943B6872A294881D4E0DE","019cf835-8ff3-7bf2-9697-d31d4e6eaac8","019cf80d-4266-7117-8a51-54e13c84aca4","","1577","
                <div class=""stimulus-container"">
                    <img src=""images/schematic_sequence/interview_scheme/interview_scheme_9.png"" class=""exp-image"">
                    <div class=""question-area"">
                        <p style=""font-size: 20px; font-weight: bold; margin: 0;"">Is there a person in this image?</p>
                    </div>
                </div>","0","main_experiment_trial","9","interview_scheme","schematic_sequence","","","","",""
"","","","","","html-keyboard-response","140","515673","0.0-140.0","6CD5331589A943B6872A294881D4E0DE","019cf835-8ff3-7bf2-9697-d31d4e6eaac8","019cf80d-4266-7117-8a51-54e13c84aca4","","null","
                <div class=""stimulus-container"">
                    <img src=""images/schematic_sequence/interview_scheme/interview_scheme_ten.png"" class=""exp-image"">
                    <div class=""question-area""></div> 
                </div>","null","","","","","","","","",""
"","","","","","html-button-response","141","516469","0.0-141.0","6CD5331589A943B6872A294881D4E0DE","019cf835-8ff3-7bf2-9697-d31d4e6eaac8","019cf80d-4266-7117-8a51-54e13c84aca4","","794","
                <div class=""stimulus-container"">
                    <img src=""images/schematic_sequence/interview_scheme/interview_scheme_ten.png"" class=""exp-image"">
                    <div class=""question-area"">
                        <p style=""font-size: 20px; font-weight: bold; margin: 0;"">Is there a person in this image?</p>
                    </div>
                </div>","0","main_experiment_trial","ten","interview_scheme","schematic_sequence","","","","",""
"","","","","","html-keyboard-response","142","517471","0.0-142.0","6CD5331589A943B6872A294881D4E0DE","019cf835-8ff3-7bf2-9697-d31d4e6eaac8","019cf80d-4266-7117-8a51-54e13c84aca4","","null","<div style=""background-color: white; width: 100vw; height: 100vh;""></div>","null","","","","","","","","",""
"","","","","","html-keyboard-response","143","522474","0.0-143.0","6CD5331589A943B6872A294881D4E0DE","019cf835-8ff3-7bf2-9697-d31d4e6eaac8","019cf80d-4266-7117-8a51-54e13c84aca4","","null","
                <div class=""stimulus-container"">
                    <img src=""images/semantic_sequence/housework_semantic/housework_semantic_1.png"" class=""exp-image"">
                    <div class=""question-area""></div> 
                </div>","null","","","","","","","","",""
"","","","","","html-button-response","144","523684","0.0-144.0","6CD5331589A943B6872A294881D4E0DE","019cf835-8ff3-7bf2-9697-d31d4e6eaac8","019cf80d-4266-7117-8a51-54e13c84aca4","","1208","
                <div class=""stimulus-container"">
                    <img src=""images/semantic_sequence/housework_semantic/housework_semantic_1.png"" class=""exp-image"">
                    <div class=""question-area"">
                        <p style=""font-size: 20px; font-weight: bold; margin: 0;"">Is there a person in this image?</p>
                    </div>
                </div>","1","main_experiment_trial","1","housework_semantic","semantic_sequence","","","","",""
"","","","","","html-keyboard-response","145","528695","0.0-145.0","6CD5331589A943B6872A294881D4E0DE","019cf835-8ff3-7bf2-9697-d31d4e6eaac8","019cf80d-4266-7117-8a51-54e13c84aca4","","null","
                <div class=""stimulus-container"">
                    <img src=""images/semantic_sequence/housework_semantic/housework_semantic_2.png"" class=""exp-image"">
                    <div class=""question-area""></div> 
                </div>","null","","","","","","","","",""
"","","","","","html-button-response","146","531700","0.0-146.0","6CD5331589A943B6872A294881D4E0DE","019cf835-8ff3-7bf2-9697-d31d4e6eaac8","019cf80d-4266-7117-8a51-54e13c84aca4","","null","
                <div class=""stimulus-container"">
                    <img src=""images/semantic_sequence/housework_semantic/housework_semantic_2.png"" class=""exp-image"">
                    <div class=""question-area"">
                        <p style=""font-size: 20px; font-weight: bold; margin: 0;"">Is there a person in this image?</p>
                    </div>
                </div>","null","main_experiment_trial","2","housework_semantic","semantic_sequence","","","","",""
"","","","","","html-keyboard-response","147","536716","0.0-147.0","6CD5331589A943B6872A294881D4E0DE","019cf835-8ff3-7bf2-9697-d31d4e6eaac8","019cf80d-4266-7117-8a51-54e13c84aca4","","null","
                <div class=""stimulus-container"">
                    <img src=""images/semantic_sequence/housework_semantic/housework_semantic_3.png"" class=""exp-image"">
                    <div class=""question-area""></div> 
                </div>","null","","","","","","","","",""
"","","","","","html-button-response","148","537241","0.0-148.0","6CD5331589A943B6872A294881D4E0DE","019cf835-8ff3-7bf2-9697-d31d4e6eaac8","019cf80d-4266-7117-8a51-54e13c84aca4","","524","
                <div class=""stimulus-container"">
                    <img src=""images/semantic_sequence/housework_semantic/housework_semantic_3.png"" class=""exp-image"">
                    <div class=""question-area"">
                        <p style=""font-size: 20px; font-weight: bold; margin: 0;"">Is there a person in this image?</p>
                    </div>
                </div>","0","main_experiment_trial","3","housework_semantic","semantic_sequence","","","","",""
"","","","","","html-keyboard-response","149","542243","0.0-149.0","6CD5331589A943B6872A294881D4E0DE","019cf835-8ff3-7bf2-9697-d31d4e6eaac8","019cf80d-4266-7117-8a51-54e13c84aca4","","null","
                <div class=""stimulus-container"">
                    <img src=""images/semantic_sequence/housework_semantic/housework_semantic_4.png"" class=""exp-image"">
                    <div class=""question-area""></div> 
                </div>","null","","","","","","","","",""
"","","","","","html-button-response","150","545245","0.0-150.0","6CD5331589A943B6872A294881D4E0DE","019cf835-8ff3-7bf2-9697-d31d4e6eaac8","019cf80d-4266-7117-8a51-54e13c84aca4","","null","
                <div class=""stimulus-container"">
                    <img src=""images/semantic_sequence/housework_semantic/housework_semantic_4.png"" class=""exp-image"">
                    <div class=""question-area"">
                        <p style=""font-size: 20px; font-weight: bold; margin: 0;"">Is there a person in this image?</p>
                    </div>
                </div>","null","main_experiment_trial","4","housework_semantic","semantic_sequence","","","","",""
"","","","","","html-keyboard-response","151","550250","0.0-151.0","6CD5331589A943B6872A294881D4E0DE","019cf835-8ff3-7bf2-9697-d31d4e6eaac8","019cf80d-4266-7117-8a51-54e13c84aca4","","null","
                <div class=""stimulus-container"">
                    <img src=""images/semantic_sequence/housework_semantic/housework_semantic_5.png"" class=""exp-image"">
                    <div class=""question-area""></div> 
                </div>","null","","","","","","","","",""
"","","","","","html-button-response","152","551501","0.0-152.0","6CD5331589A943B6872A294881D4E0DE","019cf835-8ff3-7bf2-9697-d31d4e6eaac8","019cf80d-4266-7117-8a51-54e13c84aca4","","1250","
                <div class=""stimulus-container"">
                    <img src=""images/semantic_sequence/housework_semantic/housework_semantic_5.png"" class=""exp-image"">
                    <div class=""question-area"">
                        <p style=""font-size: 20px; font-weight: bold; margin: 0;"">Is there a person in this image?</p>
                    </div>
                </div>","0","main_experiment_trial","5","housework_semantic","semantic_sequence","","","","",""
"","","","","","html-keyboard-response","153","556506","0.0-153.0","6CD5331589A943B6872A294881D4E0DE","019cf835-8ff3-7bf2-9697-d31d4e6eaac8","019cf80d-4266-7117-8a51-54e13c84aca4","","null","
                <div class=""stimulus-container"">
                    <img src=""images/semantic_sequence/housework_semantic/housework_semantic_6.png"" class=""exp-image"">
                    <div class=""question-area""></div> 
                </div>","null","","","","","","","","",""
"","","","","","html-button-response","154","557537","0.0-154.0","6CD5331589A943B6872A294881D4E0DE","019cf835-8ff3-7bf2-9697-d31d4e6eaac8","019cf80d-4266-7117-8a51-54e13c84aca4","","1030","
                <div class=""stimulus-container"">
                    <img src=""images/semantic_sequence/housework_semantic/housework_semantic_6.png"" class=""exp-image"">
                    <div class=""question-area"">
                        <p style=""font-size: 20px; font-weight: bold; margin: 0;"">Is there a person in this image?</p>
                    </div>
                </div>","0","main_experiment_trial","6","housework_semantic","semantic_sequence","","","","",""
"","","","","","html-keyboard-response","155","562548","0.0-155.0","6CD5331589A943B6872A294881D4E0DE","019cf835-8ff3-7bf2-9697-d31d4e6eaac8","019cf80d-4266-7117-8a51-54e13c84aca4","","null","
                <div class=""stimulus-container"">
                    <img src=""images/semantic_sequence/housework_semantic/housework_semantic_7.png"" class=""exp-image"">
                    <div class=""question-area""></div> 
                </div>","null","","","","","","","","",""
"","","","","","html-button-response","156","564281","0.0-156.0","6CD5331589A943B6872A294881D4E0DE","019cf835-8ff3-7bf2-9697-d31d4e6eaac8","019cf80d-4266-7117-8a51-54e13c84aca4","","1731","
                <div class=""stimulus-container"">
                    <img src=""images/semantic_sequence/housework_semantic/housework_semantic_7.png"" class=""exp-image"">
                    <div class=""question-area"">
                        <p style=""font-size: 20px; font-weight: bold; margin: 0;"">Is there a person in this image?</p>
                    </div>
                </div>","0","main_experiment_trial","7","housework_semantic","semantic_sequence","","","","",""
"","","","","","html-keyboard-response","157","569293","0.0-157.0","6CD5331589A943B6872A294881D4E0DE","019cf835-8ff3-7bf2-9697-d31d4e6eaac8","019cf80d-4266-7117-8a51-54e13c84aca4","","null","
                <div class=""stimulus-container"">
                    <img src=""images/semantic_sequence/housework_semantic/housework_semantic_8.png"" class=""exp-image"">
                    <div class=""question-area""></div> 
                </div>","null","","","","","","","","",""
"","","","","","html-button-response","158","569944","0.0-158.0","6CD5331589A943B6872A294881D4E0DE","019cf835-8ff3-7bf2-9697-d31d4e6eaac8","019cf80d-4266-7117-8a51-54e13c84aca4","","651","
                <div class=""stimulus-container"">
                    <img src=""images/semantic_sequence/housework_semantic/housework_semantic_8.png"" class=""exp-image"">
                    <div class=""question-area"">
                        <p style=""font-size: 20px; font-weight: bold; margin: 0;"">Is there a person in this image?</p>
                    </div>
                </div>","0","main_experiment_trial","8","housework_semantic","semantic_sequence","","","","",""
"","","","","","html-keyboard-response","159","574960","0.0-159.0","6CD5331589A943B6872A294881D4E0DE","019cf835-8ff3-7bf2-9697-d31d4e6eaac8","019cf80d-4266-7117-8a51-54e13c84aca4","","null","
                <div class=""stimulus-container"">
                    <img src=""images/semantic_sequence/housework_semantic/housework_semantic_9.png"" class=""exp-image"">
                    <div class=""question-area""></div> 
                </div>","null","","","","","","","","",""
"","","","","","html-button-response","160","577259","0.0-160.0","6CD5331589A943B6872A294881D4E0DE","019cf835-8ff3-7bf2-9697-d31d4e6eaac8","019cf80d-4266-7117-8a51-54e13c84aca4","","2297","
                <div class=""stimulus-container"">
                    <img src=""images/semantic_sequence/housework_semantic/housework_semantic_9.png"" class=""exp-image"">
                    <div class=""question-area"">
                        <p style=""font-size: 20px; font-weight: bold; margin: 0;"">Is there a person in this image?</p>
                    </div>
                </div>","0","main_experiment_trial","9","housework_semantic","semantic_sequence","","","","",""
"","","","","","html-keyboard-response","161","582269","0.0-161.0","6CD5331589A943B6872A294881D4E0DE","019cf835-8ff3-7bf2-9697-d31d4e6eaac8","019cf80d-4266-7117-8a51-54e13c84aca4","","null","
                <div class=""stimulus-container"">
                    <img src=""images/semantic_sequence/housework_semantic/housework_semantic_ten.png"" class=""exp-image"">
                    <div class=""question-area""></div> 
                </div>","null","","","","","","","","",""
"","","","","","html-button-response","162","584536","0.0-162.0","6CD5331589A943B6872A294881D4E0DE","019cf835-8ff3-7bf2-9697-d31d4e6eaac8","019cf80d-4266-7117-8a51-54e13c84aca4","","2265","
                <div class=""stimulus-container"">
                    <img src=""images/semantic_sequence/housework_semantic/housework_semantic_ten.png"" class=""exp-image"">
                    <div class=""question-area"">
                        <p style=""font-size: 20px; font-weight: bold; margin: 0;"">Is there a person in this image?</p>
                    </div>
                </div>","0","main_experiment_trial","ten","housework_semantic","semantic_sequence","","","","",""
"","","","","","html-keyboard-response","163","585538","0.0-163.0","6CD5331589A943B6872A294881D4E0DE","019cf835-8ff3-7bf2-9697-d31d4e6eaac8","019cf80d-4266-7117-8a51-54e13c84aca4","","null","<div style=""background-color: white; width: 100vw; height: 100vh;""></div>","null","","","","","","","","",""
"","","","","","html-keyboard-response","164","590548","0.0-164.0","6CD5331589A943B6872A294881D4E0DE","019cf835-8ff3-7bf2-9697-d31d4e6eaac8","019cf80d-4266-7117-8a51-54e13c84aca4","","null","
                <div class=""stimulus-container"">
                    <img src=""images/semantic_sequence/using_technology_semantic/using_technology_semantic_1.png"" class=""exp-image"">
                    <div class=""question-area""></div> 
                </div>","null","","","","","","","","",""
"","","","","","html-button-response","165","593555","0.0-165.0","6CD5331589A943B6872A294881D4E0DE","019cf835-8ff3-7bf2-9697-d31d4e6eaac8","019cf80d-4266-7117-8a51-54e13c84aca4","","null","
                <div class=""stimulus-container"">
                    <img src=""images/semantic_sequence/using_technology_semantic/using_technology_semantic_1.png"" class=""exp-image"">
                    <div class=""question-area"">
                        <p style=""font-size: 20px; font-weight: bold; margin: 0;"">Is there a person in this image?</p>
                    </div>
                </div>","null","main_experiment_trial","1","using_technology_semantic","semantic_sequence","","","","",""
"","","","","","html-keyboard-response","166","598566","0.0-166.0","6CD5331589A943B6872A294881D4E0DE","019cf835-8ff3-7bf2-9697-d31d4e6eaac8","019cf80d-4266-7117-8a51-54e13c84aca4","","null","
                <div class=""stimulus-container"">
                    <img src=""images/semantic_sequence/using_technology_semantic/using_technology_semantic_2.png"" class=""exp-image"">
                    <div class=""question-area""></div> 
                </div>","null","","","","","","","","",""
"","","","","","html-button-response","167","600797","0.0-167.0","6CD5331589A943B6872A294881D4E0DE","019cf835-8ff3-7bf2-9697-d31d4e6eaac8","019cf80d-4266-7117-8a51-54e13c84aca4","","2230","
                <div class=""stimulus-container"">
                    <img src=""images/semantic_sequence/using_technology_semantic/using_technology_semantic_2.png"" class=""exp-image"">
                    <div class=""question-area"">
                        <p style=""font-size: 20px; font-weight: bold; margin: 0;"">Is there a person in this image?</p>
                    </div>
                </div>","0","main_experiment_trial","2","using_technology_semantic","semantic_sequence","","","","",""
"","","","","","html-keyboard-response","168","605803","0.0-168.0","6CD5331589A943B6872A294881D4E0DE","019cf835-8ff3-7bf2-9697-d31d4e6eaac8","019cf80d-4266-7117-8a51-54e13c84aca4","","null","
                <div class=""stimulus-container"">
                    <img src=""images/semantic_sequence/using_technology_semantic/using_technology_semantic_3.png"" class=""exp-image"">
                    <div class=""question-area""></div> 
                </div>","null","","","","","","","","",""
"","","","","","html-button-response","169","607446","0.0-169.0","6CD5331589A943B6872A294881D4E0DE","019cf835-8ff3-7bf2-9697-d31d4e6eaac8","019cf80d-4266-7117-8a51-54e13c84aca4","","1642","
                <div class=""stimulus-container"">
                    <img src=""images/semantic_sequence/using_technology_semantic/using_technology_semantic_3.png"" class=""exp-image"">
                    <div class=""question-area"">
                        <p style=""font-size: 20px; font-weight: bold; margin: 0;"">Is there a person in this image?</p>
                    </div>
                </div>","0","main_experiment_trial","3","using_technology_semantic","semantic_sequence","","","","",""
"","","","","","html-keyboard-response","170","612449","0.0-170.0","6CD5331589A943B6872A294881D4E0DE","019cf835-8ff3-7bf2-9697-d31d4e6eaac8","019cf80d-4266-7117-8a51-54e13c84aca4","","null","
                <div class=""stimulus-container"">
                    <img src=""images/semantic_sequence/using_technology_semantic/using_technology_semantic_4.png"" class=""exp-image"">
                    <div class=""question-area""></div> 
                </div>","null","","","","","","","","",""
"","","","","","html-button-response","171","614064","0.0-171.0","6CD5331589A943B6872A294881D4E0DE","019cf835-8ff3-7bf2-9697-d31d4e6eaac8","019cf80d-4266-7117-8a51-54e13c84aca4","","1612","
                <div class=""stimulus-container"">
                    <img src=""images/semantic_sequence/using_technology_semantic/using_technology_semantic_4.png"" class=""exp-image"">
                    <div class=""question-area"">
                        <p style=""font-size: 20px; font-weight: bold; margin: 0;"">Is there a person in this image?</p>
                    </div>
                </div>","0","main_experiment_trial","4","using_technology_semantic","semantic_sequence","","","","",""
"","","","","","html-keyboard-response","172","619081","0.0-172.0","6CD5331589A943B6872A294881D4E0DE","019cf835-8ff3-7bf2-9697-d31d4e6eaac8","019cf80d-4266-7117-8a51-54e13c84aca4","","null","
                <div class=""stimulus-container"">
                    <img src=""images/semantic_sequence/using_technology_semantic/using_technology_semantic_5.png"" class=""exp-image"">
                    <div class=""question-area""></div> 
                </div>","null","","","","","","","","",""
"","","","","","html-button-response","173","620849","0.0-173.0","6CD5331589A943B6872A294881D4E0DE","019cf835-8ff3-7bf2-9697-d31d4e6eaac8","019cf80d-4266-7117-8a51-54e13c84aca4","","1767","
                <div class=""stimulus-container"">
                    <img src=""images/semantic_sequence/using_technology_semantic/using_technology_semantic_5.png"" class=""exp-image"">
                    <div class=""question-area"">
                        <p style=""font-size: 20px; font-weight: bold; margin: 0;"">Is there a person in this image?</p>
                    </div>
                </div>","0","main_experiment_trial","5","using_technology_semantic","semantic_sequence","","","","",""
"","","","","","html-keyboard-response","174","625858","0.0-174.0","6CD5331589A943B6872A294881D4E0DE","019cf835-8ff3-7bf2-9697-d31d4e6eaac8","019cf80d-4266-7117-8a51-54e13c84aca4","","null","
                <div class=""stimulus-container"">
                    <img src=""images/semantic_sequence/using_technology_semantic/using_technology_semantic_6.png"" class=""exp-image"">
                    <div class=""question-area""></div> 
                </div>","null","","","","","","","","",""
"","","","","","html-button-response","175","628871","0.0-175.0","6CD5331589A943B6872A294881D4E0DE","019cf835-8ff3-7bf2-9697-d31d4e6eaac8","019cf80d-4266-7117-8a51-54e13c84aca4","","null","
                <div class=""stimulus-container"">
                    <img src=""images/semantic_sequence/using_technology_semantic/using_technology_semantic_6.png"" class=""exp-image"">
                    <div class=""question-area"">
                        <p style=""font-size: 20px; font-weight: bold; margin: 0;"">Is there a person in this image?</p>
                    </div>
                </div>","null","main_experiment_trial","6","using_technology_semantic","semantic_sequence","","","","",""
"","","","","","html-keyboard-response","176","633886","0.0-176.0","6CD5331589A943B6872A294881D4E0DE","019cf835-8ff3-7bf2-9697-d31d4e6eaac8","019cf80d-4266-7117-8a51-54e13c84aca4","","null","
                <div class=""stimulus-container"">
                    <img src=""images/semantic_sequence/using_technology_semantic/using_technology_semantic_7.png"" class=""exp-image"">
                    <div class=""question-area""></div> 
                </div>","null","","","","","","","","",""
"","","","","","html-button-response","177","636894","0.0-177.0","6CD5331589A943B6872A294881D4E0DE","019cf835-8ff3-7bf2-9697-d31d4e6eaac8","019cf80d-4266-7117-8a51-54e13c84aca4","","null","
                <div class=""stimulus-container"">
                    <img src=""images/semantic_sequence/using_technology_semantic/using_technology_semantic_7.png"" class=""exp-image"">
                    <div class=""question-area"">
                        <p style=""font-size: 20px; font-weight: bold; margin: 0;"">Is there a person in this image?</p>
                    </div>
                </div>","null","main_experiment_trial","7","using_technology_semantic","semantic_sequence","","","","",""
"","","","","","html-keyboard-response","178","641900","0.0-178.0","6CD5331589A943B6872A294881D4E0DE","019cf835-8ff3-7bf2-9697-d31d4e6eaac8","019cf80d-4266-7117-8a51-54e13c84aca4","","null","
                <div class=""stimulus-container"">
                    <img src=""images/semantic_sequence/using_technology_semantic/using_technology_semantic_8.png"" class=""exp-image"">
                    <div class=""question-area""></div> 
                </div>","null","","","","","","","","",""
"","","","","","html-button-response","179","644047","0.0-179.0","6CD5331589A943B6872A294881D4E0DE","019cf835-8ff3-7bf2-9697-d31d4e6eaac8","019cf80d-4266-7117-8a51-54e13c84aca4","","2146","
