"success","timeout","failed_images","failed_audio","failed_video","trial_type","trial_index","time_elapsed","internal_node_id","subject_id","study_id","session_id","view_history","rt","stimulus","response","task","image_index","folder","sequence_type","valuable_image_index","reward_type","chosen_image_index","correct_choice"
"true","false","[]","[]","[]","preload","0","2275","0.0-0.0","C46550D3A4F148CE953398D0904B8073","019cefa4-239d-7bd9-a0fc-805a2c7f8e71","019cef87-c56d-7b55-9135-c5814367ec25","","","","","","","","","","","",""
"","","","","","instructions","1","943672","0.0-1.0","C46550D3A4F148CE953398D0904B8073","019cefa4-239d-7bd9-a0fc-805a2c7f8e71","019cef87-c56d-7b55-9135-c5814367ec25","[{""page_index"":0,""viewing_time"":941408}]","941408","","","","","","","","","",""
"","","","","","instructions","2","946250","0.0-2.0","C46550D3A4F148CE953398D0904B8073","019cefa4-239d-7bd9-a0fc-805a2c7f8e71","019cef87-c56d-7b55-9135-c5814367ec25","[{""page_index"":0,""viewing_time"":2578}]","2578","","","","","","","","","",""
"true","","","","","fullscreen","3","2008181","0.0-3.0","C46550D3A4F148CE953398D0904B8073","019cefa4-239d-7bd9-a0fc-805a2c7f8e71","019cef87-c56d-7b55-9135-c5814367ec25","","1060933","","","","","","","","","",""
"","","","","","instructions","4","2020646","0.0-4.0","C46550D3A4F148CE953398D0904B8073","019cefa4-239d-7bd9-a0fc-805a2c7f8e71","019cef87-c56d-7b55-9135-c5814367ec25","[{""page_index"":0,""viewing_time"":12465}]","12465","","","","","","","","","",""
"","","","","","instructions","5","2022614","0.0-5.0","C46550D3A4F148CE953398D0904B8073","019cefa4-239d-7bd9-a0fc-805a2c7f8e71","019cef87-c56d-7b55-9135-c5814367ec25","[{""page_index"":0,""viewing_time"":1968}]","1968","","","","","","","","","",""
"","","","","","html-keyboard-response","6","2026617","0.0-6.0","C46550D3A4F148CE953398D0904B8073","019cefa4-239d-7bd9-a0fc-805a2c7f8e71","019cef87-c56d-7b55-9135-c5814367ec25","","null","
                <div class=""stimulus-container"">
                    <img src=""images/instructions/movie_1.png"" class=""exp-image"">
                    <div class=""question-area""></div> 
                </div>","null","","","","","","","",""
"","","","","","html-button-response","7","2028671","0.0-7.0","C46550D3A4F148CE953398D0904B8073","019cefa4-239d-7bd9-a0fc-805a2c7f8e71","019cef87-c56d-7b55-9135-c5814367ec25","","2051","
                <div class=""stimulus-container"">
                    <img src=""images/instructions/movie_1.png"" class=""exp-image"">
                    <div class=""question-area"">
                        <p style=""font-size: 20px; font-weight: bold; margin: 0;"">Was there a person in this image?</p>
                    </div>
                </div>","0","example_question","1","","","","","",""
"","","","","","html-keyboard-response","8","2032672","0.0-8.0","C46550D3A4F148CE953398D0904B8073","019cefa4-239d-7bd9-a0fc-805a2c7f8e71","019cef87-c56d-7b55-9135-c5814367ec25","","null","
                <div class=""stimulus-container"">
                    <img src=""images/instructions/movie_2.png"" class=""exp-image"">
                    <div class=""question-area""></div> 
                </div>","null","","","","","","","",""
"","","","","","html-button-response","9","2033735","0.0-9.0","C46550D3A4F148CE953398D0904B8073","019cefa4-239d-7bd9-a0fc-805a2c7f8e71","019cef87-c56d-7b55-9135-c5814367ec25","","1061","
                <div class=""stimulus-container"">
                    <img src=""images/instructions/movie_2.png"" class=""exp-image"">
                    <div class=""question-area"">
                        <p style=""font-size: 20px; font-weight: bold; margin: 0;"">Was there a person in this image?</p>
                    </div>
                </div>","0","example_question","2","","","","","",""
"","","","","","html-keyboard-response","10","2037738","0.0-10.0","C46550D3A4F148CE953398D0904B8073","019cefa4-239d-7bd9-a0fc-805a2c7f8e71","019cef87-c56d-7b55-9135-c5814367ec25","","null","
                <div class=""stimulus-container"">
                    <img src=""images/instructions/movie_3.png"" class=""exp-image"">
                    <div class=""question-area""></div> 
                </div>","null","","","","","","","",""
"","","","","","html-button-response","11","2038983","0.0-11.0","C46550D3A4F148CE953398D0904B8073","019cefa4-239d-7bd9-a0fc-805a2c7f8e71","019cef87-c56d-7b55-9135-c5814367ec25","","1244","
                <div class=""stimulus-container"">
                    <img src=""images/instructions/movie_3.png"" class=""exp-image"">
                    <div class=""question-area"">
                        <p style=""font-size: 20px; font-weight: bold; margin: 0;"">Was there a person in this image?</p>
                    </div>
                </div>","0","example_question","3","","","","","",""
"","","","","","html-keyboard-response","12","2042985","0.0-12.0","C46550D3A4F148CE953398D0904B8073","019cefa4-239d-7bd9-a0fc-805a2c7f8e71","019cef87-c56d-7b55-9135-c5814367ec25","","null","
                <div class=""stimulus-container"">
                    <img src=""images/instructions/movie_4.png"" class=""exp-image"">
                    <div class=""question-area""></div> 
                </div>","null","","","","","","","",""
"","","","","","html-button-response","13","2043732","0.0-13.0","C46550D3A4F148CE953398D0904B8073","019cefa4-239d-7bd9-a0fc-805a2c7f8e71","019cef87-c56d-7b55-9135-c5814367ec25","","746","
                <div class=""stimulus-container"">
                    <img src=""images/instructions/movie_4.png"" class=""exp-image"">
                    <div class=""question-area"">
                        <p style=""font-size: 20px; font-weight: bold; margin: 0;"">Was there a person in this image?</p>
                    </div>
                </div>","0","example_question","4","","","","","",""
"","","","","","instructions","14","2045914","0.0-14.0","C46550D3A4F148CE953398D0904B8073","019cefa4-239d-7bd9-a0fc-805a2c7f8e71","019cef87-c56d-7b55-9135-c5814367ec25","[{""page_index"":0,""viewing_time"":2182}]","2183","","","","","","","","","",""
"","","","","","instructions","15","2050346","0.0-15.0","C46550D3A4F148CE953398D0904B8073","019cefa4-239d-7bd9-a0fc-805a2c7f8e71","019cef87-c56d-7b55-9135-c5814367ec25","[{""page_index"":0,""viewing_time"":4432}]","4432","","","","","","","","","",""
"","","","","","html-keyboard-response","16","2051347","0.0-16.0","C46550D3A4F148CE953398D0904B8073","019cefa4-239d-7bd9-a0fc-805a2c7f8e71","019cef87-c56d-7b55-9135-c5814367ec25","","null","<div style=""background-color: white; width: 100vw; height: 100vh;""></div>","null","","","","","","","",""
"","","","","","html-keyboard-response","17","2056349","0.0-17.0","C46550D3A4F148CE953398D0904B8073","019cefa4-239d-7bd9-a0fc-805a2c7f8e71","019cef87-c56d-7b55-9135-c5814367ec25","","null","
                <div class=""stimulus-container"">
                    <img src=""images/causal_sequence/museum_causal/museum_causal_1.png"" class=""exp-image"">
                    <div class=""question-area""></div> 
                </div>","null","","","","","","","",""
"","","","","","html-button-response","18","2057213","0.0-18.0","C46550D3A4F148CE953398D0904B8073","019cefa4-239d-7bd9-a0fc-805a2c7f8e71","019cef87-c56d-7b55-9135-c5814367ec25","","862","
                <div class=""stimulus-container"">
                    <img src=""images/causal_sequence/museum_causal/museum_causal_1.png"" class=""exp-image"">
                    <div class=""question-area"">
                        <p style=""font-size: 20px; font-weight: bold; margin: 0;"">Is there a person in this image?</p>
                    </div>
                </div>","0","main_experiment_trial","1","museum_causal","causal_sequence","","","",""
"","","","","","html-keyboard-response","19","2062215","0.0-19.0","C46550D3A4F148CE953398D0904B8073","019cefa4-239d-7bd9-a0fc-805a2c7f8e71","019cef87-c56d-7b55-9135-c5814367ec25","","null","
                <div class=""stimulus-container"">
                    <img src=""images/causal_sequence/museum_causal/museum_causal_2.png"" class=""exp-image"">
                    <div class=""question-area""></div> 
                </div>","null","","","","","","","",""
"","","","","","html-button-response","20","2062796","0.0-20.0","C46550D3A4F148CE953398D0904B8073","019cefa4-239d-7bd9-a0fc-805a2c7f8e71","019cef87-c56d-7b55-9135-c5814367ec25","","579","
                <div class=""stimulus-container"">
                    <img src=""images/causal_sequence/museum_causal/museum_causal_2.png"" class=""exp-image"">
                    <div class=""question-area"">
                        <p style=""font-size: 20px; font-weight: bold; margin: 0;"">Is there a person in this image?</p>
                    </div>
                </div>","0","main_experiment_trial","2","museum_causal","causal_sequence","","","",""
"","","","","","html-keyboard-response","21","2067798","0.0-21.0","C46550D3A4F148CE953398D0904B8073","019cefa4-239d-7bd9-a0fc-805a2c7f8e71","019cef87-c56d-7b55-9135-c5814367ec25","","null","
                <div class=""stimulus-container"">
                    <img src=""images/causal_sequence/museum_causal/museum_causal_3.png"" class=""exp-image"">
                    <div class=""question-area""></div> 
                </div>","null","","","","","","","",""
"","","","","","html-button-response","22","2068446","0.0-22.0","C46550D3A4F148CE953398D0904B8073","019cefa4-239d-7bd9-a0fc-805a2c7f8e71","019cef87-c56d-7b55-9135-c5814367ec25","","647","
                <div class=""stimulus-container"">
                    <img src=""images/causal_sequence/museum_causal/museum_causal_3.png"" class=""exp-image"">
                    <div class=""question-area"">
                        <p style=""font-size: 20px; font-weight: bold; margin: 0;"">Is there a person in this image?</p>
                    </div>
                </div>","0","main_experiment_trial","3","museum_causal","causal_sequence","","","",""
"","","","","","html-keyboard-response","23","2073448","0.0-23.0","C46550D3A4F148CE953398D0904B8073","019cefa4-239d-7bd9-a0fc-805a2c7f8e71","019cef87-c56d-7b55-9135-c5814367ec25","","null","
                <div class=""stimulus-container"">
                    <img src=""images/causal_sequence/museum_causal/museum_causal_4.png"" class=""exp-image"">
                    <div class=""question-area""></div> 
                </div>","null","","","","","","","",""
"","","","","","html-button-response","24","2074096","0.0-24.0","C46550D3A4F148CE953398D0904B8073","019cefa4-239d-7bd9-a0fc-805a2c7f8e71","019cef87-c56d-7b55-9135-c5814367ec25","","647","
                <div class=""stimulus-container"">
                    <img src=""images/causal_sequence/museum_causal/museum_causal_4.png"" class=""exp-image"">
                    <div class=""question-area"">
                        <p style=""font-size: 20px; font-weight: bold; margin: 0;"">Is there a person in this image?</p>
                    </div>
                </div>","1","main_experiment_trial","4","museum_causal","causal_sequence","","","",""
"","","","","","html-keyboard-response","25","2079098","0.0-25.0","C46550D3A4F148CE953398D0904B8073","019cefa4-239d-7bd9-a0fc-805a2c7f8e71","019cef87-c56d-7b55-9135-c5814367ec25","","null","
                <div class=""stimulus-container"">
                    <img src=""images/causal_sequence/museum_causal/museum_causal_5.png"" class=""exp-image"">
                    <div class=""question-area""></div> 
                </div>","null","","","","","","","",""
"","","","","","html-button-response","26","2079717","0.0-26.0","C46550D3A4F148CE953398D0904B8073","019cefa4-239d-7bd9-a0fc-805a2c7f8e71","019cef87-c56d-7b55-9135-c5814367ec25","","618","
                <div class=""stimulus-container"">
                    <img src=""images/causal_sequence/museum_causal/museum_causal_5.png"" class=""exp-image"">
                    <div class=""question-area"">
                        <p style=""font-size: 20px; font-weight: bold; margin: 0;"">Is there a person in this image?</p>
                    </div>
                </div>","0","main_experiment_trial","5","museum_causal","causal_sequence","","","",""
"","","","","","html-keyboard-response","27","2084719","0.0-27.0","C46550D3A4F148CE953398D0904B8073","019cefa4-239d-7bd9-a0fc-805a2c7f8e71","019cef87-c56d-7b55-9135-c5814367ec25","","null","
                <div class=""stimulus-container"">
                    <img src=""images/causal_sequence/museum_causal/museum_causal_6.png"" class=""exp-image"">
                    <div class=""question-area""></div> 
                </div>","null","","","","","","","",""
"","","","","","html-button-response","28","2085317","0.0-28.0","C46550D3A4F148CE953398D0904B8073","019cefa4-239d-7bd9-a0fc-805a2c7f8e71","019cef87-c56d-7b55-9135-c5814367ec25","","598","
                <div class=""stimulus-container"">
                    <img src=""images/causal_sequence/museum_causal/museum_causal_6.png"" class=""exp-image"">
                    <div class=""question-area"">
                        <p style=""font-size: 20px; font-weight: bold; margin: 0;"">Is there a person in this image?</p>
                    </div>
                </div>","0","main_experiment_trial","6","museum_causal","causal_sequence","","","",""
"","","","","","html-keyboard-response","29","2090320","0.0-29.0","C46550D3A4F148CE953398D0904B8073","019cefa4-239d-7bd9-a0fc-805a2c7f8e71","019cef87-c56d-7b55-9135-c5814367ec25","","null","
                <div class=""stimulus-container"">
                    <img src=""images/causal_sequence/museum_causal/museum_causal_7.png"" class=""exp-image"">
                    <div class=""question-area""></div> 
                </div>","null","","","","","","","",""
"","","","","","html-button-response","30","2091180","0.0-30.0","C46550D3A4F148CE953398D0904B8073","019cefa4-239d-7bd9-a0fc-805a2c7f8e71","019cef87-c56d-7b55-9135-c5814367ec25","","859","
                <div class=""stimulus-container"">
                    <img src=""images/causal_sequence/museum_causal/museum_causal_7.png"" class=""exp-image"">
                    <div class=""question-area"">
                        <p style=""font-size: 20px; font-weight: bold; margin: 0;"">Is there a person in this image?</p>
                    </div>
                </div>","1","main_experiment_trial","7","museum_causal","causal_sequence","","","",""
"","","","","","html-keyboard-response","31","2096181","0.0-31.0","C46550D3A4F148CE953398D0904B8073","019cefa4-239d-7bd9-a0fc-805a2c7f8e71","019cef87-c56d-7b55-9135-c5814367ec25","","null","
                <div class=""stimulus-container"">
                    <img src=""images/causal_sequence/museum_causal/museum_causal_8.png"" class=""exp-image"">
                    <div class=""question-area""></div> 
                </div>","null","","","","","","","",""
"","","","","","html-button-response","32","2097829","0.0-32.0","C46550D3A4F148CE953398D0904B8073","019cefa4-239d-7bd9-a0fc-805a2c7f8e71","019cef87-c56d-7b55-9135-c5814367ec25","","1647","
                <div class=""stimulus-container"">
                    <img src=""images/causal_sequence/museum_causal/museum_causal_8.png"" class=""exp-image"">
                    <div class=""question-area"">
                        <p style=""font-size: 20px; font-weight: bold; margin: 0;"">Is there a person in this image?</p>
                    </div>
                </div>","0","main_experiment_trial","8","museum_causal","causal_sequence","","","",""
"","","","","","html-keyboard-response","33","2102832","0.0-33.0","C46550D3A4F148CE953398D0904B8073","019cefa4-239d-7bd9-a0fc-805a2c7f8e71","019cef87-c56d-7b55-9135-c5814367ec25","","null","
                <div class=""stimulus-container"">
                    <img src=""images/causal_sequence/museum_causal/museum_causal_9.png"" class=""exp-image"">
                    <div class=""question-area""></div> 
                </div>","null","","","","","","","",""
"","","","","","html-button-response","34","2103686","0.0-34.0","C46550D3A4F148CE953398D0904B8073","019cefa4-239d-7bd9-a0fc-805a2c7f8e71","019cef87-c56d-7b55-9135-c5814367ec25","","853","
                <div class=""stimulus-container"">
                    <img src=""images/causal_sequence/museum_causal/museum_causal_9.png"" class=""exp-image"">
                    <div class=""question-area"">
                        <p style=""font-size: 20px; font-weight: bold; margin: 0;"">Is there a person in this image?</p>
                    </div>
                </div>","1","main_experiment_trial","9","museum_causal","causal_sequence","","","",""
"","","","","","html-keyboard-response","35","2108687","0.0-35.0","C46550D3A4F148CE953398D0904B8073","019cefa4-239d-7bd9-a0fc-805a2c7f8e71","019cef87-c56d-7b55-9135-c5814367ec25","","null","
                <div class=""stimulus-container"">
                    <img src=""images/causal_sequence/museum_causal/museum_causal_ten.png"" class=""exp-image"">
                    <div class=""question-area""></div> 
                </div>","null","","","","","","","",""
"","","","","","html-button-response","36","2109796","0.0-36.0","C46550D3A4F148CE953398D0904B8073","019cefa4-239d-7bd9-a0fc-805a2c7f8e71","019cef87-c56d-7b55-9135-c5814367ec25","","1108","
                <div class=""stimulus-container"">
                    <img src=""images/causal_sequence/museum_causal/museum_causal_ten.png"" class=""exp-image"">
                    <div class=""question-area"">
                        <p style=""font-size: 20px; font-weight: bold; margin: 0;"">Is there a person in this image?</p>
                    </div>
                </div>","0","main_experiment_trial","ten","museum_causal","causal_sequence","","","",""
"","","","","","html-keyboard-response","37","2110798","0.0-37.0","C46550D3A4F148CE953398D0904B8073","019cefa4-239d-7bd9-a0fc-805a2c7f8e71","019cef87-c56d-7b55-9135-c5814367ec25","","null","<div style=""background-color: white; width: 100vw; height: 100vh;""></div>","null","","","","","","","",""
"","","","","","html-keyboard-response","38","2115801","0.0-38.0","C46550D3A4F148CE953398D0904B8073","019cefa4-239d-7bd9-a0fc-805a2c7f8e71","019cef87-c56d-7b55-9135-c5814367ec25","","null","
                <div class=""stimulus-container"">
                    <img src=""images/causal_sequence/package_causal/package_causal_1.png"" class=""exp-image"">
                    <div class=""question-area""></div> 
                </div>","null","","","","","","","",""
"","","","","","html-button-response","39","2116313","0.0-39.0","C46550D3A4F148CE953398D0904B8073","019cefa4-239d-7bd9-a0fc-805a2c7f8e71","019cef87-c56d-7b55-9135-c5814367ec25","","511","
                <div class=""stimulus-container"">
                    <img src=""images/causal_sequence/package_causal/package_causal_1.png"" class=""exp-image"">
                    <div class=""question-area"">
                        <p style=""font-size: 20px; font-weight: bold; margin: 0;"">Is there a person in this image?</p>
                    </div>
                </div>","0","main_experiment_trial","1","package_causal","causal_sequence","","","",""
"","","","","","html-keyboard-response","40","2121316","0.0-40.0","C46550D3A4F148CE953398D0904B8073","019cefa4-239d-7bd9-a0fc-805a2c7f8e71","019cef87-c56d-7b55-9135-c5814367ec25","","null","
                <div class=""stimulus-container"">
                    <img src=""images/causal_sequence/package_causal/package_causal_2.png"" class=""exp-image"">
                    <div class=""question-area""></div> 
                </div>","null","","","","","","","",""
"","","","","","html-button-response","41","2121768","0.0-41.0","C46550D3A4F148CE953398D0904B8073","019cefa4-239d-7bd9-a0fc-805a2c7f8e71","019cef87-c56d-7b55-9135-c5814367ec25","","451","
                <div class=""stimulus-container"">
                    <img src=""images/causal_sequence/package_causal/package_causal_2.png"" class=""exp-image"">
                    <div class=""question-area"">
                        <p style=""font-size: 20px; font-weight: bold; margin: 0;"">Is there a person in this image?</p>
                    </div>
                </div>","0","main_experiment_trial","2","package_causal","causal_sequence","","","",""
"","","","","","html-keyboard-response","42","2126770","0.0-42.0","C46550D3A4F148CE953398D0904B8073","019cefa4-239d-7bd9-a0fc-805a2c7f8e71","019cef87-c56d-7b55-9135-c5814367ec25","","null","
                <div class=""stimulus-container"">
                    <img src=""images/causal_sequence/package_causal/package_causal_3.png"" class=""exp-image"">
                    <div class=""question-area""></div> 
                </div>","null","","","","","","","",""
"","","","","","html-button-response","43","2128063","0.0-43.0","C46550D3A4F148CE953398D0904B8073","019cefa4-239d-7bd9-a0fc-805a2c7f8e71","019cef87-c56d-7b55-9135-c5814367ec25","","1292","
                <div class=""stimulus-container"">
                    <img src=""images/causal_sequence/package_causal/package_causal_3.png"" class=""exp-image"">
                    <div class=""question-area"">
                        <p style=""font-size: 20px; font-weight: bold; margin: 0;"">Is there a person in this image?</p>
                    </div>
                </div>","0","main_experiment_trial","3","package_causal","causal_sequence","","","",""
"","","","","","html-keyboard-response","44","2133065","0.0-44.0","C46550D3A4F148CE953398D0904B8073","019cefa4-239d-7bd9-a0fc-805a2c7f8e71","019cef87-c56d-7b55-9135-c5814367ec25","","null","
                <div class=""stimulus-container"">
                    <img src=""images/causal_sequence/package_causal/package_causal_4.png"" class=""exp-image"">
                    <div class=""question-area""></div> 
                </div>","null","","","","","","","",""
"","","","","","html-button-response","45","2134913","0.0-45.0","C46550D3A4F148CE953398D0904B8073","019cefa4-239d-7bd9-a0fc-805a2c7f8e71","019cef87-c56d-7b55-9135-c5814367ec25","","1848","
                <div class=""stimulus-container"">
                    <img src=""images/causal_sequence/package_causal/package_causal_4.png"" class=""exp-image"">
                    <div class=""question-area"">
                        <p style=""font-size: 20px; font-weight: bold; margin: 0;"">Is there a person in this image?</p>
                    </div>
                </div>","1","main_experiment_trial","4","package_causal","causal_sequence","","","",""
"","","","","","html-keyboard-response","46","2139914","0.0-46.0","C46550D3A4F148CE953398D0904B8073","019cefa4-239d-7bd9-a0fc-805a2c7f8e71","019cef87-c56d-7b55-9135-c5814367ec25","","null","
                <div class=""stimulus-container"">
                    <img src=""images/causal_sequence/package_causal/package_causal_5.png"" class=""exp-image"">
                    <div class=""question-area""></div> 
                </div>","null","","","","","","","",""
"","","","","","html-button-response","47","2140547","0.0-47.0","C46550D3A4F148CE953398D0904B8073","019cefa4-239d-7bd9-a0fc-805a2c7f8e71","019cef87-c56d-7b55-9135-c5814367ec25","","632","
                <div class=""stimulus-container"">
                    <img src=""images/causal_sequence/package_causal/package_causal_5.png"" class=""exp-image"">
                    <div class=""question-area"">
                        <p style=""font-size: 20px; font-weight: bold; margin: 0;"">Is there a person in this image?</p>
                    </div>
                </div>","0","main_experiment_trial","5","package_causal","causal_sequence","","","",""
"","","","","","html-keyboard-response","48","2145548","0.0-48.0","C46550D3A4F148CE953398D0904B8073","019cefa4-239d-7bd9-a0fc-805a2c7f8e71","019cef87-c56d-7b55-9135-c5814367ec25","","null","
                <div class=""stimulus-container"">
                    <img src=""images/causal_sequence/package_causal/package_causal_6.png"" class=""exp-image"">
                    <div class=""question-area""></div> 
                </div>","null","","","","","","","",""
"","","","","","html-button-response","49","2148551","0.0-49.0","C46550D3A4F148CE953398D0904B8073","019cefa4-239d-7bd9-a0fc-805a2c7f8e71","019cef87-c56d-7b55-9135-c5814367ec25","","null","
                <div class=""stimulus-container"">
                    <img src=""images/causal_sequence/package_causal/package_causal_6.png"" class=""exp-image"">
                    <div class=""question-area"">
                        <p style=""font-size: 20px; font-weight: bold; margin: 0;"">Is there a person in this image?</p>
                    </div>
                </div>","null","main_experiment_trial","6","package_causal","causal_sequence","","","",""
"","","","","","html-keyboard-response","50","2153554","0.0-50.0","C46550D3A4F148CE953398D0904B8073","019cefa4-239d-7bd9-a0fc-805a2c7f8e71","019cef87-c56d-7b55-9135-c5814367ec25","","null","
                <div class=""stimulus-container"">
                    <img src=""images/causal_sequence/package_causal/package_causal_7.png"" class=""exp-image"">
                    <div class=""question-area""></div> 
                </div>","null","","","","","","","",""
"","","","","","html-button-response","51","2154570","0.0-51.0","C46550D3A4F148CE953398D0904B8073","019cefa4-239d-7bd9-a0fc-805a2c7f8e71","019cef87-c56d-7b55-9135-c5814367ec25","","1015","
                <div class=""stimulus-container"">
                    <img src=""images/causal_sequence/package_causal/package_causal_7.png"" class=""exp-image"">
                    <div class=""question-area"">
                        <p style=""font-size: 20px; font-weight: bold; margin: 0;"">Is there a person in this image?</p>
                    </div>
                </div>","0","main_experiment_trial","7","package_causal","causal_sequence","","","",""
"","","","","","html-keyboard-response","52","2159572","0.0-52.0","C46550D3A4F148CE953398D0904B8073","019cefa4-239d-7bd9-a0fc-805a2c7f8e71","019cef87-c56d-7b55-9135-c5814367ec25","","null","
                <div class=""stimulus-container"">
                    <img src=""images/causal_sequence/package_causal/package_causal_8.png"" class=""exp-image"">
                    <div class=""question-area""></div> 
                </div>","null","","","","","","","",""
"","","","","","html-button-response","53","2160067","0.0-53.0","C46550D3A4F148CE953398D0904B8073","019cefa4-239d-7bd9-a0fc-805a2c7f8e71","019cef87-c56d-7b55-9135-c5814367ec25","","494","
                <div class=""stimulus-container"">
                    <img src=""images/causal_sequence/package_causal/package_causal_8.png"" class=""exp-image"">
                    <div class=""question-area"">
                        <p style=""font-size: 20px; font-weight: bold; margin: 0;"">Is there a person in this image?</p>
                    </div>
                </div>","0","main_experiment_trial","8","package_causal","causal_sequence","","","",""
"","","","","","html-keyboard-response","54","2165069","0.0-54.0","C46550D3A4F148CE953398D0904B8073","019cefa4-239d-7bd9-a0fc-805a2c7f8e71","019cef87-c56d-7b55-9135-c5814367ec25","","null","
                <div class=""stimulus-container"">
                    <img src=""images/causal_sequence/package_causal/package_causal_9.png"" class=""exp-image"">
                    <div class=""question-area""></div> 
                </div>","null","","","","","","","",""
"","","","","","html-button-response","55","2165747","0.0-55.0","C46550D3A4F148CE953398D0904B8073","019cefa4-239d-7bd9-a0fc-805a2c7f8e71","019cef87-c56d-7b55-9135-c5814367ec25","","677","
                <div class=""stimulus-container"">
                    <img src=""images/causal_sequence/package_causal/package_causal_9.png"" class=""exp-image"">
                    <div class=""question-area"">
                        <p style=""font-size: 20px; font-weight: bold; margin: 0;"">Is there a person in this image?</p>
                    </div>
                </div>","0","main_experiment_trial","9","package_causal","causal_sequence","","","",""
"","","","","","html-keyboard-response","56","2170749","0.0-56.0","C46550D3A4F148CE953398D0904B8073","019cefa4-239d-7bd9-a0fc-805a2c7f8e71","019cef87-c56d-7b55-9135-c5814367ec25","","null","
                <div class=""stimulus-container"">
                    <img src=""images/causal_sequence/package_causal/package_causal_ten.png"" class=""exp-image"">
                    <div class=""question-area""></div> 
                </div>","null","","","","","","","",""
"","","","","","html-button-response","57","2171430","0.0-57.0","C46550D3A4F148CE953398D0904B8073","019cefa4-239d-7bd9-a0fc-805a2c7f8e71","019cef87-c56d-7b55-9135-c5814367ec25","","679","
                <div class=""stimulus-container"">
                    <img src=""images/causal_sequence/package_causal/package_causal_ten.png"" class=""exp-image"">
                    <div class=""question-area"">
                        <p style=""font-size: 20px; font-weight: bold; margin: 0;"">Is there a person in this image?</p>
                    </div>
                </div>","0","main_experiment_trial","ten","package_causal","causal_sequence","","","",""
"","","","","","html-keyboard-response","58","2172432","0.0-58.0","C46550D3A4F148CE953398D0904B8073","019cefa4-239d-7bd9-a0fc-805a2c7f8e71","019cef87-c56d-7b55-9135-c5814367ec25","","null","<div style=""background-color: white; width: 100vw; height: 100vh;""></div>","null","","","","","","","",""
"","","","","","html-keyboard-response","59","2177435","0.0-59.0","C46550D3A4F148CE953398D0904B8073","019cefa4-239d-7bd9-a0fc-805a2c7f8e71","019cef87-c56d-7b55-9135-c5814367ec25","","null","
                <div class=""stimulus-container"">
                    <img src=""images/schematic_sequence/supermarket_scheme/supermarket_scheme_1.png"" class=""exp-image"">
                    <div class=""question-area""></div> 
                </div>","null","","","","","","","",""
"","","","","","html-button-response","60","2177997","0.0-60.0","C46550D3A4F148CE953398D0904B8073","019cefa4-239d-7bd9-a0fc-805a2c7f8e71","019cef87-c56d-7b55-9135-c5814367ec25","","560","
                <div class=""stimulus-container"">
                    <img src=""images/schematic_sequence/supermarket_scheme/supermarket_scheme_1.png"" class=""exp-image"">
                    <div class=""question-area"">
                        <p style=""font-size: 20px; font-weight: bold; margin: 0;"">Is there a person in this image?</p>
                    </div>
                </div>","1","main_experiment_trial","1","supermarket_scheme","schematic_sequence","","","",""
"","","","","","html-keyboard-response","61","2182999","0.0-61.0","C46550D3A4F148CE953398D0904B8073","019cefa4-239d-7bd9-a0fc-805a2c7f8e71","019cef87-c56d-7b55-9135-c5814367ec25","","null","
                <div class=""stimulus-container"">
                    <img src=""images/schematic_sequence/supermarket_scheme/supermarket_scheme_2.png"" class=""exp-image"">
                    <div class=""question-area""></div> 
                </div>","null","","","","","","","",""
"","","","","","html-button-response","62","2184701","0.0-62.0","C46550D3A4F148CE953398D0904B8073","019cefa4-239d-7bd9-a0fc-805a2c7f8e71","019cef87-c56d-7b55-9135-c5814367ec25","","1701","
                <div class=""stimulus-container"">
                    <img src=""images/schematic_sequence/supermarket_scheme/supermarket_scheme_2.png"" class=""exp-image"">
                    <div class=""question-area"">
                        <p style=""font-size: 20px; font-weight: bold; margin: 0;"">Is there a person in this image?</p>
                    </div>
                </div>","1","main_experiment_trial","2","supermarket_scheme","schematic_sequence","","","",""
"","","","","","html-keyboard-response","63","2189703","0.0-63.0","C46550D3A4F148CE953398D0904B8073","019cefa4-239d-7bd9-a0fc-805a2c7f8e71","019cef87-c56d-7b55-9135-c5814367ec25","","null","
                <div class=""stimulus-container"">
                    <img src=""images/schematic_sequence/supermarket_scheme/supermarket_scheme_3.png"" class=""exp-image"">
                    <div class=""question-area""></div> 
                </div>","null","","","","","","","",""
"","","","","","html-button-response","64","2192706","0.0-64.0","C46550D3A4F148CE953398D0904B8073","019cefa4-239d-7bd9-a0fc-805a2c7f8e71","019cef87-c56d-7b55-9135-c5814367ec25","","null","
                <div class=""stimulus-container"">
                    <img src=""images/schematic_sequence/supermarket_scheme/supermarket_scheme_3.png"" class=""exp-image"">
                    <div class=""question-area"">
                        <p style=""font-size: 20px; font-weight: bold; margin: 0;"">Is there a person in this image?</p>
                    </div>
                </div>","null","main_experiment_trial","3","supermarket_scheme","schematic_sequence","","","",""
"","","","","","html-keyboard-response","65","2197707","0.0-65.0","C46550D3A4F148CE953398D0904B8073","019cefa4-239d-7bd9-a0fc-805a2c7f8e71","019cef87-c56d-7b55-9135-c5814367ec25","","null","
                <div class=""stimulus-container"">
                    <img src=""images/schematic_sequence/supermarket_scheme/supermarket_scheme_4.png"" class=""exp-image"">
                    <div class=""question-area""></div> 
                </div>","null","","","","","","","",""
"","","","","","html-button-response","66","2198184","0.0-66.0","C46550D3A4F148CE953398D0904B8073","019cefa4-239d-7bd9-a0fc-805a2c7f8e71","019cef87-c56d-7b55-9135-c5814367ec25","","477","
                <div class=""stimulus-container"">
                    <img src=""images/schematic_sequence/supermarket_scheme/supermarket_scheme_4.png"" class=""exp-image"">
                    <div class=""question-area"">
                        <p style=""font-size: 20px; font-weight: bold; margin: 0;"">Is there a person in this image?</p>
                    </div>
                </div>","0","main_experiment_trial","4","supermarket_scheme","schematic_sequence","","","",""
"","","","","","html-keyboard-response","67","2203186","0.0-67.0","C46550D3A4F148CE953398D0904B8073","019cefa4-239d-7bd9-a0fc-805a2c7f8e71","019cef87-c56d-7b55-9135-c5814367ec25","","null","
                <div class=""stimulus-container"">
                    <img src=""images/schematic_sequence/supermarket_scheme/supermarket_scheme_5.png"" class=""exp-image"">
                    <div class=""question-area""></div> 
                </div>","null","","","","","","","",""
"","","","","","html-button-response","68","2204297","0.0-68.0","C46550D3A4F148CE953398D0904B8073","019cefa4-239d-7bd9-a0fc-805a2c7f8e71","019cef87-c56d-7b55-9135-c5814367ec25","","1110","
                <div class=""stimulus-container"">
                    <img src=""images/schematic_sequence/supermarket_scheme/supermarket_scheme_5.png"" class=""exp-image"">
                    <div class=""question-area"">
                        <p style=""font-size: 20px; font-weight: bold; margin: 0;"">Is there a person in this image?</p>
                    </div>
                </div>","1","main_experiment_trial","5","supermarket_scheme","schematic_sequence","","","",""
"","","","","","html-keyboard-response","69","2209299","0.0-69.0","C46550D3A4F148CE953398D0904B8073","019cefa4-239d-7bd9-a0fc-805a2c7f8e71","019cef87-c56d-7b55-9135-c5814367ec25","","null","
                <div class=""stimulus-container"">
                    <img src=""images/schematic_sequence/supermarket_scheme/supermarket_scheme_6.png"" class=""exp-image"">
                    <div class=""question-area""></div> 
                </div>","null","","","","","","","",""
"","","","","","html-button-response","70","2210386","0.0-70.0","C46550D3A4F148CE953398D0904B8073","019cefa4-239d-7bd9-a0fc-805a2c7f8e71","019cef87-c56d-7b55-9135-c5814367ec25","","1086","
                <div class=""stimulus-container"">
                    <img src=""images/schematic_sequence/supermarket_scheme/supermarket_scheme_6.png"" class=""exp-image"">
                    <div class=""question-area"">
                        <p style=""font-size: 20px; font-weight: bold; margin: 0;"">Is there a person in this image?</p>
                    </div>
                </div>","0","main_experiment_trial","6","supermarket_scheme","schematic_sequence","","","",""
"","","","","","html-keyboard-response","71","2215387","0.0-71.0","C46550D3A4F148CE953398D0904B8073","019cefa4-239d-7bd9-a0fc-805a2c7f8e71","019cef87-c56d-7b55-9135-c5814367ec25","","null","
                <div class=""stimulus-container"">
                    <img src=""images/schematic_sequence/supermarket_scheme/supermarket_scheme_7.png"" class=""exp-image"">
                    <div class=""question-area""></div> 
                </div>","null","","","","","","","",""
"","","","","","html-button-response","72","2215947","0.0-72.0","C46550D3A4F148CE953398D0904B8073","019cefa4-239d-7bd9-a0fc-805a2c7f8e71","019cef87-c56d-7b55-9135-c5814367ec25","","559","
                <div class=""stimulus-container"">
                    <img src=""images/schematic_sequence/supermarket_scheme/supermarket_scheme_7.png"" class=""exp-image"">
                    <div class=""question-area"">
                        <p style=""font-size: 20px; font-weight: bold; margin: 0;"">Is there a person in this image?</p>
                    </div>
                </div>","0","main_experiment_trial","7","supermarket_scheme","schematic_sequence","","","",""
"","","","","","html-keyboard-response","73","2220949","0.0-73.0","C46550D3A4F148CE953398D0904B8073","019cefa4-239d-7bd9-a0fc-805a2c7f8e71","019cef87-c56d-7b55-9135-c5814367ec25","","null","
                <div class=""stimulus-container"">
                    <img src=""images/schematic_sequence/supermarket_scheme/supermarket_scheme_8.png"" class=""exp-image"">
                    <div class=""question-area""></div> 
                </div>","null","","","","","","","",""
"","","","","","html-button-response","74","2221503","0.0-74.0","C46550D3A4F148CE953398D0904B8073","019cefa4-239d-7bd9-a0fc-805a2c7f8e71","019cef87-c56d-7b55-9135-c5814367ec25","","553","
                <div class=""stimulus-container"">
                    <img src=""images/schematic_sequence/supermarket_scheme/supermarket_scheme_8.png"" class=""exp-image"">
                    <div class=""question-area"">
                        <p style=""font-size: 20px; font-weight: bold; margin: 0;"">Is there a person in this image?</p>
                    </div>
                </div>","0","main_experiment_trial","8","supermarket_scheme","schematic_sequence","","","",""
"","","","","","html-keyboard-response","75","2226505","0.0-75.0","C46550D3A4F148CE953398D0904B8073","019cefa4-239d-7bd9-a0fc-805a2c7f8e71","019cef87-c56d-7b55-9135-c5814367ec25","","null","
                <div class=""stimulus-container"">
                    <img src=""images/schematic_sequence/supermarket_scheme/supermarket_scheme_9.png"" class=""exp-image"">
                    <div class=""question-area""></div> 
                </div>","null","","","","","","","",""
"","","","","","html-button-response","76","2227234","0.0-76.0","C46550D3A4F148CE953398D0904B8073","019cefa4-239d-7bd9-a0fc-805a2c7f8e71","019cef87-c56d-7b55-9135-c5814367ec25","","728","
                <div class=""stimulus-container"">
                    <img src=""images/schematic_sequence/supermarket_scheme/supermarket_scheme_9.png"" class=""exp-image"">
                    <div class=""question-area"">
                        <p style=""font-size: 20px; font-weight: bold; margin: 0;"">Is there a person in this image?</p>
                    </div>
                </div>","0","main_experiment_trial","9","supermarket_scheme","schematic_sequence","","","",""
"","","","","","html-keyboard-response","77","2232236","0.0-77.0","C46550D3A4F148CE953398D0904B8073","019cefa4-239d-7bd9-a0fc-805a2c7f8e71","019cef87-c56d-7b55-9135-c5814367ec25","","null","
                <div class=""stimulus-container"">
                    <img src=""images/schematic_sequence/supermarket_scheme/supermarket_scheme_ten.png"" class=""exp-image"">
                    <div class=""question-area""></div> 
                </div>","null","","","","","","","",""
"","","","","","html-button-response","78","2232898","0.0-78.0","C46550D3A4F148CE953398D0904B8073","019cefa4-239d-7bd9-a0fc-805a2c7f8e71","019cef87-c56d-7b55-9135-c5814367ec25","","661","
                <div class=""stimulus-container"">
                    <img src=""images/schematic_sequence/supermarket_scheme/supermarket_scheme_ten.png"" class=""exp-image"">
                    <div class=""question-area"">
                        <p style=""font-size: 20px; font-weight: bold; margin: 0;"">Is there a person in this image?</p>
                    </div>
                </div>","1","main_experiment_trial","ten","supermarket_scheme","schematic_sequence","","","",""
"","","","","","html-keyboard-response","79","2233900","0.0-79.0","C46550D3A4F148CE953398D0904B8073","019cefa4-239d-7bd9-a0fc-805a2c7f8e71","019cef87-c56d-7b55-9135-c5814367ec25","","null","<div style=""background-color: white; width: 100vw; height: 100vh;""></div>","null","","","","","","","",""
"","","","","","html-keyboard-response","80","2238902","0.0-80.0","C46550D3A4F148CE953398D0904B8073","019cefa4-239d-7bd9-a0fc-805a2c7f8e71","019cef87-c56d-7b55-9135-c5814367ec25","","null","
                <div class=""stimulus-container"">
                    <img src=""images/causal_sequence/the_performance_causal/the_performance_causal_1.png"" class=""exp-image"">
                    <div class=""question-area""></div> 
                </div>","null","","","","","","","",""
"","","","","","html-button-response","81","2239647","0.0-81.0","C46550D3A4F148CE953398D0904B8073","019cefa4-239d-7bd9-a0fc-805a2c7f8e71","019cef87-c56d-7b55-9135-c5814367ec25","","745","
                <div class=""stimulus-container"">
                    <img src=""images/causal_sequence/the_performance_causal/the_performance_causal_1.png"" class=""exp-image"">
                    <div class=""question-area"">
                        <p style=""font-size: 20px; font-weight: bold; margin: 0;"">Is there a person in this image?</p>
                    </div>
                </div>","0","main_experiment_trial","1","the_performance_causal","causal_sequence","","","",""
"","","","","","html-keyboard-response","82","2244649","0.0-82.0","C46550D3A4F148CE953398D0904B8073","019cefa4-239d-7bd9-a0fc-805a2c7f8e71","019cef87-c56d-7b55-9135-c5814367ec25","","null","
                <div class=""stimulus-container"">
                    <img src=""images/causal_sequence/the_performance_causal/the_performance_causal_2.png"" class=""exp-image"">
                    <div class=""question-area""></div> 
                </div>","null","","","","","","","",""
"","","","","","html-button-response","83","2245821","0.0-83.0","C46550D3A4F148CE953398D0904B8073","019cefa4-239d-7bd9-a0fc-805a2c7f8e71","019cef87-c56d-7b55-9135-c5814367ec25","","1171","
                <div class=""stimulus-container"">
                    <img src=""images/causal_sequence/the_performance_causal/the_performance_causal_2.png"" class=""exp-image"">
                    <div class=""question-area"">
                        <p style=""font-size: 20px; font-weight: bold; margin: 0;"">Is there a person in this image?</p>
                    </div>
                </div>","0","main_experiment_trial","2","the_performance_causal","causal_sequence","","","",""
"","","","","","html-keyboard-response","84","2250823","0.0-84.0","C46550D3A4F148CE953398D0904B8073","019cefa4-239d-7bd9-a0fc-805a2c7f8e71","019cef87-c56d-7b55-9135-c5814367ec25","","null","
                <div class=""stimulus-container"">
                    <img src=""images/causal_sequence/the_performance_causal/the_performance_causal_3.png"" class=""exp-image"">
                    <div class=""question-area""></div> 
                </div>","null","","","","","","","",""
"","","","","","html-button-response","85","2251781","0.0-85.0","C46550D3A4F148CE953398D0904B8073","019cefa4-239d-7bd9-a0fc-805a2c7f8e71","019cef87-c56d-7b55-9135-c5814367ec25","","957","
                <div class=""stimulus-container"">
                    <img src=""images/causal_sequence/the_performance_causal/the_performance_causal_3.png"" class=""exp-image"">
                    <div class=""question-area"">
                        <p style=""font-size: 20px; font-weight: bold; margin: 0;"">Is there a person in this image?</p>
                    </div>
                </div>","0","main_experiment_trial","3","the_performance_causal","causal_sequence","","","",""
"","","","","","html-keyboard-response","86","2256783","0.0-86.0","C46550D3A4F148CE953398D0904B8073","019cefa4-239d-7bd9-a0fc-805a2c7f8e71","019cef87-c56d-7b55-9135-c5814367ec25","","null","
                <div class=""stimulus-container"">
                    <img src=""images/causal_sequence/the_performance_causal/the_performance_causal_4.png"" class=""exp-image"">
                    <div class=""question-area""></div> 
                </div>","null","","","","","","","",""
"","","","","","html-button-response","87","2258131","0.0-87.0","C46550D3A4F148CE953398D0904B8073","019cefa4-239d-7bd9-a0fc-805a2c7f8e71","019cef87-c56d-7b55-9135-c5814367ec25","","1347","
                <div class=""stimulus-container"">
                    <img src=""images/causal_sequence/the_performance_causal/the_performance_causal_4.png"" class=""exp-image"">
                    <div class=""question-area"">
                        <p style=""font-size: 20px; font-weight: bold; margin: 0;"">Is there a person in this image?</p>
                    </div>
                </div>","0","main_experiment_trial","4","the_performance_causal","causal_sequence","","","",""
"","","","","","html-keyboard-response","88","2263133","0.0-88.0","C46550D3A4F148CE953398D0904B8073","019cefa4-239d-7bd9-a0fc-805a2c7f8e71","019cef87-c56d-7b55-9135-c5814367ec25","","null","
                <div class=""stimulus-container"">
                    <img src=""images/causal_sequence/the_performance_causal/the_performance_causal_5.png"" class=""exp-image"">
                    <div class=""question-area""></div> 
                </div>","null","","","","","","","",""
"","","","","","html-button-response","89","2263848","0.0-89.0","C46550D3A4F148CE953398D0904B8073","019cefa4-239d-7bd9-a0fc-805a2c7f8e71","019cef87-c56d-7b55-9135-c5814367ec25","","714","
                <div class=""stimulus-container"">
                    <img src=""images/causal_sequence/the_performance_causal/the_performance_causal_5.png"" class=""exp-image"">
                    <div class=""question-area"">
                        <p style=""font-size: 20px; font-weight: bold; margin: 0;"">Is there a person in this image?</p>
                    </div>
                </div>","0","main_experiment_trial","5","the_performance_causal","causal_sequence","","","",""
"","","","","","html-keyboard-response","90","2268850","0.0-90.0","C46550D3A4F148CE953398D0904B8073","019cefa4-239d-7bd9-a0fc-805a2c7f8e71","019cef87-c56d-7b55-9135-c5814367ec25","","null","
                <div class=""stimulus-container"">
                    <img src=""images/causal_sequence/the_performance_causal/the_performance_causal_6.png"" class=""exp-image"">
                    <div class=""question-area""></div> 
                </div>","null","","","","","","","",""
"","","","","","html-button-response","91","2270135","0.0-91.0","C46550D3A4F148CE953398D0904B8073","019cefa4-239d-7bd9-a0fc-805a2c7f8e71","019cef87-c56d-7b55-9135-c5814367ec25","","1283","
                <div class=""stimulus-container"">
                    <img src=""images/causal_sequence/the_performance_causal/the_performance_causal_6.png"" class=""exp-image"">
                    <div class=""question-area"">
                        <p style=""font-size: 20px; font-weight: bold; margin: 0;"">Is there a person in this image?</p>
                    </div>
                </div>","0","main_experiment_trial","6","the_performance_causal","causal_sequence","","","",""
"","","","","","html-keyboard-response","92","2275137","0.0-92.0","C46550D3A4F148CE953398D0904B8073","019cefa4-239d-7bd9-a0fc-805a2c7f8e71","019cef87-c56d-7b55-9135-c5814367ec25","","null","
                <div class=""stimulus-container"">
                    <img src=""images/causal_sequence/the_performance_causal/the_performance_causal_7.png"" class=""exp-image"">
                    <div class=""question-area""></div> 
                </div>","null","","","","","","","",""
"","","","","","html-button-response","93","2275599","0.0-93.0","C46550D3A4F148CE953398D0904B8073","019cefa4-239d-7bd9-a0fc-805a2c7f8e71","019cef87-c56d-7b55-9135-c5814367ec25","","461","
                <div class=""stimulus-container"">
                    <img src=""images/causal_sequence/the_performance_causal/the_performance_causal_7.png"" class=""exp-image"">
                    <div class=""question-area"">
                        <p style=""font-size: 20px; font-weight: bold; margin: 0;"">Is there a person in this image?</p>
                    </div>
                </div>","0","main_experiment_trial","7","the_performance_causal","causal_sequence","","","",""
"","","","","","html-keyboard-response","94","2280601","0.0-94.0","C46550D3A4F148CE953398D0904B8073","019cefa4-239d-7bd9-a0fc-805a2c7f8e71","019cef87-c56d-7b55-9135-c5814367ec25","","null","
                <div class=""stimulus-container"">
                    <img src=""images/causal_sequence/the_performance_causal/the_performance_causal_8.png"" class=""exp-image"">
                    <div class=""question-area""></div> 
                </div>","null","","","","","","","",""
"","","","","","html-button-response","95","2281631","0.0-95.0","C46550D3A4F148CE953398D0904B8073","019cefa4-239d-7bd9-a0fc-805a2c7f8e71","019cef87-c56d-7b55-9135-c5814367ec25","","1028","
                <div class=""stimulus-container"">
                    <img src=""images/causal_sequence/the_performance_causal/the_performance_causal_8.png"" class=""exp-image"">
                    <div class=""question-area"">
                        <p style=""font-size: 20px; font-weight: bold; margin: 0;"">Is there a person in this image?</p>
                    </div>
                </div>","0","main_experiment_trial","8","the_performance_causal","causal_sequence","","","",""
"","","","","","html-keyboard-response","96","2286632","0.0-96.0","C46550D3A4F148CE953398D0904B8073","019cefa4-239d-7bd9-a0fc-805a2c7f8e71","019cef87-c56d-7b55-9135-c5814367ec25","","null","
                <div class=""stimulus-container"">
                    <img src=""images/causal_sequence/the_performance_causal/the_performance_causal_9.png"" class=""exp-image"">
                    <div class=""question-area""></div> 
                </div>","null","","","","","","","",""
"","","","","","html-button-response","97","2288567","0.0-97.0","C46550D3A4F148CE953398D0904B8073","019cefa4-239d-7bd9-a0fc-805a2c7f8e71","019cef87-c56d-7b55-9135-c5814367ec25","","1934","
                <div class=""stimulus-container"">
                    <img src=""images/causal_sequence/the_performance_causal/the_performance_causal_9.png"" class=""exp-image"">
                    <div class=""question-area"">
                        <p style=""font-size: 20px; font-weight: bold; margin: 0;"">Is there a person in this image?</p>
                    </div>
                </div>","0","main_experiment_trial","9","the_performance_causal","causal_sequence","","","",""
"","","","","","html-keyboard-response","98","2293569","0.0-98.0","C46550D3A4F148CE953398D0904B8073","019cefa4-239d-7bd9-a0fc-805a2c7f8e71","019cef87-c56d-7b55-9135-c5814367ec25","","null","
                <div class=""stimulus-container"">
                    <img src=""images/causal_sequence/the_performance_causal/the_performance_causal_ten.png"" class=""exp-image"">
                    <div class=""question-area""></div> 
                </div>","null","","","","","","","",""
"","","","","","html-button-response","99","2295401","0.0-99.0","C46550D3A4F148CE953398D0904B8073","019cefa4-239d-7bd9-a0fc-805a2c7f8e71","019cef87-c56d-7b55-9135-c5814367ec25","","1831","
                <div class=""stimulus-container"">
                    <img src=""images/causal_sequence/the_performance_causal/the_performance_causal_ten.png"" class=""exp-image"">
                    <div class=""question-area"">
                        <p style=""font-size: 20px; font-weight: bold; margin: 0;"">Is there a person in this image?</p>
                    </div>
                </div>","0","main_experiment_trial","ten","the_performance_causal","causal_sequence","","","",""
"","","","","","html-keyboard-response","100","2296403","0.0-100.0","C46550D3A4F148CE953398D0904B8073","019cefa4-239d-7bd9-a0fc-805a2c7f8e71","019cef87-c56d-7b55-9135-c5814367ec25","","null","<div style=""background-color: white; width: 100vw; height: 100vh;""></div>","null","","","","","","","",""
"","","","","","html-keyboard-response","101","2301406","0.0-101.0","C46550D3A4F148CE953398D0904B8073","019cefa4-239d-7bd9-a0fc-805a2c7f8e71","019cef87-c56d-7b55-9135-c5814367ec25","","null","
                <div class=""stimulus-container"">
                    <img src=""images/schematic_sequence/flight_scheme/flight_scheme_1.png"" class=""exp-image"">
                    <div class=""question-area""></div> 
                </div>","null","","","","","","","",""
"","","","","","html-button-response","102","2303831","0.0-102.0","C46550D3A4F148CE953398D0904B8073","019cefa4-239d-7bd9-a0fc-805a2c7f8e71","019cef87-c56d-7b55-9135-c5814367ec25","","2423","
                <div class=""stimulus-container"">
                    <img src=""images/schematic_sequence/flight_scheme/flight_scheme_1.png"" class=""exp-image"">
                    <div class=""question-area"">
                        <p style=""font-size: 20px; font-weight: bold; margin: 0;"">Is there a person in this image?</p>
                    </div>
                </div>","0","main_experiment_trial","1","flight_scheme","schematic_sequence","","","",""
"","","","","","html-keyboard-response","103","2308833","0.0-103.0","C46550D3A4F148CE953398D0904B8073","019cefa4-239d-7bd9-a0fc-805a2c7f8e71","019cef87-c56d-7b55-9135-c5814367ec25","","null","
                <div class=""stimulus-container"">
                    <img src=""images/schematic_sequence/flight_scheme/flight_scheme_2.png"" class=""exp-image"">
                    <div class=""question-area""></div> 
                </div>","null","","","","","","","",""
"","","","","","html-button-response","104","2311648","0.0-104.0","C46550D3A4F148CE953398D0904B8073","019cefa4-239d-7bd9-a0fc-805a2c7f8e71","019cef87-c56d-7b55-9135-c5814367ec25","","2813","
                <div class=""stimulus-container"">
                    <img src=""images/schematic_sequence/flight_scheme/flight_scheme_2.png"" class=""exp-image"">
                    <div class=""question-area"">
                        <p style=""font-size: 20px; font-weight: bold; margin: 0;"">Is there a person in this image?</p>
                    </div>
                </div>","1","main_experiment_trial","2","flight_scheme","schematic_sequence","","","",""
"","","","","","html-keyboard-response","105","2316650","0.0-105.0","C46550D3A4F148CE953398D0904B8073","019cefa4-239d-7bd9-a0fc-805a2c7f8e71","019cef87-c56d-7b55-9135-c5814367ec25","","null","
                <div class=""stimulus-container"">
                    <img src=""images/schematic_sequence/flight_scheme/flight_scheme_3.png"" class=""exp-image"">
                    <div class=""question-area""></div> 
                </div>","null","","","","","","","",""
"","","","","","html-button-response","106","2319531","0.0-106.0","C46550D3A4F148CE953398D0904B8073","019cefa4-239d-7bd9-a0fc-805a2c7f8e71","019cef87-c56d-7b55-9135-c5814367ec25","","2881","
                <div class=""stimulus-container"">
                    <img src=""images/schematic_sequence/flight_scheme/flight_scheme_3.png"" class=""exp-image"">
                    <div class=""question-area"">
                        <p style=""font-size: 20px; font-weight: bold; margin: 0;"">Is there a person in this image?</p>
                    </div>
                </div>","0","main_experiment_trial","3","flight_scheme","schematic_sequence","","","",""
"","","","","","html-keyboard-response","107","2324534","0.0-107.0","C46550D3A4F148CE953398D0904B8073","019cefa4-239d-7bd9-a0fc-805a2c7f8e71","019cef87-c56d-7b55-9135-c5814367ec25","","null","
                <div class=""stimulus-container"">
                    <img src=""images/schematic_sequence/flight_scheme/flight_scheme_4.png"" class=""exp-image"">
                    <div class=""question-area""></div> 
                </div>","null","","","","","","","",""
"","","","","","html-button-response","108","2325600","0.0-108.0","C46550D3A4F148CE953398D0904B8073","019cefa4-239d-7bd9-a0fc-805a2c7f8e71","019cef87-c56d-7b55-9135-c5814367ec25","","1065","
                <div class=""stimulus-container"">
                    <img src=""images/schematic_sequence/flight_scheme/flight_scheme_4.png"" class=""exp-image"">
                    <div class=""question-area"">
                        <p style=""font-size: 20px; font-weight: bold; margin: 0;"">Is there a person in this image?</p>
                    </div>
                </div>","0","main_experiment_trial","4","flight_scheme","schematic_sequence","","","",""
"","","","","","html-keyboard-response","109","2330603","0.0-109.0","C46550D3A4F148CE953398D0904B8073","019cefa4-239d-7bd9-a0fc-805a2c7f8e71","019cef87-c56d-7b55-9135-c5814367ec25","","null","
                <div class=""stimulus-container"">
                    <img src=""images/schematic_sequence/flight_scheme/flight_scheme_5.png"" class=""exp-image"">
                    <div class=""question-area""></div> 
                </div>","null","","","","","","","",""
"","","","","","html-button-response","110","2332031","0.0-110.0","C46550D3A4F148CE953398D0904B8073","019cefa4-239d-7bd9-a0fc-805a2c7f8e71","019cef87-c56d-7b55-9135-c5814367ec25","","1427","
                <div class=""stimulus-container"">
                    <img src=""images/schematic_sequence/flight_scheme/flight_scheme_5.png"" class=""exp-image"">
                    <div class=""question-area"">
                        <p style=""font-size: 20px; font-weight: bold; margin: 0;"">Is there a person in this image?</p>
                    </div>
                </div>","0","main_experiment_trial","5","flight_scheme","schematic_sequence","","","",""
"","","","","","html-keyboard-response","111","2337034","0.0-111.0","C46550D3A4F148CE953398D0904B8073","019cefa4-239d-7bd9-a0fc-805a2c7f8e71","019cef87-c56d-7b55-9135-c5814367ec25","","null","
                <div class=""stimulus-container"">
                    <img src=""images/schematic_sequence/flight_scheme/flight_scheme_6.png"" class=""exp-image"">
                    <div class=""question-area""></div> 
                </div>","null","","","","","","","",""
"","","","","","html-button-response","112","2337986","0.0-112.0","C46550D3A4F148CE953398D0904B8073","019cefa4-239d-7bd9-a0fc-805a2c7f8e71","019cef87-c56d-7b55-9135-c5814367ec25","","951","
                <div class=""stimulus-container"">
                    <img src=""images/schematic_sequence/flight_scheme/flight_scheme_6.png"" class=""exp-image"">
                    <div class=""question-area"">
                        <p style=""font-size: 20px; font-weight: bold; margin: 0;"">Is there a person in this image?</p>
                    </div>
                </div>","1","main_experiment_trial","6","flight_scheme","schematic_sequence","","","",""
"","","","","","html-keyboard-response","113","2342988","0.0-113.0","C46550D3A4F148CE953398D0904B8073","019cefa4-239d-7bd9-a0fc-805a2c7f8e71","019cef87-c56d-7b55-9135-c5814367ec25","","null","
                <div class=""stimulus-container"">
                    <img src=""images/schematic_sequence/flight_scheme/flight_scheme_7.png"" class=""exp-image"">
                    <div class=""question-area""></div> 
                </div>","null","","","","","","","",""
"","","","","","html-button-response","114","2344131","0.0-114.0","C46550D3A4F148CE953398D0904B8073","019cefa4-239d-7bd9-a0fc-805a2c7f8e71","019cef87-c56d-7b55-9135-c5814367ec25","","1142","
                <div class=""stimulus-container"">
                    <img src=""images/schematic_sequence/flight_scheme/flight_scheme_7.png"" class=""exp-image"">
                    <div class=""question-area"">
                        <p style=""font-size: 20px; font-weight: bold; margin: 0;"">Is there a person in this image?</p>
                    </div>
                </div>","0","main_experiment_trial","7","flight_scheme","schematic_sequence","","","",""
"","","","","","html-keyboard-response","115","2349133","0.0-115.0","C46550D3A4F148CE953398D0904B8073","019cefa4-239d-7bd9-a0fc-805a2c7f8e71","019cef87-c56d-7b55-9135-c5814367ec25","","null","
                <div class=""stimulus-container"">
                    <img src=""images/schematic_sequence/flight_scheme/flight_scheme_8.png"" class=""exp-image"">
                    <div class=""question-area""></div> 
                </div>","null","","","","","","","",""
"","","","","","html-button-response","116","2351015","0.0-116.0","C46550D3A4F148CE953398D0904B8073","019cefa4-239d-7bd9-a0fc-805a2c7f8e71","019cef87-c56d-7b55-9135-c5814367ec25","","1881","
                <div class=""stimulus-container"">
                    <img src=""images/schematic_sequence/flight_scheme/flight_scheme_8.png"" class=""exp-image"">
                    <div class=""question-area"">
                        <p style=""font-size: 20px; font-weight: bold; margin: 0;"">Is there a person in this image?</p>
                    </div>
                </div>","1","main_experiment_trial","8","flight_scheme","schematic_sequence","","","",""
"","","","","","html-keyboard-response","117","2356017","0.0-117.0","C46550D3A4F148CE953398D0904B8073","019cefa4-239d-7bd9-a0fc-805a2c7f8e71","019cef87-c56d-7b55-9135-c5814367ec25","","null","
                <div class=""stimulus-container"">
                    <img src=""images/schematic_sequence/flight_scheme/flight_scheme_9.png"" class=""exp-image"">
                    <div class=""question-area""></div> 
                </div>","null","","","","","","","",""
"","","","","","html-button-response","118","2356734","0.0-118.0","C46550D3A4F148CE953398D0904B8073","019cefa4-239d-7bd9-a0fc-805a2c7f8e71","019cef87-c56d-7b55-9135-c5814367ec25","","716","
                <div class=""stimulus-container"">
                    <img src=""images/schematic_sequence/flight_scheme/flight_scheme_9.png"" class=""exp-image"">
                    <div class=""question-area"">
                        <p style=""font-size: 20px; font-weight: bold; margin: 0;"">Is there a person in this image?</p>
                    </div>
                </div>","0","main_experiment_trial","9","flight_scheme","schematic_sequence","","","",""
"","","","","","html-keyboard-response","119","2361736","0.0-119.0","C46550D3A4F148CE953398D0904B8073","019cefa4-239d-7bd9-a0fc-805a2c7f8e71","019cef87-c56d-7b55-9135-c5814367ec25","","null","
                <div class=""stimulus-container"">
                    <img src=""images/schematic_sequence/flight_scheme/flight_scheme_ten.png"" class=""exp-image"">
                    <div class=""question-area""></div> 
                </div>","null","","","","","","","",""
"","","","","","html-button-response","120","2363218","0.0-120.0","C46550D3A4F148CE953398D0904B8073","019cefa4-239d-7bd9-a0fc-805a2c7f8e71","019cef87-c56d-7b55-9135-c5814367ec25","","1481","
                <div class=""stimulus-container"">
                    <img src=""images/schematic_sequence/flight_scheme/flight_scheme_ten.png"" class=""exp-image"">
                    <div class=""question-area"">
                        <p style=""font-size: 20px; font-weight: bold; margin: 0;"">Is there a person in this image?</p>
                    </div>
                </div>","0","main_experiment_trial","ten","flight_scheme","schematic_sequence","","","",""
"","","","","","html-keyboard-response","121","2364220","0.0-121.0","C46550D3A4F148CE953398D0904B8073","019cefa4-239d-7bd9-a0fc-805a2c7f8e71","019cef87-c56d-7b55-9135-c5814367ec25","","null","<div style=""background-color: white; width: 100vw; height: 100vh;""></div>","null","","","","","","","",""
"","","","","","html-keyboard-response","122","2369222","0.0-122.0","C46550D3A4F148CE953398D0904B8073","019cefa4-239d-7bd9-a0fc-805a2c7f8e71","019cef87-c56d-7b55-9135-c5814367ec25","","null","
                <div class=""stimulus-container"">
                    <img src=""images/schematic_sequence/interview_scheme/interview_scheme_1.png"" class=""exp-image"">
                    <div class=""question-area""></div> 
                </div>","null","","","","","","","",""
"","","","","","html-button-response","123","2370099","0.0-123.0","C46550D3A4F148CE953398D0904B8073","019cefa4-239d-7bd9-a0fc-805a2c7f8e71","019cef87-c56d-7b55-9135-c5814367ec25","","876","
                <div class=""stimulus-container"">
                    <img src=""images/schematic_sequence/interview_scheme/interview_scheme_1.png"" class=""exp-image"">
                    <div class=""question-area"">
                        <p style=""font-size: 20px; font-weight: bold; margin: 0;"">Is there a person in this image?</p>
                    </div>
                </div>","1","main_experiment_trial","1","interview_scheme","schematic_sequence","","","",""
"","","","","","html-keyboard-response","124","2375101","0.0-124.0","C46550D3A4F148CE953398D0904B8073","019cefa4-239d-7bd9-a0fc-805a2c7f8e71","019cef87-c56d-7b55-9135-c5814367ec25","","null","
                <div class=""stimulus-container"">
                    <img src=""images/schematic_sequence/interview_scheme/interview_scheme_2.png"" class=""exp-image"">
                    <div class=""question-area""></div> 
                </div>","null","","","","","","","",""
"","","","","","html-button-response","125","2375582","0.0-125.0","C46550D3A4F148CE953398D0904B8073","019cefa4-239d-7bd9-a0fc-805a2c7f8e71","019cef87-c56d-7b55-9135-c5814367ec25","","480","
                <div class=""stimulus-container"">
                    <img src=""images/schematic_sequence/interview_scheme/interview_scheme_2.png"" class=""exp-image"">
                    <div class=""question-area"">
                        <p style=""font-size: 20px; font-weight: bold; margin: 0;"">Is there a person in this image?</p>
                    </div>
                </div>","0","main_experiment_trial","2","interview_scheme","schematic_sequence","","","",""
"","","","","","html-keyboard-response","126","2380584","0.0-126.0","C46550D3A4F148CE953398D0904B8073","019cefa4-239d-7bd9-a0fc-805a2c7f8e71","019cef87-c56d-7b55-9135-c5814367ec25","","null","
                <div class=""stimulus-container"">
                    <img src=""images/schematic_sequence/interview_scheme/interview_scheme_3.png"" class=""exp-image"">
                    <div class=""question-area""></div> 
                </div>","null","","","","","","","",""
"","","","","","html-button-response","127","2381969","0.0-127.0","C46550D3A4F148CE953398D0904B8073","019cefa4-239d-7bd9-a0fc-805a2c7f8e71","019cef87-c56d-7b55-9135-c5814367ec25","","1384","
                <div class=""stimulus-container"">
                    <img src=""images/schematic_sequence/interview_scheme/interview_scheme_3.png"" class=""exp-image"">
                    <div class=""question-area"">
                        <p style=""font-size: 20px; font-weight: bold; margin: 0;"">Is there a person in this image?</p>
                    </div>
                </div>","1","main_experiment_trial","3","interview_scheme","schematic_sequence","","","",""
"","","","","","html-keyboard-response","128","2386972","0.0-128.0","C46550D3A4F148CE953398D0904B8073","019cefa4-239d-7bd9-a0fc-805a2c7f8e71","019cef87-c56d-7b55-9135-c5814367ec25","","null","
                <div class=""stimulus-container"">
                    <img src=""images/schematic_sequence/interview_scheme/interview_scheme_4.png"" class=""exp-image"">
                    <div class=""question-area""></div> 
                </div>","null","","","","","","","",""
"","","","","","html-button-response","129","2388598","0.0-129.0","C46550D3A4F148CE953398D0904B8073","019cefa4-239d-7bd9-a0fc-805a2c7f8e71","019cef87-c56d-7b55-9135-c5814367ec25","","1625","
                <div class=""stimulus-container"">
                    <img src=""images/schematic_sequence/interview_scheme/interview_scheme_4.png"" class=""exp-image"">
                    <div class=""question-area"">
                        <p style=""font-size: 20px; font-weight: bold; margin: 0;"">Is there a person in this image?</p>
                    </div>
                </div>","1","main_experiment_trial","4","interview_scheme","schematic_sequence","","","",""
"","","","","","html-keyboard-response","130","2393601","0.0-130.0","C46550D3A4F148CE953398D0904B8073","019cefa4-239d-7bd9-a0fc-805a2c7f8e71","019cef87-c56d-7b55-9135-c5814367ec25","","null","
                <div class=""stimulus-container"">
                    <img src=""images/schematic_sequence/interview_scheme/interview_scheme_5.png"" class=""exp-image"">
                    <div class=""question-area""></div> 
                </div>","null","","","","","","","",""
"","","","","","html-button-response","131","2395238","0.0-131.0","C46550D3A4F148CE953398D0904B8073","019cefa4-239d-7bd9-a0fc-805a2c7f8e71","019cef87-c56d-7b55-9135-c5814367ec25","","1636","
                <div class=""stimulus-container"">
                    <img src=""images/schematic_sequence/interview_scheme/interview_scheme_5.png"" class=""exp-image"">
                    <div class=""question-area"">
                        <p style=""font-size: 20px; font-weight: bold; margin: 0;"">Is there a person in this image?</p>
                    </div>
                </div>","0","main_experiment_trial","5","interview_scheme","schematic_sequence","","","",""
"","","","","","html-keyboard-response","132","2400241","0.0-132.0","C46550D3A4F148CE953398D0904B8073","019cefa4-239d-7bd9-a0fc-805a2c7f8e71","019cef87-c56d-7b55-9135-c5814367ec25","","null","
                <div class=""stimulus-container"">
                    <img src=""images/schematic_sequence/interview_scheme/interview_scheme_6.png"" class=""exp-image"">
                    <div class=""question-area""></div> 
                </div>","null","","","","","","","",""
"","","","","","html-button-response","133","2401232","0.0-133.0","C46550D3A4F148CE953398D0904B8073","019cefa4-239d-7bd9-a0fc-805a2c7f8e71","019cef87-c56d-7b55-9135-c5814367ec25","","990","
                <div class=""stimulus-container"">
                    <img src=""images/schematic_sequence/interview_scheme/interview_scheme_6.png"" class=""exp-image"">
                    <div class=""question-area"">
                        <p style=""font-size: 20px; font-weight: bold; margin: 0;"">Is there a person in this image?</p>
                    </div>
                </div>","0","main_experiment_trial","6","interview_scheme","schematic_sequence","","","",""
"","","","","","html-keyboard-response","134","2406235","0.0-134.0","C46550D3A4F148CE953398D0904B8073","019cefa4-239d-7bd9-a0fc-805a2c7f8e71","019cef87-c56d-7b55-9135-c5814367ec25","","null","
                <div class=""stimulus-container"">
                    <img src=""images/schematic_sequence/interview_scheme/interview_scheme_7.png"" class=""exp-image"">
                    <div class=""question-area""></div> 
                </div>","null","","","","","","","",""
"","","","","","html-button-response","135","2407585","0.0-135.0","C46550D3A4F148CE953398D0904B8073","019cefa4-239d-7bd9-a0fc-805a2c7f8e71","019cef87-c56d-7b55-9135-c5814367ec25","","1349","
                <div class=""stimulus-container"">
                    <img src=""images/schematic_sequence/interview_scheme/interview_scheme_7.png"" class=""exp-image"">
                    <div class=""question-area"">
                        <p style=""font-size: 20px; font-weight: bold; margin: 0;"">Is there a person in this image?</p>
                    </div>
                </div>","0","main_experiment_trial","7","interview_scheme","schematic_sequence","","","",""
"","","","","","html-keyboard-response","136","2412586","0.0-136.0","C46550D3A4F148CE953398D0904B8073","019cefa4-239d-7bd9-a0fc-805a2c7f8e71","019cef87-c56d-7b55-9135-c5814367ec25","","null","
                <div class=""stimulus-container"">
                    <img src=""images/schematic_sequence/interview_scheme/interview_scheme_8.png"" class=""exp-image"">
                    <div class=""question-area""></div> 
                </div>","null","","","","","","","",""
"","","","","","html-button-response","137","2414049","0.0-137.0","C46550D3A4F148CE953398D0904B8073","019cefa4-239d-7bd9-a0fc-805a2c7f8e71","019cef87-c56d-7b55-9135-c5814367ec25","","1461","
                <div class=""stimulus-container"">
                    <img src=""images/schematic_sequence/interview_scheme/interview_scheme_8.png"" class=""exp-image"">
                    <div class=""question-area"">
                        <p style=""font-size: 20px; font-weight: bold; margin: 0;"">Is there a person in this image?</p>
                    </div>
                </div>","0","main_experiment_trial","8","interview_scheme","schematic_sequence","","","",""
"","","","","","html-keyboard-response","138","2419050","0.0-138.0","C46550D3A4F148CE953398D0904B8073","019cefa4-239d-7bd9-a0fc-805a2c7f8e71","019cef87-c56d-7b55-9135-c5814367ec25","","null","
                <div class=""stimulus-container"">
                    <img src=""images/schematic_sequence/interview_scheme/interview_scheme_9.png"" class=""exp-image"">
                    <div class=""question-area""></div> 
                </div>","null","","","","","","","",""
"","","","","","html-button-response","139","2422053","0.0-139.0","C46550D3A4F148CE953398D0904B8073","019cefa4-239d-7bd9-a0fc-805a2c7f8e71","019cef87-c56d-7b55-9135-c5814367ec25","","null","
                <div class=""stimulus-container"">
                    <img src=""images/schematic_sequence/interview_scheme/interview_scheme_9.png"" class=""exp-image"">
                    <div class=""question-area"">
                        <p style=""font-size: 20px; font-weight: bold; margin: 0;"">Is there a person in this image?</p>
                    </div>
                </div>","null","main_experiment_trial","9","interview_scheme","schematic_sequence","","","",""
"","","","","","html-keyboard-response","140","2427055","0.0-140.0","C46550D3A4F148CE953398D0904B8073","019cefa4-239d-7bd9-a0fc-805a2c7f8e71","019cef87-c56d-7b55-9135-c5814367ec25","","null","
                <div class=""stimulus-container"">
                    <img src=""images/schematic_sequence/interview_scheme/interview_scheme_ten.png"" class=""exp-image"">
                    <div class=""question-area""></div> 
                </div>","null","","","","","","","",""
"","","","","","html-button-response","141","2427599","0.0-141.0","C46550D3A4F148CE953398D0904B8073","019cefa4-239d-7bd9-a0fc-805a2c7f8e71","019cef87-c56d-7b55-9135-c5814367ec25","","543","
                <div class=""stimulus-container"">
                    <img src=""images/schematic_sequence/interview_scheme/interview_scheme_ten.png"" class=""exp-image"">
                    <div class=""question-area"">
                        <p style=""font-size: 20px; font-weight: bold; margin: 0;"">Is there a person in this image?</p>
                    </div>
                </div>","0","main_experiment_trial","ten","interview_scheme","schematic_sequence","","","",""
"","","","","","html-keyboard-response","142","2428601","0.0-142.0","C46550D3A4F148CE953398D0904B8073","019cefa4-239d-7bd9-a0fc-805a2c7f8e71","019cef87-c56d-7b55-9135-c5814367ec25","","null","<div style=""background-color: white; width: 100vw; height: 100vh;""></div>","null","","","","","","","",""
"","","","","","html-keyboard-response","143","2433603","0.0-143.0","C46550D3A4F148CE953398D0904B8073","019cefa4-239d-7bd9-a0fc-805a2c7f8e71","019cef87-c56d-7b55-9135-c5814367ec25","","null","
                <div class=""stimulus-container"">
                    <img src=""images/causal_sequence/saving_a_cat_causal/saving_a_cat_causal_1.png"" class=""exp-image"">
                    <div class=""question-area""></div> 
                </div>","null","","","","","","","",""
"","","","","","html-button-response","144","2434502","0.0-144.0","C46550D3A4F148CE953398D0904B8073","019cefa4-239d-7bd9-a0fc-805a2c7f8e71","019cef87-c56d-7b55-9135-c5814367ec25","","897","
                <div class=""stimulus-container"">
                    <img src=""images/causal_sequence/saving_a_cat_causal/saving_a_cat_causal_1.png"" class=""exp-image"">
                    <div class=""question-area"">
                        <p style=""font-size: 20px; font-weight: bold; margin: 0;"">Is there a person in this image?</p>
                    </div>
                </div>","0","main_experiment_trial","1","saving_a_cat_causal","causal_sequence","","","",""
"","","","","","html-keyboard-response","145","2439504","0.0-145.0","C46550D3A4F148CE953398D0904B8073","019cefa4-239d-7bd9-a0fc-805a2c7f8e71","019cef87-c56d-7b55-9135-c5814367ec25","","null","
                <div class=""stimulus-container"">
                    <img src=""images/causal_sequence/saving_a_cat_causal/saving_a_cat_causal_2.png"" class=""exp-image"">
                    <div class=""question-area""></div> 
                </div>","null","","","","","","","",""
"","","","","","html-button-response","146","2440102","0.0-146.0","C46550D3A4F148CE953398D0904B8073","019cefa4-239d-7bd9-a0fc-805a2c7f8e71","019cef87-c56d-7b55-9135-c5814367ec25","","597","
                <div class=""stimulus-container"">
                    <img src=""images/causal_sequence/saving_a_cat_causal/saving_a_cat_causal_2.png"" class=""exp-image"">
                    <div class=""question-area"">
                        <p style=""font-size: 20px; font-weight: bold; margin: 0;"">Is there a person in this image?</p>
                    </div>
                </div>","1","main_experiment_trial","2","saving_a_cat_causal","causal_sequence","","","",""
"","","","","","html-keyboard-response","147","2445104","0.0-147.0","C46550D3A4F148CE953398D0904B8073","019cefa4-239d-7bd9-a0fc-805a2c7f8e71","019cef87-c56d-7b55-9135-c5814367ec25","","null","
                <div class=""stimulus-container"">
                    <img src=""images/causal_sequence/saving_a_cat_causal/saving_a_cat_causal_3.png"" class=""exp-image"">
                    <div class=""question-area""></div> 
                </div>","null","","","","","","","",""
"","","","","","html-button-response","148","2446816","0.0-148.0","C46550D3A4F148CE953398D0904B8073","019cefa4-239d-7bd9-a0fc-805a2c7f8e71","019cef87-c56d-7b55-9135-c5814367ec25","","1711","
                <div class=""stimulus-container"">
                    <img src=""images/causal_sequence/saving_a_cat_causal/saving_a_cat_causal_3.png"" class=""exp-image"">
                    <div class=""question-area"">
                        <p style=""font-size: 20px; font-weight: bold; margin: 0;"">Is there a person in this image?</p>
                    </div>
                </div>","1","main_experiment_trial","3","saving_a_cat_causal","causal_sequence","","","",""
"","","","","","html-keyboard-response","149","2451818","0.0-149.0","C46550D3A4F148CE953398D0904B8073","019cefa4-239d-7bd9-a0fc-805a2c7f8e71","019cef87-c56d-7b55-9135-c5814367ec25","","null","
                <div class=""stimulus-container"">
                    <img src=""images/causal_sequence/saving_a_cat_causal/saving_a_cat_causal_4.png"" class=""exp-image"">
                    <div class=""question-area""></div> 
                </div>","null","","","","","","","",""
"","","","","","html-button-response","150","2452673","0.0-150.0","C46550D3A4F148CE953398D0904B8073","019cefa4-239d-7bd9-a0fc-805a2c7f8e71","019cef87-c56d-7b55-9135-c5814367ec25","","854","
                <div class=""stimulus-container"">
                    <img src=""images/causal_sequence/saving_a_cat_causal/saving_a_cat_causal_4.png"" class=""exp-image"">
                    <div class=""question-area"">
                        <p style=""font-size: 20px; font-weight: bold; margin: 0;"">Is there a person in this image?</p>
                    </div>
                </div>","0","main_experiment_trial","4","saving_a_cat_causal","causal_sequence","","","",""
"","","","","","html-keyboard-response","151","2457675","0.0-151.0","C46550D3A4F148CE953398D0904B8073","019cefa4-239d-7bd9-a0fc-805a2c7f8e71","019cef87-c56d-7b55-9135-c5814367ec25","","null","
                <div class=""stimulus-container"">
                    <img src=""images/causal_sequence/saving_a_cat_causal/saving_a_cat_causal_5.png"" class=""exp-image"">
                    <div class=""question-area""></div> 
                </div>","null","","","","","","","",""
"","","","","","html-button-response","152","2458354","0.0-152.0","C46550D3A4F148CE953398D0904B8073","019cefa4-239d-7bd9-a0fc-805a2c7f8e71","019cef87-c56d-7b55-9135-c5814367ec25","","679","
                <div class=""stimulus-container"">
                    <img src=""images/causal_sequence/saving_a_cat_causal/saving_a_cat_causal_5.png"" class=""exp-image"">
                    <div class=""question-area"">
                        <p style=""font-size: 20px; font-weight: bold; margin: 0;"">Is there a person in this image?</p>
                    </div>
                </div>","0","main_experiment_trial","5","saving_a_cat_causal","causal_sequence","","","",""
"","","","","","html-keyboard-response","153","2463356","0.0-153.0","C46550D3A4F148CE953398D0904B8073","019cefa4-239d-7bd9-a0fc-805a2c7f8e71","019cef87-c56d-7b55-9135-c5814367ec25","","null","
                <div class=""stimulus-container"">
                    <img src=""images/causal_sequence/saving_a_cat_causal/saving_a_cat_causal_6.png"" class=""exp-image"">
                    <div class=""question-area""></div> 
                </div>","null","","","","","","","",""
"","","","","","html-button-response","154","2464572","0.0-154.0","C46550D3A4F148CE953398D0904B8073","019cefa4-239d-7bd9-a0fc-805a2c7f8e71","019cef87-c56d-7b55-9135-c5814367ec25","","1215","
                <div class=""stimulus-container"">
                    <img src=""images/causal_sequence/saving_a_cat_causal/saving_a_cat_causal_6.png"" class=""exp-image"">
                    <div class=""question-area"">
                        <p style=""font-size: 20px; font-weight: bold; margin: 0;"">Is there a person in this image?</p>
                    </div>
                </div>","0","main_experiment_trial","6","saving_a_cat_causal","causal_sequence","","","",""
"","","","","","html-keyboard-response","155","2469574","0.0-155.0","C46550D3A4F148CE953398D0904B8073","019cefa4-239d-7bd9-a0fc-805a2c7f8e71","019cef87-c56d-7b55-9135-c5814367ec25","","null","
                <div class=""stimulus-container"">
                    <img src=""images/causal_sequence/saving_a_cat_causal/saving_a_cat_causal_7.png"" class=""exp-image"">
                    <div class=""question-area""></div> 
                </div>","null","","","","","","","",""
"","","","","","html-button-response","156","2471183","0.0-156.0","C46550D3A4F148CE953398D0904B8073","019cefa4-239d-7bd9-a0fc-805a2c7f8e71","019cef87-c56d-7b55-9135-c5814367ec25","","1608","
                <div class=""stimulus-container"">
                    <img src=""images/causal_sequence/saving_a_cat_causal/saving_a_cat_causal_7.png"" class=""exp-image"">
                    <div class=""question-area"">
                        <p style=""font-size: 20px; font-weight: bold; margin: 0;"">Is there a person in this image?</p>
                    </div>
                </div>","0","main_experiment_trial","7","saving_a_cat_causal","causal_sequence","","","",""
"","","","","","html-keyboard-response","157","2476184","0.0-157.0","C46550D3A4F148CE953398D0904B8073","019cefa4-239d-7bd9-a0fc-805a2c7f8e71","019cef87-c56d-7b55-9135-c5814367ec25","","null","
                <div class=""stimulus-container"">
                    <img src=""images/causal_sequence/saving_a_cat_causal/saving_a_cat_causal_8.png"" class=""exp-image"">
                    <div class=""question-area""></div> 
                </div>","null","","","","","","","",""
"","","","","","html-button-response","158","2477849","0.0-158.0","C46550D3A4F148CE953398D0904B8073","019cefa4-239d-7bd9-a0fc-805a2c7f8e71","019cef87-c56d-7b55-9135-c5814367ec25","","1664","
                <div class=""stimulus-container"">
                    <img src=""images/causal_sequence/saving_a_cat_causal/saving_a_cat_causal_8.png"" class=""exp-image"">
                    <div class=""question-area"">
                        <p style=""font-size: 20px; font-weight: bold; margin: 0;"">Is there a person in this image?</p>
                    </div>
                </div>","0","main_experiment_trial","8","saving_a_cat_causal","causal_sequence","","","",""
"","","","","","html-keyboard-response","159","2482852","0.0-159.0","C46550D3A4F148CE953398D0904B8073","019cefa4-239d-7bd9-a0fc-805a2c7f8e71","019cef87-c56d-7b55-9135-c5814367ec25","","null","
                <div class=""stimulus-container"">
                    <img src=""images/causal_sequence/saving_a_cat_causal/saving_a_cat_causal_9.png"" class=""exp-image"">
                    <div class=""question-area""></div> 
                </div>","null","","","","","","","",""
"","","","","","html-button-response","160","2484425","0.0-160.0","C46550D3A4F148CE953398D0904B8073","019cefa4-239d-7bd9-a0fc-805a2c7f8e71","019cef87-c56d-7b55-9135-c5814367ec25","","1572","
                <div class=""stimulus-container"">
                    <img src=""images/causal_sequence/saving_a_cat_causal/saving_a_cat_causal_9.png"" class=""exp-image"">
                    <div class=""question-area"">
                        <p style=""font-size: 20px; font-weight: bold; margin: 0;"">Is there a person in this image?</p>
                    </div>
                </div>","0","main_experiment_trial","9","saving_a_cat_causal","causal_sequence","","","",""
"","","","","","html-keyboard-response","161","2489426","0.0-161.0","C46550D3A4F148CE953398D0904B8073","019cefa4-239d-7bd9-a0fc-805a2c7f8e71","019cef87-c56d-7b55-9135-c5814367ec25","","null","
                <div class=""stimulus-container"">
                    <img src=""images/causal_sequence/saving_a_cat_causal/saving_a_cat_causal_ten.png"" class=""exp-image"">
                    <div class=""question-area""></div> 
                </div>","null","","","","","","","",""
"","","","","","html-button-response","162","2490453","0.0-162.0","C46550D3A4F148CE953398D0904B8073","019cefa4-239d-7bd9-a0fc-805a2c7f8e71","019cef87-c56d-7b55-9135-c5814367ec25","","1026","
                <div class=""stimulus-container"">
                    <img src=""images/causal_sequence/saving_a_cat_causal/saving_a_cat_causal_ten.png"" class=""exp-image"">
                    <div class=""question-area"">
                        <p style=""font-size: 20px; font-weight: bold; margin: 0;"">Is there a person in this image?</p>
                    </div>
                </div>","0","main_experiment_trial","ten","saving_a_cat_causal","causal_sequence","","","",""
"","","","","","html-keyboard-response","163","2491455","0.0-163.0","C46550D3A4F148CE953398D0904B8073","019cefa4-239d-7bd9-a0fc-805a2c7f8e71","019cef87-c56d-7b55-9135-c5814367ec25","","null","<div style=""background-color: white; width: 100vw; height: 100vh;""></div>","null","","","","","","","",""
"","","","","","html-keyboard-response","164","2496457","0.0-164.0","C46550D3A4F148CE953398D0904B8073","019cefa4-239d-7bd9-a0fc-805a2c7f8e71","019cef87-c56d-7b55-9135-c5814367ec25","","null","
                <div class=""stimulus-container"">
                    <img src=""images/schematic_sequence/restaurant_scheme/restaurant_scheme_1.png"" class=""exp-image"">
                    <div class=""question-area""></div> 
                </div>","null","","","","","","","",""
"","","","","","html-button-response","165","2497950","0.0-165.0","C46550D3A4F148CE953398D0904B8073","019cefa4-239d-7bd9-a0fc-805a2c7f8e71","019cef87-c56d-7b55-9135-c5814367ec25","","1492","
                <div class=""stimulus-container"">
                    <img src=""images/schematic_sequence/restaurant_scheme/restaurant_scheme_1.png"" class=""exp-image"">
                    <div class=""question-area"">
                        <p style=""font-size: 20px; font-weight: bold; margin: 0;"">Is there a person in this image?</p>
                    </div>
                </div>","0","main_experiment_trial","1","restaurant_scheme","schematic_sequence","","","",""
"","","","","","html-keyboard-response","166","2502952","0.0-166.0","C46550D3A4F148CE953398D0904B8073","019cefa4-239d-7bd9-a0fc-805a2c7f8e71","019cef87-c56d-7b55-9135-c5814367ec25","","null","
                <div class=""stimulus-container"">
                    <img src=""images/schematic_sequence/restaurant_scheme/restaurant_scheme_2.png"" class=""exp-image"">
                    <div class=""question-area""></div> 
                </div>","null","","","","","","","",""
"","","","","","html-button-response","167","2504491","0.0-167.0","C46550D3A4F148CE953398D0904B8073","019cefa4-239d-7bd9-a0fc-805a2c7f8e71","019cef87-c56d-7b55-9135-c5814367ec25","","1537","
                <div class=""stimulus-container"">
                    <img src=""images/schematic_sequence/restaurant_scheme/restaurant_scheme_2.png"" class=""exp-image"">
                    <div class=""question-area"">
                        <p style=""font-size: 20px; font-weight: bold; margin: 0;"">Is there a person in this image?</p>
                    </div>
                </div>","1","main_experiment_trial","2","restaurant_scheme","schematic_sequence","","","",""
"","","","","","html-keyboard-response","168","2509492","0.0-168.0","C46550D3A4F148CE953398D0904B8073","019cefa4-239d-7bd9-a0fc-805a2c7f8e71","019cef87-c56d-7b55-9135-c5814367ec25","","null","
                <div class=""stimulus-container"">
                    <img src=""images/schematic_sequence/restaurant_scheme/restaurant_scheme_3.png"" class=""exp-image"">
                    <div class=""question-area""></div> 
                </div>","null","","","","","","","",""
"","","","","","html-button-response","169","2512184","0.0-169.0","C46550D3A4F148CE953398D0904B8073","019cefa4-239d-7bd9-a0fc-805a2c7f8e71","019cef87-c56d-7b55-9135-c5814367ec25","","2690","
                <div class=""stimulus-container"">
                    <img src=""images/schematic_sequence/restaurant_scheme/restaurant_scheme_3.png"" class=""exp-image"">
                    <div class=""question-area"">
                        <p style=""font-size: 20px; font-weight: bold; margin: 0;"">Is there a person in this image?</p>
                    </div>
                </div>","1","main_experiment_trial","3","restaurant_scheme","schematic_sequence","","","",""
"","","","","","html-keyboard-response","170","2517185","0.0-170.0","C46550D3A4F148CE953398D0904B8073","019cefa4-239d-7bd9-a0fc-805a2c7f8e71","019cef87-c56d-7b55-9135-c5814367ec25","","null","
                <div class=""stimulus-container"">
                    <img src=""images/schematic_sequence/restaurant_scheme/restaurant_scheme_4.png"" class=""exp-image"">
                    <div class=""question-area""></div> 
                </div>","null","","","","","","","",""
"","","","","","html-button-response","171","2518239","0.0-171.0","C46550D3A4F148CE953398D0904B8073","019cefa4-239d-7bd9-a0fc-805a2c7f8e71","019cef87-c56d-7b55-9135-c5814367ec25","","1053","
                <div class=""stimulus-container"">
                    <img src=""images/schematic_sequence/restaurant_scheme/restaurant_scheme_4.png"" class=""exp-image"">
                    <div class=""question-area"">
                        <p style=""font-size: 20px; font-weight: bold; margin: 0;"">Is there a person in this image?</p>
                    </div>
                </div>","0","main_experiment_trial","4","restaurant_scheme","schematic_sequence","","","",""
"","","","","","html-keyboard-response","172","2523241","0.0-172.0","C46550D3A4F148CE953398D0904B8073","019cefa4-239d-7bd9-a0fc-805a2c7f8e71","019cef87-c56d-7b55-9135-c5814367ec25","","null","
                <div class=""stimulus-container"">
                    <img src=""images/schematic_sequence/restaurant_scheme/restaurant_scheme_5.png"" class=""exp-image"">
                    <div class=""question-area""></div> 
                </div>","null","","","","","","","",""
"","","","","","html-button-response","173","2525459","0.0-173.0","C46550D3A4F148CE953398D0904B8073","019cefa4-239d-7bd9-a0fc-805a2c7f8e71","019cef87-c56d-7b55-9135-c5814367ec25","","2216","
                <div class=""stimulus-container"">
                    <img src=""images/schematic_sequence/restaurant_scheme/restaurant_scheme_5.png"" class=""exp-image"">
                    <div class=""question-area"">
                        <p style=""font-size: 20px; font-weight: bold; margin: 0;"">Is there a person in this image?</p>
                    </div>
                </div>","0","main_experiment_trial","5","restaurant_scheme","schematic_sequence","","","",""
"","","","","","html-keyboard-response","174","2530461","0.0-174.0","C46550D3A4F148CE953398D0904B8073","019cefa4-239d-7bd9-a0fc-805a2c7f8e71","019cef87-c56d-7b55-9135-c5814367ec25","","null","
                <div class=""stimulus-container"">
                    <img src=""images/schematic_sequence/restaurant_scheme/restaurant_scheme_6.png"" class=""exp-image"">
                    <div class=""question-area""></div> 
                </div>","null","","","","","","","",""
"","","","","","html-button-response","175","2531600","0.0-175.0","C46550D3A4F148CE953398D0904B8073","019cefa4-239d-7bd9-a0fc-805a2c7f8e71","019cef87-c56d-7b55-9135-c5814367ec25","","1138","
                <div class=""stimulus-container"">
                    <img src=""images/schematic_sequence/restaurant_scheme/restaurant_scheme_6.png"" class=""exp-image"">
                    <div class=""question-area"">
                        <p style=""font-size: 20px; font-weight: bold; margin: 0;"">Is there a person in this image?</p>
                    </div>
                </div>","1","main_experiment_trial","6","restaurant_scheme","schematic_sequence","","","",""
"","","","","","html-keyboard-response","176","2536602","0.0-176.0","C46550D3A4F148CE953398D0904B8073","019cefa4-239d-7bd9-a0fc-805a2c7f8e71","019cef87-c56d-7b55-9135-c5814367ec25","","null","
                <div class=""stimulus-container"">
                    <img src=""images/schematic_sequence/restaurant_scheme/restaurant_scheme_7.png"" class=""exp-image"">
                    <div class=""question-area""></div> 
                </div>","null","","","","","","","",""
"","","","","","html-button-response","177","2538322","0.0-177.0","C46550D3A4F148CE953398D0904B8073","019cefa4-239d-7bd9-a0fc-805a2c7f8e71","019cef87-c56d-7b55-9135-c5814367ec25","","1719","
                <div class=""stimulus-container"">
                    <img src=""images/schematic_sequence/restaurant_scheme/restaurant_scheme_7.png"" class=""exp-image"">
                    <div class=""question-area"">
                        <p style=""font-size: 20px; font-weight: bold; margin: 0;"">Is there a person in this image?</p>
                    </div>
                </div>","1","main_experiment_trial","7","restaurant_scheme","schematic_sequence","","","",""
"","","","","","html-keyboard-response","178","2543324","0.0-178.0","C46550D3A4F148CE953398D0904B8073","019cefa4-239d-7bd9-a0fc-805a2c7f8e71","019cef87-c56d-7b55-9135-c5814367ec25","","null","
                <div class=""stimulus-container"">
                    <img src=""images/schematic_sequence/restaurant_scheme/restaurant_scheme_8.png"" class=""exp-image"">
                    <div class=""question-area""></div> 
                </div>","null","","","","","","","",""
"","","","","","html-button-response","179","2543967","0.0-179.0","C46550D3A4F148CE953398D0904B8073","019cefa4-239d-7bd9-a0fc-805a2c7f8e71","019cef87-c56d-7b55-9135-c5814367ec25","","641","
                <div class=""stimulus-container"">
                    <img src=""images/schematic_sequence/restaurant_scheme/restaurant_scheme_8.png"" class=""exp-image"">
                    <div class=""question-area"">
                        <p style=""font-size: 20px; font-weight: bold; margin: 0;"">Is there a person in this image?</p>
                    </div>
                </div>","0","main_experiment_trial","8","restaurant_scheme","schematic_sequence","","","",""
"","","","","","html-keyboard-response","180","2548969","0.0-180.0","C46550D3A4F148CE953398D0904B8073","019cefa4-239d-7bd9-a0fc-805a2c7f8e71","019cef87-c56d-7b55-9135-c5814367ec25","","null","
                <div class=""stimulus-container"">
                    <img src=""images/schematic_sequence/restaurant_scheme/restaurant_scheme_9.png"" class=""exp-image"">
                    <div class=""question-area""></div> 
                </div>","null","","","","","","","",""
"","","","","","html-button-response","181","2549733","0.0-181.0","C46550D3A4F148CE953398D0904B8073","019cefa4-239d-7bd9-a0fc-805a2c7f8e71","019cef87-c56d-7b55-9135-c5814367ec25","","763","
                <div class=""stimulus-container"">
                    <img src=""images/schematic_sequence/restaurant_scheme/restaurant_scheme_9.png"" class=""exp-image"">
                    <div class=""question-area"">
                        <p style=""font-size: 20px; font-weight: bold; margin: 0;"">Is there a person in this image?</p>
                    </div>
                </div>","0","main_experiment_trial","9","restaurant_scheme","schematic_sequence","","","",""
"","","","","","html-keyboard-response","182","2554736","0.0-182.0","C46550D3A4F148CE953398D0904B8073","019cefa4-239d-7bd9-a0fc-805a2c7f8e71","019cef87-c56d-7b55-9135-c5814367ec25","","null","
                <div class=""stimulus-container"">
                    <img src=""images/schematic_sequence/restaurant_scheme/restaurant_scheme_ten.png"" class=""exp-image"">
                    <div class=""question-area""></div> 
                </div>","null","","","","","","","",""
"","","","","","html-button-response","183","2555205","0.0-183.0","C46550D3A4F148CE953398D0904B8073","019cefa4-239d-7bd9-a0fc-805a2c7f8e71","019cef87-c56d-7b55-9135-c5814367ec25","","468","
                <div class=""stimulus-container"">
                    <img src=""images/schematic_sequence/restaurant_scheme/restaurant_scheme_ten.png"" class=""exp-image"">
                    <div class=""question-area"">
