"success","timeout","failed_images","failed_audio","failed_video","trial_type","trial_index","time_elapsed","internal_node_id","subject_id","study_id","session_id","view_history","rt","stimulus","response","task","image_index","folder","sequence_type","presentation_order","valuable_image_index","reward_type","distance_from_x","target_X","chosen_image_index","is_x_plus_dist","correct_choice"
"true","false","[]","[]","[]","preload","0","15464","0.0-0.0","BD829C455ECF44618E25144C1B8E8360","019cfc3d-f781-7ed1-a582-c2f468c0b49f","019cfc28-2143-7934-89cc-ce6402563331","","","","","","","","","","","","","","","",""
"","","","","","instructions","1","54051","0.0-1.0","BD829C455ECF44618E25144C1B8E8360","019cfc3d-f781-7ed1-a582-c2f468c0b49f","019cfc28-2143-7934-89cc-ce6402563331","[{""page_index"":0,""viewing_time"":38588}]","38588","","","","","","","","","","","","","",""
"","","","","","instructions","2","58964","0.0-2.0","BD829C455ECF44618E25144C1B8E8360","019cfc3d-f781-7ed1-a582-c2f468c0b49f","019cfc28-2143-7934-89cc-ce6402563331","[{""page_index"":0,""viewing_time"":4912}]","4913","","","","","","","","","","","","","",""
"true","","","","","fullscreen","3","61967","0.0-3.0","BD829C455ECF44618E25144C1B8E8360","019cfc3d-f781-7ed1-a582-c2f468c0b49f","019cfc28-2143-7934-89cc-ce6402563331","","2001","","","","","","","","","","","","","",""
"","","","","","instructions","4","73101","0.0-4.0","BD829C455ECF44618E25144C1B8E8360","019cfc3d-f781-7ed1-a582-c2f468c0b49f","019cfc28-2143-7934-89cc-ce6402563331","[{""page_index"":0,""viewing_time"":11134}]","11134","","","","","","","","","","","","","",""
"","","","","","instructions","5","82229","0.0-5.0","BD829C455ECF44618E25144C1B8E8360","019cfc3d-f781-7ed1-a582-c2f468c0b49f","019cfc28-2143-7934-89cc-ce6402563331","[{""page_index"":0,""viewing_time"":9127}]","9128","","","","","","","","","","","","","",""
"","","","","","html-keyboard-response","6","86230","0.0-6.0","BD829C455ECF44618E25144C1B8E8360","019cfc3d-f781-7ed1-a582-c2f468c0b49f","019cfc28-2143-7934-89cc-ce6402563331","","null","
                <div class=""stimulus-container"">
                    <img src=""images/instructions/movie_1.png"" class=""exp-image"">
                    <div class=""question-area""></div> 
                </div>","null","","","","","","","","","","","",""
"","","","","","html-button-response","7","88597","0.0-7.0","BD829C455ECF44618E25144C1B8E8360","019cfc3d-f781-7ed1-a582-c2f468c0b49f","019cfc28-2143-7934-89cc-ce6402563331","","2366","
                <div class=""stimulus-container"">
                    <img src=""images/instructions/movie_1.png"" class=""exp-image"">
                    <div class=""question-area"">
                        <p style=""font-size: 20px; font-weight: bold; margin: 0;"">Was there a person in this image?</p>
                    </div>
                </div>","0","example_question","1","","","","","","","","","",""
"","","","","","html-keyboard-response","8","92597","0.0-8.0","BD829C455ECF44618E25144C1B8E8360","019cfc3d-f781-7ed1-a582-c2f468c0b49f","019cfc28-2143-7934-89cc-ce6402563331","","null","
                <div class=""stimulus-container"">
                    <img src=""images/instructions/movie_2.png"" class=""exp-image"">
                    <div class=""question-area""></div> 
                </div>","null","","","","","","","","","","","",""
"","","","","","html-button-response","9","93434","0.0-9.0","BD829C455ECF44618E25144C1B8E8360","019cfc3d-f781-7ed1-a582-c2f468c0b49f","019cfc28-2143-7934-89cc-ce6402563331","","836","
                <div class=""stimulus-container"">
                    <img src=""images/instructions/movie_2.png"" class=""exp-image"">
                    <div class=""question-area"">
                        <p style=""font-size: 20px; font-weight: bold; margin: 0;"">Was there a person in this image?</p>
                    </div>
                </div>","0","example_question","2","","","","","","","","","",""
"","","","","","html-keyboard-response","10","97435","0.0-10.0","BD829C455ECF44618E25144C1B8E8360","019cfc3d-f781-7ed1-a582-c2f468c0b49f","019cfc28-2143-7934-89cc-ce6402563331","","null","
                <div class=""stimulus-container"">
                    <img src=""images/instructions/movie_3.png"" class=""exp-image"">
                    <div class=""question-area""></div> 
                </div>","null","","","","","","","","","","","",""
"","","","","","html-button-response","11","97971","0.0-11.0","BD829C455ECF44618E25144C1B8E8360","019cfc3d-f781-7ed1-a582-c2f468c0b49f","019cfc28-2143-7934-89cc-ce6402563331","","535","
                <div class=""stimulus-container"">
                    <img src=""images/instructions/movie_3.png"" class=""exp-image"">
                    <div class=""question-area"">
                        <p style=""font-size: 20px; font-weight: bold; margin: 0;"">Was there a person in this image?</p>
                    </div>
                </div>","0","example_question","3","","","","","","","","","",""
"","","","","","html-keyboard-response","12","101972","0.0-12.0","BD829C455ECF44618E25144C1B8E8360","019cfc3d-f781-7ed1-a582-c2f468c0b49f","019cfc28-2143-7934-89cc-ce6402563331","","null","
                <div class=""stimulus-container"">
                    <img src=""images/instructions/movie_4.png"" class=""exp-image"">
                    <div class=""question-area""></div> 
                </div>","null","","","","","","","","","","","",""
"","","","","","html-button-response","13","102697","0.0-13.0","BD829C455ECF44618E25144C1B8E8360","019cfc3d-f781-7ed1-a582-c2f468c0b49f","019cfc28-2143-7934-89cc-ce6402563331","","725","
                <div class=""stimulus-container"">
                    <img src=""images/instructions/movie_4.png"" class=""exp-image"">
                    <div class=""question-area"">
                        <p style=""font-size: 20px; font-weight: bold; margin: 0;"">Was there a person in this image?</p>
                    </div>
                </div>","0","example_question","4","","","","","","","","","",""
"","","","","","instructions","14","105172","0.0-14.0","BD829C455ECF44618E25144C1B8E8360","019cfc3d-f781-7ed1-a582-c2f468c0b49f","019cfc28-2143-7934-89cc-ce6402563331","[{""page_index"":0,""viewing_time"":2474}]","2475","","","","","","","","","","","","","",""
"","","","","","instructions","15","112139","0.0-15.0","BD829C455ECF44618E25144C1B8E8360","019cfc3d-f781-7ed1-a582-c2f468c0b49f","019cfc28-2143-7934-89cc-ce6402563331","[{""page_index"":0,""viewing_time"":6967}]","6967","","","","","","","","","","","","","",""
"","","","","","html-keyboard-response","16","117141","0.0-16.0","BD829C455ECF44618E25144C1B8E8360","019cfc3d-f781-7ed1-a582-c2f468c0b49f","019cfc28-2143-7934-89cc-ce6402563331","","null","<div style=""background-color: white; width: 100vw; height: 100vh;""></div>","null","","","","","","","","","","","",""
"","","","","","html-keyboard-response","17","122142","0.0-17.0","BD829C455ECF44618E25144C1B8E8360","019cfc3d-f781-7ed1-a582-c2f468c0b49f","019cfc28-2143-7934-89cc-ce6402563331","","null","
                <div class=""stimulus-container"">
                    <img src=""images/semantic_sequence/exploring_nature_semantic/exploring_nature_semantic_1.png"" class=""exp-image"">
                    <div class=""question-area""></div> 
                </div>","null","","","","","","","","","","","",""
"","","","","","html-button-response","18","123111","0.0-18.0","BD829C455ECF44618E25144C1B8E8360","019cfc3d-f781-7ed1-a582-c2f468c0b49f","019cfc28-2143-7934-89cc-ce6402563331","","969","
                <div class=""stimulus-container"">
                    <img src=""images/semantic_sequence/exploring_nature_semantic/exploring_nature_semantic_1.png"" class=""exp-image"">
                    <div class=""question-area"">
                        <p style=""font-size: 20px; font-weight: bold; margin: 0;"">Is there a person in this image?</p>
                    </div>
                </div>","0","main_experiment_trial","1","exploring_nature_semantic","semantic_sequence","chronological","","","","","","",""
"","","","","","html-keyboard-response","19","128113","0.0-19.0","BD829C455ECF44618E25144C1B8E8360","019cfc3d-f781-7ed1-a582-c2f468c0b49f","019cfc28-2143-7934-89cc-ce6402563331","","null","
                <div class=""stimulus-container"">
                    <img src=""images/semantic_sequence/exploring_nature_semantic/exploring_nature_semantic_2.png"" class=""exp-image"">
                    <div class=""question-area""></div> 
                </div>","null","","","","","","","","","","","",""
"","","","","","html-button-response","20","128984","0.0-20.0","BD829C455ECF44618E25144C1B8E8360","019cfc3d-f781-7ed1-a582-c2f468c0b49f","019cfc28-2143-7934-89cc-ce6402563331","","871","
                <div class=""stimulus-container"">
                    <img src=""images/semantic_sequence/exploring_nature_semantic/exploring_nature_semantic_2.png"" class=""exp-image"">
                    <div class=""question-area"">
                        <p style=""font-size: 20px; font-weight: bold; margin: 0;"">Is there a person in this image?</p>
                    </div>
                </div>","0","main_experiment_trial","2","exploring_nature_semantic","semantic_sequence","chronological","","","","","","",""
"","","","","","html-keyboard-response","21","133986","0.0-21.0","BD829C455ECF44618E25144C1B8E8360","019cfc3d-f781-7ed1-a582-c2f468c0b49f","019cfc28-2143-7934-89cc-ce6402563331","","null","
                <div class=""stimulus-container"">
                    <img src=""images/semantic_sequence/exploring_nature_semantic/exploring_nature_semantic_3.png"" class=""exp-image"">
                    <div class=""question-area""></div> 
                </div>","null","","","","","","","","","","","",""
"","","","","","html-button-response","22","134519","0.0-22.0","BD829C455ECF44618E25144C1B8E8360","019cfc3d-f781-7ed1-a582-c2f468c0b49f","019cfc28-2143-7934-89cc-ce6402563331","","533","
                <div class=""stimulus-container"">
                    <img src=""images/semantic_sequence/exploring_nature_semantic/exploring_nature_semantic_3.png"" class=""exp-image"">
                    <div class=""question-area"">
                        <p style=""font-size: 20px; font-weight: bold; margin: 0;"">Is there a person in this image?</p>
                    </div>
                </div>","0","main_experiment_trial","3","exploring_nature_semantic","semantic_sequence","chronological","","","","","","",""
"","","","","","html-keyboard-response","23","139520","0.0-23.0","BD829C455ECF44618E25144C1B8E8360","019cfc3d-f781-7ed1-a582-c2f468c0b49f","019cfc28-2143-7934-89cc-ce6402563331","","null","
                <div class=""stimulus-container"">
                    <img src=""images/semantic_sequence/exploring_nature_semantic/exploring_nature_semantic_4.png"" class=""exp-image"">
                    <div class=""question-area""></div> 
                </div>","null","","","","","","","","","","","",""
"","","","","","html-button-response","24","140647","0.0-24.0","BD829C455ECF44618E25144C1B8E8360","019cfc3d-f781-7ed1-a582-c2f468c0b49f","019cfc28-2143-7934-89cc-ce6402563331","","1127","
                <div class=""stimulus-container"">
                    <img src=""images/semantic_sequence/exploring_nature_semantic/exploring_nature_semantic_4.png"" class=""exp-image"">
                    <div class=""question-area"">
                        <p style=""font-size: 20px; font-weight: bold; margin: 0;"">Is there a person in this image?</p>
                    </div>
                </div>","0","main_experiment_trial","4","exploring_nature_semantic","semantic_sequence","chronological","","","","","","",""
"","","","","","html-keyboard-response","25","145649","0.0-25.0","BD829C455ECF44618E25144C1B8E8360","019cfc3d-f781-7ed1-a582-c2f468c0b49f","019cfc28-2143-7934-89cc-ce6402563331","","null","
                <div class=""stimulus-container"">
                    <img src=""images/semantic_sequence/exploring_nature_semantic/exploring_nature_semantic_5.png"" class=""exp-image"">
                    <div class=""question-area""></div> 
                </div>","null","","","","","","","","","","","",""
"","","","","","html-button-response","26","146392","0.0-26.0","BD829C455ECF44618E25144C1B8E8360","019cfc3d-f781-7ed1-a582-c2f468c0b49f","019cfc28-2143-7934-89cc-ce6402563331","","743","
                <div class=""stimulus-container"">
                    <img src=""images/semantic_sequence/exploring_nature_semantic/exploring_nature_semantic_5.png"" class=""exp-image"">
                    <div class=""question-area"">
                        <p style=""font-size: 20px; font-weight: bold; margin: 0;"">Is there a person in this image?</p>
                    </div>
                </div>","0","main_experiment_trial","5","exploring_nature_semantic","semantic_sequence","chronological","","","","","","",""
"","","","","","html-keyboard-response","27","151394","0.0-27.0","BD829C455ECF44618E25144C1B8E8360","019cfc3d-f781-7ed1-a582-c2f468c0b49f","019cfc28-2143-7934-89cc-ce6402563331","","null","
                <div class=""stimulus-container"">
                    <img src=""images/semantic_sequence/exploring_nature_semantic/exploring_nature_semantic_6.png"" class=""exp-image"">
                    <div class=""question-area""></div> 
                </div>","null","","","","","","","","","","","",""
"","","","","","html-button-response","28","152002","0.0-28.0","BD829C455ECF44618E25144C1B8E8360","019cfc3d-f781-7ed1-a582-c2f468c0b49f","019cfc28-2143-7934-89cc-ce6402563331","","608","
                <div class=""stimulus-container"">
                    <img src=""images/semantic_sequence/exploring_nature_semantic/exploring_nature_semantic_6.png"" class=""exp-image"">
                    <div class=""question-area"">
                        <p style=""font-size: 20px; font-weight: bold; margin: 0;"">Is there a person in this image?</p>
                    </div>
                </div>","0","main_experiment_trial","6","exploring_nature_semantic","semantic_sequence","chronological","","","","","","",""
"","","","","","html-keyboard-response","29","157004","0.0-29.0","BD829C455ECF44618E25144C1B8E8360","019cfc3d-f781-7ed1-a582-c2f468c0b49f","019cfc28-2143-7934-89cc-ce6402563331","","null","
                <div class=""stimulus-container"">
                    <img src=""images/semantic_sequence/exploring_nature_semantic/exploring_nature_semantic_7.png"" class=""exp-image"">
                    <div class=""question-area""></div> 
                </div>","null","","","","","","","","","","","",""
"","","","","","html-button-response","30","157597","0.0-30.0","BD829C455ECF44618E25144C1B8E8360","019cfc3d-f781-7ed1-a582-c2f468c0b49f","019cfc28-2143-7934-89cc-ce6402563331","","593","
                <div class=""stimulus-container"">
                    <img src=""images/semantic_sequence/exploring_nature_semantic/exploring_nature_semantic_7.png"" class=""exp-image"">
                    <div class=""question-area"">
                        <p style=""font-size: 20px; font-weight: bold; margin: 0;"">Is there a person in this image?</p>
                    </div>
                </div>","0","main_experiment_trial","7","exploring_nature_semantic","semantic_sequence","chronological","","","","","","",""
"","","","","","html-keyboard-response","31","162599","0.0-31.0","BD829C455ECF44618E25144C1B8E8360","019cfc3d-f781-7ed1-a582-c2f468c0b49f","019cfc28-2143-7934-89cc-ce6402563331","","null","
                <div class=""stimulus-container"">
                    <img src=""images/semantic_sequence/exploring_nature_semantic/exploring_nature_semantic_8.png"" class=""exp-image"">
                    <div class=""question-area""></div> 
                </div>","null","","","","","","","","","","","",""
"","","","","","html-button-response","32","163178","0.0-32.0","BD829C455ECF44618E25144C1B8E8360","019cfc3d-f781-7ed1-a582-c2f468c0b49f","019cfc28-2143-7934-89cc-ce6402563331","","578","
                <div class=""stimulus-container"">
                    <img src=""images/semantic_sequence/exploring_nature_semantic/exploring_nature_semantic_8.png"" class=""exp-image"">
                    <div class=""question-area"">
                        <p style=""font-size: 20px; font-weight: bold; margin: 0;"">Is there a person in this image?</p>
                    </div>
                </div>","0","main_experiment_trial","8","exploring_nature_semantic","semantic_sequence","chronological","","","","","","",""
"","","","","","html-keyboard-response","33","168178","0.0-33.0","BD829C455ECF44618E25144C1B8E8360","019cfc3d-f781-7ed1-a582-c2f468c0b49f","019cfc28-2143-7934-89cc-ce6402563331","","null","
                <div class=""stimulus-container"">
                    <img src=""images/semantic_sequence/exploring_nature_semantic/exploring_nature_semantic_9.png"" class=""exp-image"">
                    <div class=""question-area""></div> 
                </div>","null","","","","","","","","","","","",""
"","","","","","html-button-response","34","169073","0.0-34.0","BD829C455ECF44618E25144C1B8E8360","019cfc3d-f781-7ed1-a582-c2f468c0b49f","019cfc28-2143-7934-89cc-ce6402563331","","894","
                <div class=""stimulus-container"">
                    <img src=""images/semantic_sequence/exploring_nature_semantic/exploring_nature_semantic_9.png"" class=""exp-image"">
                    <div class=""question-area"">
                        <p style=""font-size: 20px; font-weight: bold; margin: 0;"">Is there a person in this image?</p>
                    </div>
                </div>","0","main_experiment_trial","9","exploring_nature_semantic","semantic_sequence","chronological","","","","","","",""
"","","","","","html-keyboard-response","35","174074","0.0-35.0","BD829C455ECF44618E25144C1B8E8360","019cfc3d-f781-7ed1-a582-c2f468c0b49f","019cfc28-2143-7934-89cc-ce6402563331","","null","
                <div class=""stimulus-container"">
                    <img src=""images/semantic_sequence/exploring_nature_semantic/exploring_nature_semantic_ten.png"" class=""exp-image"">
                    <div class=""question-area""></div> 
                </div>","null","","","","","","","","","","","",""
"","","","","","html-button-response","36","174772","0.0-36.0","BD829C455ECF44618E25144C1B8E8360","019cfc3d-f781-7ed1-a582-c2f468c0b49f","019cfc28-2143-7934-89cc-ce6402563331","","698","
                <div class=""stimulus-container"">
                    <img src=""images/semantic_sequence/exploring_nature_semantic/exploring_nature_semantic_ten.png"" class=""exp-image"">
                    <div class=""question-area"">
                        <p style=""font-size: 20px; font-weight: bold; margin: 0;"">Is there a person in this image?</p>
                    </div>
                </div>","0","main_experiment_trial","ten","exploring_nature_semantic","semantic_sequence","chronological","","","","","","",""
"","","","","","html-keyboard-response","37","179774","0.0-37.0","BD829C455ECF44618E25144C1B8E8360","019cfc3d-f781-7ed1-a582-c2f468c0b49f","019cfc28-2143-7934-89cc-ce6402563331","","null","<div style=""background-color: white; width: 100vw; height: 100vh;""></div>","null","","","","","","","","","","","",""
"","","","","","html-keyboard-response","38","184775","0.0-38.0","BD829C455ECF44618E25144C1B8E8360","019cfc3d-f781-7ed1-a582-c2f468c0b49f","019cfc28-2143-7934-89cc-ce6402563331","","null","
                <div class=""stimulus-container"">
                    <img src=""images/schematic_sequence/hotel_scheme/hotel_scheme_1.png"" class=""exp-image"">
                    <div class=""question-area""></div> 
                </div>","null","","","","","","","","","","","",""
"","","","","","html-button-response","39","185715","0.0-39.0","BD829C455ECF44618E25144C1B8E8360","019cfc3d-f781-7ed1-a582-c2f468c0b49f","019cfc28-2143-7934-89cc-ce6402563331","","940","
                <div class=""stimulus-container"">
                    <img src=""images/schematic_sequence/hotel_scheme/hotel_scheme_1.png"" class=""exp-image"">
                    <div class=""question-area"">
                        <p style=""font-size: 20px; font-weight: bold; margin: 0;"">Is there a person in this image?</p>
                    </div>
                </div>","1","main_experiment_trial","1","hotel_scheme","schematic_sequence","chronological","","","","","","",""
"","","","","","html-keyboard-response","40","190717","0.0-40.0","BD829C455ECF44618E25144C1B8E8360","019cfc3d-f781-7ed1-a582-c2f468c0b49f","019cfc28-2143-7934-89cc-ce6402563331","","null","
                <div class=""stimulus-container"">
                    <img src=""images/schematic_sequence/hotel_scheme/hotel_scheme_2.png"" class=""exp-image"">
                    <div class=""question-area""></div> 
                </div>","null","","","","","","","","","","","",""
"","","","","","html-button-response","41","191445","0.0-41.0","BD829C455ECF44618E25144C1B8E8360","019cfc3d-f781-7ed1-a582-c2f468c0b49f","019cfc28-2143-7934-89cc-ce6402563331","","728","
                <div class=""stimulus-container"">
                    <img src=""images/schematic_sequence/hotel_scheme/hotel_scheme_2.png"" class=""exp-image"">
                    <div class=""question-area"">
                        <p style=""font-size: 20px; font-weight: bold; margin: 0;"">Is there a person in this image?</p>
                    </div>
                </div>","0","main_experiment_trial","2","hotel_scheme","schematic_sequence","chronological","","","","","","",""
"","","","","","html-keyboard-response","42","196447","0.0-42.0","BD829C455ECF44618E25144C1B8E8360","019cfc3d-f781-7ed1-a582-c2f468c0b49f","019cfc28-2143-7934-89cc-ce6402563331","","null","
                <div class=""stimulus-container"">
                    <img src=""images/schematic_sequence/hotel_scheme/hotel_scheme_3.png"" class=""exp-image"">
                    <div class=""question-area""></div> 
                </div>","null","","","","","","","","","","","",""
"","","","","","html-button-response","43","196950","0.0-43.0","BD829C455ECF44618E25144C1B8E8360","019cfc3d-f781-7ed1-a582-c2f468c0b49f","019cfc28-2143-7934-89cc-ce6402563331","","502","
                <div class=""stimulus-container"">
                    <img src=""images/schematic_sequence/hotel_scheme/hotel_scheme_3.png"" class=""exp-image"">
                    <div class=""question-area"">
                        <p style=""font-size: 20px; font-weight: bold; margin: 0;"">Is there a person in this image?</p>
                    </div>
                </div>","0","main_experiment_trial","3","hotel_scheme","schematic_sequence","chronological","","","","","","",""
"","","","","","html-keyboard-response","44","201952","0.0-44.0","BD829C455ECF44618E25144C1B8E8360","019cfc3d-f781-7ed1-a582-c2f468c0b49f","019cfc28-2143-7934-89cc-ce6402563331","","null","
                <div class=""stimulus-container"">
                    <img src=""images/schematic_sequence/hotel_scheme/hotel_scheme_4.png"" class=""exp-image"">
                    <div class=""question-area""></div> 
                </div>","null","","","","","","","","","","","",""
"","","","","","html-button-response","45","202576","0.0-45.0","BD829C455ECF44618E25144C1B8E8360","019cfc3d-f781-7ed1-a582-c2f468c0b49f","019cfc28-2143-7934-89cc-ce6402563331","","623","
                <div class=""stimulus-container"">
                    <img src=""images/schematic_sequence/hotel_scheme/hotel_scheme_4.png"" class=""exp-image"">
                    <div class=""question-area"">
                        <p style=""font-size: 20px; font-weight: bold; margin: 0;"">Is there a person in this image?</p>
                    </div>
                </div>","1","main_experiment_trial","4","hotel_scheme","schematic_sequence","chronological","","","","","","",""
"","","","","","html-keyboard-response","46","207576","0.0-46.0","BD829C455ECF44618E25144C1B8E8360","019cfc3d-f781-7ed1-a582-c2f468c0b49f","019cfc28-2143-7934-89cc-ce6402563331","","null","
                <div class=""stimulus-container"">
                    <img src=""images/schematic_sequence/hotel_scheme/hotel_scheme_5.png"" class=""exp-image"">
                    <div class=""question-area""></div> 
                </div>","null","","","","","","","","","","","",""
"","","","","","html-button-response","47","208238","0.0-47.0","BD829C455ECF44618E25144C1B8E8360","019cfc3d-f781-7ed1-a582-c2f468c0b49f","019cfc28-2143-7934-89cc-ce6402563331","","661","
                <div class=""stimulus-container"">
                    <img src=""images/schematic_sequence/hotel_scheme/hotel_scheme_5.png"" class=""exp-image"">
                    <div class=""question-area"">
                        <p style=""font-size: 20px; font-weight: bold; margin: 0;"">Is there a person in this image?</p>
                    </div>
                </div>","0","main_experiment_trial","5","hotel_scheme","schematic_sequence","chronological","","","","","","",""
"","","","","","html-keyboard-response","48","213239","0.0-48.0","BD829C455ECF44618E25144C1B8E8360","019cfc3d-f781-7ed1-a582-c2f468c0b49f","019cfc28-2143-7934-89cc-ce6402563331","","null","
                <div class=""stimulus-container"">
                    <img src=""images/schematic_sequence/hotel_scheme/hotel_scheme_6.png"" class=""exp-image"">
                    <div class=""question-area""></div> 
                </div>","null","","","","","","","","","","","",""
"","","","","","html-button-response","49","213826","0.0-49.0","BD829C455ECF44618E25144C1B8E8360","019cfc3d-f781-7ed1-a582-c2f468c0b49f","019cfc28-2143-7934-89cc-ce6402563331","","586","
                <div class=""stimulus-container"">
                    <img src=""images/schematic_sequence/hotel_scheme/hotel_scheme_6.png"" class=""exp-image"">
                    <div class=""question-area"">
                        <p style=""font-size: 20px; font-weight: bold; margin: 0;"">Is there a person in this image?</p>
                    </div>
                </div>","0","main_experiment_trial","6","hotel_scheme","schematic_sequence","chronological","","","","","","",""
"","","","","","html-keyboard-response","50","218827","0.0-50.0","BD829C455ECF44618E25144C1B8E8360","019cfc3d-f781-7ed1-a582-c2f468c0b49f","019cfc28-2143-7934-89cc-ce6402563331","","null","
                <div class=""stimulus-container"">
                    <img src=""images/schematic_sequence/hotel_scheme/hotel_scheme_7.png"" class=""exp-image"">
                    <div class=""question-area""></div> 
                </div>","null","","","","","","","","","","","",""
"","","","","","html-button-response","51","219225","0.0-51.0","BD829C455ECF44618E25144C1B8E8360","019cfc3d-f781-7ed1-a582-c2f468c0b49f","019cfc28-2143-7934-89cc-ce6402563331","","398","
                <div class=""stimulus-container"">
                    <img src=""images/schematic_sequence/hotel_scheme/hotel_scheme_7.png"" class=""exp-image"">
                    <div class=""question-area"">
                        <p style=""font-size: 20px; font-weight: bold; margin: 0;"">Is there a person in this image?</p>
                    </div>
                </div>","0","main_experiment_trial","7","hotel_scheme","schematic_sequence","chronological","","","","","","",""
"","","","","","html-keyboard-response","52","224227","0.0-52.0","BD829C455ECF44618E25144C1B8E8360","019cfc3d-f781-7ed1-a582-c2f468c0b49f","019cfc28-2143-7934-89cc-ce6402563331","","null","
                <div class=""stimulus-container"">
                    <img src=""images/schematic_sequence/hotel_scheme/hotel_scheme_8.png"" class=""exp-image"">
                    <div class=""question-area""></div> 
                </div>","null","","","","","","","","","","","",""
"","","","","","html-button-response","53","224716","0.0-53.0","BD829C455ECF44618E25144C1B8E8360","019cfc3d-f781-7ed1-a582-c2f468c0b49f","019cfc28-2143-7934-89cc-ce6402563331","","488","
                <div class=""stimulus-container"">
                    <img src=""images/schematic_sequence/hotel_scheme/hotel_scheme_8.png"" class=""exp-image"">
                    <div class=""question-area"">
                        <p style=""font-size: 20px; font-weight: bold; margin: 0;"">Is there a person in this image?</p>
                    </div>
                </div>","0","main_experiment_trial","8","hotel_scheme","schematic_sequence","chronological","","","","","","",""
"","","","","","html-keyboard-response","54","229717","0.0-54.0","BD829C455ECF44618E25144C1B8E8360","019cfc3d-f781-7ed1-a582-c2f468c0b49f","019cfc28-2143-7934-89cc-ce6402563331","","null","
                <div class=""stimulus-container"">
                    <img src=""images/schematic_sequence/hotel_scheme/hotel_scheme_9.png"" class=""exp-image"">
                    <div class=""question-area""></div> 
                </div>","null","","","","","","","","","","","",""
"","","","","","html-button-response","55","230933","0.0-55.0","BD829C455ECF44618E25144C1B8E8360","019cfc3d-f781-7ed1-a582-c2f468c0b49f","019cfc28-2143-7934-89cc-ce6402563331","","1216","
                <div class=""stimulus-container"">
                    <img src=""images/schematic_sequence/hotel_scheme/hotel_scheme_9.png"" class=""exp-image"">
                    <div class=""question-area"">
                        <p style=""font-size: 20px; font-weight: bold; margin: 0;"">Is there a person in this image?</p>
                    </div>
                </div>","0","main_experiment_trial","9","hotel_scheme","schematic_sequence","chronological","","","","","","",""
"","","","","","html-keyboard-response","56","235934","0.0-56.0","BD829C455ECF44618E25144C1B8E8360","019cfc3d-f781-7ed1-a582-c2f468c0b49f","019cfc28-2143-7934-89cc-ce6402563331","","null","
                <div class=""stimulus-container"">
                    <img src=""images/schematic_sequence/hotel_scheme/hotel_scheme_ten.png"" class=""exp-image"">
                    <div class=""question-area""></div> 
                </div>","null","","","","","","","","","","","",""
"","","","","","html-button-response","57","236588","0.0-57.0","BD829C455ECF44618E25144C1B8E8360","019cfc3d-f781-7ed1-a582-c2f468c0b49f","019cfc28-2143-7934-89cc-ce6402563331","","654","
                <div class=""stimulus-container"">
                    <img src=""images/schematic_sequence/hotel_scheme/hotel_scheme_ten.png"" class=""exp-image"">
                    <div class=""question-area"">
                        <p style=""font-size: 20px; font-weight: bold; margin: 0;"">Is there a person in this image?</p>
                    </div>
                </div>","0","main_experiment_trial","ten","hotel_scheme","schematic_sequence","chronological","","","","","","",""
"","","","","","html-keyboard-response","58","241589","0.0-58.0","BD829C455ECF44618E25144C1B8E8360","019cfc3d-f781-7ed1-a582-c2f468c0b49f","019cfc28-2143-7934-89cc-ce6402563331","","null","<div style=""background-color: white; width: 100vw; height: 100vh;""></div>","null","","","","","","","","","","","",""
"","","","","","html-keyboard-response","59","246590","0.0-59.0","BD829C455ECF44618E25144C1B8E8360","019cfc3d-f781-7ed1-a582-c2f468c0b49f","019cfc28-2143-7934-89cc-ce6402563331","","null","
                <div class=""stimulus-container"">
                    <img src=""images/semantic_sequence/kitchen_operations_semantic/kitchen_operations_semantic_1.png"" class=""exp-image"">
                    <div class=""question-area""></div> 
                </div>","null","","","","","","","","","","","",""
"","","","","","html-button-response","60","247268","0.0-60.0","BD829C455ECF44618E25144C1B8E8360","019cfc3d-f781-7ed1-a582-c2f468c0b49f","019cfc28-2143-7934-89cc-ce6402563331","","677","
                <div class=""stimulus-container"">
                    <img src=""images/semantic_sequence/kitchen_operations_semantic/kitchen_operations_semantic_1.png"" class=""exp-image"">
                    <div class=""question-area"">
                        <p style=""font-size: 20px; font-weight: bold; margin: 0;"">Is there a person in this image?</p>
                    </div>
                </div>","0","main_experiment_trial","1","kitchen_operations_semantic","semantic_sequence","chronological","","","","","","",""
"","","","","","html-keyboard-response","61","252270","0.0-61.0","BD829C455ECF44618E25144C1B8E8360","019cfc3d-f781-7ed1-a582-c2f468c0b49f","019cfc28-2143-7934-89cc-ce6402563331","","null","
                <div class=""stimulus-container"">
                    <img src=""images/semantic_sequence/kitchen_operations_semantic/kitchen_operations_semantic_2.png"" class=""exp-image"">
                    <div class=""question-area""></div> 
                </div>","null","","","","","","","","","","","",""
"","","","","","html-button-response","62","252743","0.0-62.0","BD829C455ECF44618E25144C1B8E8360","019cfc3d-f781-7ed1-a582-c2f468c0b49f","019cfc28-2143-7934-89cc-ce6402563331","","473","
                <div class=""stimulus-container"">
                    <img src=""images/semantic_sequence/kitchen_operations_semantic/kitchen_operations_semantic_2.png"" class=""exp-image"">
                    <div class=""question-area"">
                        <p style=""font-size: 20px; font-weight: bold; margin: 0;"">Is there a person in this image?</p>
                    </div>
                </div>","0","main_experiment_trial","2","kitchen_operations_semantic","semantic_sequence","chronological","","","","","","",""
"","","","","","html-keyboard-response","63","257743","0.0-63.0","BD829C455ECF44618E25144C1B8E8360","019cfc3d-f781-7ed1-a582-c2f468c0b49f","019cfc28-2143-7934-89cc-ce6402563331","","null","
                <div class=""stimulus-container"">
                    <img src=""images/semantic_sequence/kitchen_operations_semantic/kitchen_operations_semantic_3.png"" class=""exp-image"">
                    <div class=""question-area""></div> 
                </div>","null","","","","","","","","","","","",""
"","","","","","html-button-response","64","258300","0.0-64.0","BD829C455ECF44618E25144C1B8E8360","019cfc3d-f781-7ed1-a582-c2f468c0b49f","019cfc28-2143-7934-89cc-ce6402563331","","557","
                <div class=""stimulus-container"">
                    <img src=""images/semantic_sequence/kitchen_operations_semantic/kitchen_operations_semantic_3.png"" class=""exp-image"">
                    <div class=""question-area"">
                        <p style=""font-size: 20px; font-weight: bold; margin: 0;"">Is there a person in this image?</p>
                    </div>
                </div>","0","main_experiment_trial","3","kitchen_operations_semantic","semantic_sequence","chronological","","","","","","",""
"","","","","","html-keyboard-response","65","263301","0.0-65.0","BD829C455ECF44618E25144C1B8E8360","019cfc3d-f781-7ed1-a582-c2f468c0b49f","019cfc28-2143-7934-89cc-ce6402563331","","null","
                <div class=""stimulus-container"">
                    <img src=""images/semantic_sequence/kitchen_operations_semantic/kitchen_operations_semantic_4.png"" class=""exp-image"">
                    <div class=""question-area""></div> 
                </div>","null","","","","","","","","","","","",""
"","","","","","html-button-response","66","263881","0.0-66.0","BD829C455ECF44618E25144C1B8E8360","019cfc3d-f781-7ed1-a582-c2f468c0b49f","019cfc28-2143-7934-89cc-ce6402563331","","580","
                <div class=""stimulus-container"">
                    <img src=""images/semantic_sequence/kitchen_operations_semantic/kitchen_operations_semantic_4.png"" class=""exp-image"">
                    <div class=""question-area"">
                        <p style=""font-size: 20px; font-weight: bold; margin: 0;"">Is there a person in this image?</p>
                    </div>
                </div>","0","main_experiment_trial","4","kitchen_operations_semantic","semantic_sequence","chronological","","","","","","",""
"","","","","","html-keyboard-response","67","268884","0.0-67.0","BD829C455ECF44618E25144C1B8E8360","019cfc3d-f781-7ed1-a582-c2f468c0b49f","019cfc28-2143-7934-89cc-ce6402563331","","null","
                <div class=""stimulus-container"">
                    <img src=""images/semantic_sequence/kitchen_operations_semantic/kitchen_operations_semantic_5.png"" class=""exp-image"">
                    <div class=""question-area""></div> 
                </div>","null","","","","","","","","","","","",""
"","","","","","html-button-response","68","269581","0.0-68.0","BD829C455ECF44618E25144C1B8E8360","019cfc3d-f781-7ed1-a582-c2f468c0b49f","019cfc28-2143-7934-89cc-ce6402563331","","697","
                <div class=""stimulus-container"">
                    <img src=""images/semantic_sequence/kitchen_operations_semantic/kitchen_operations_semantic_5.png"" class=""exp-image"">
                    <div class=""question-area"">
                        <p style=""font-size: 20px; font-weight: bold; margin: 0;"">Is there a person in this image?</p>
                    </div>
                </div>","0","main_experiment_trial","5","kitchen_operations_semantic","semantic_sequence","chronological","","","","","","",""
"","","","","","html-keyboard-response","69","274582","0.0-69.0","BD829C455ECF44618E25144C1B8E8360","019cfc3d-f781-7ed1-a582-c2f468c0b49f","019cfc28-2143-7934-89cc-ce6402563331","","null","
                <div class=""stimulus-container"">
                    <img src=""images/semantic_sequence/kitchen_operations_semantic/kitchen_operations_semantic_6.png"" class=""exp-image"">
                    <div class=""question-area""></div> 
                </div>","null","","","","","","","","","","","",""
"","","","","","html-button-response","70","275214","0.0-70.0","BD829C455ECF44618E25144C1B8E8360","019cfc3d-f781-7ed1-a582-c2f468c0b49f","019cfc28-2143-7934-89cc-ce6402563331","","631","
                <div class=""stimulus-container"">
                    <img src=""images/semantic_sequence/kitchen_operations_semantic/kitchen_operations_semantic_6.png"" class=""exp-image"">
                    <div class=""question-area"">
                        <p style=""font-size: 20px; font-weight: bold; margin: 0;"">Is there a person in this image?</p>
                    </div>
                </div>","0","main_experiment_trial","6","kitchen_operations_semantic","semantic_sequence","chronological","","","","","","",""
"","","","","","html-keyboard-response","71","280216","0.0-71.0","BD829C455ECF44618E25144C1B8E8360","019cfc3d-f781-7ed1-a582-c2f468c0b49f","019cfc28-2143-7934-89cc-ce6402563331","","null","
                <div class=""stimulus-container"">
                    <img src=""images/semantic_sequence/kitchen_operations_semantic/kitchen_operations_semantic_7.png"" class=""exp-image"">
                    <div class=""question-area""></div> 
                </div>","null","","","","","","","","","","","",""
"","","","","","html-button-response","72","280674","0.0-72.0","BD829C455ECF44618E25144C1B8E8360","019cfc3d-f781-7ed1-a582-c2f468c0b49f","019cfc28-2143-7934-89cc-ce6402563331","","458","
                <div class=""stimulus-container"">
                    <img src=""images/semantic_sequence/kitchen_operations_semantic/kitchen_operations_semantic_7.png"" class=""exp-image"">
                    <div class=""question-area"">
                        <p style=""font-size: 20px; font-weight: bold; margin: 0;"">Is there a person in this image?</p>
                    </div>
                </div>","0","main_experiment_trial","7","kitchen_operations_semantic","semantic_sequence","chronological","","","","","","",""
"","","","","","html-keyboard-response","73","285675","0.0-73.0","BD829C455ECF44618E25144C1B8E8360","019cfc3d-f781-7ed1-a582-c2f468c0b49f","019cfc28-2143-7934-89cc-ce6402563331","","null","
                <div class=""stimulus-container"">
                    <img src=""images/semantic_sequence/kitchen_operations_semantic/kitchen_operations_semantic_8.png"" class=""exp-image"">
                    <div class=""question-area""></div> 
                </div>","null","","","","","","","","","","","",""
"","","","","","html-button-response","74","286187","0.0-74.0","BD829C455ECF44618E25144C1B8E8360","019cfc3d-f781-7ed1-a582-c2f468c0b49f","019cfc28-2143-7934-89cc-ce6402563331","","511","
                <div class=""stimulus-container"">
                    <img src=""images/semantic_sequence/kitchen_operations_semantic/kitchen_operations_semantic_8.png"" class=""exp-image"">
                    <div class=""question-area"">
                        <p style=""font-size: 20px; font-weight: bold; margin: 0;"">Is there a person in this image?</p>
                    </div>
                </div>","0","main_experiment_trial","8","kitchen_operations_semantic","semantic_sequence","chronological","","","","","","",""
"","","","","","html-keyboard-response","75","291188","0.0-75.0","BD829C455ECF44618E25144C1B8E8360","019cfc3d-f781-7ed1-a582-c2f468c0b49f","019cfc28-2143-7934-89cc-ce6402563331","","null","
                <div class=""stimulus-container"">
                    <img src=""images/semantic_sequence/kitchen_operations_semantic/kitchen_operations_semantic_9.png"" class=""exp-image"">
                    <div class=""question-area""></div> 
                </div>","null","","","","","","","","","","","",""
"","","","","","html-button-response","76","291587","0.0-76.0","BD829C455ECF44618E25144C1B8E8360","019cfc3d-f781-7ed1-a582-c2f468c0b49f","019cfc28-2143-7934-89cc-ce6402563331","","398","
                <div class=""stimulus-container"">
                    <img src=""images/semantic_sequence/kitchen_operations_semantic/kitchen_operations_semantic_9.png"" class=""exp-image"">
                    <div class=""question-area"">
                        <p style=""font-size: 20px; font-weight: bold; margin: 0;"">Is there a person in this image?</p>
                    </div>
                </div>","0","main_experiment_trial","9","kitchen_operations_semantic","semantic_sequence","chronological","","","","","","",""
"","","","","","html-keyboard-response","77","296589","0.0-77.0","BD829C455ECF44618E25144C1B8E8360","019cfc3d-f781-7ed1-a582-c2f468c0b49f","019cfc28-2143-7934-89cc-ce6402563331","","null","
                <div class=""stimulus-container"">
                    <img src=""images/semantic_sequence/kitchen_operations_semantic/kitchen_operations_semantic_ten.png"" class=""exp-image"">
                    <div class=""question-area""></div> 
                </div>","null","","","","","","","","","","","",""
"","","","","","html-button-response","78","297242","0.0-78.0","BD829C455ECF44618E25144C1B8E8360","019cfc3d-f781-7ed1-a582-c2f468c0b49f","019cfc28-2143-7934-89cc-ce6402563331","","652","
                <div class=""stimulus-container"">
                    <img src=""images/semantic_sequence/kitchen_operations_semantic/kitchen_operations_semantic_ten.png"" class=""exp-image"">
                    <div class=""question-area"">
                        <p style=""font-size: 20px; font-weight: bold; margin: 0;"">Is there a person in this image?</p>
                    </div>
                </div>","0","main_experiment_trial","ten","kitchen_operations_semantic","semantic_sequence","chronological","","","","","","",""
"","","","","","html-keyboard-response","79","302243","0.0-79.0","BD829C455ECF44618E25144C1B8E8360","019cfc3d-f781-7ed1-a582-c2f468c0b49f","019cfc28-2143-7934-89cc-ce6402563331","","null","<div style=""background-color: white; width: 100vw; height: 100vh;""></div>","null","","","","","","","","","","","",""
"","","","","","html-keyboard-response","80","307245","0.0-80.0","BD829C455ECF44618E25144C1B8E8360","019cfc3d-f781-7ed1-a582-c2f468c0b49f","019cfc28-2143-7934-89cc-ce6402563331","","null","
                <div class=""stimulus-container"">
                    <img src=""images/schematic_sequence/dinner_party_scheme/dinner_party_scheme_1.png"" class=""exp-image"">
                    <div class=""question-area""></div> 
                </div>","null","","","","","","","","","","","",""
"","","","","","html-button-response","81","307877","0.0-81.0","BD829C455ECF44618E25144C1B8E8360","019cfc3d-f781-7ed1-a582-c2f468c0b49f","019cfc28-2143-7934-89cc-ce6402563331","","632","
                <div class=""stimulus-container"">
                    <img src=""images/schematic_sequence/dinner_party_scheme/dinner_party_scheme_1.png"" class=""exp-image"">
                    <div class=""question-area"">
                        <p style=""font-size: 20px; font-weight: bold; margin: 0;"">Is there a person in this image?</p>
                    </div>
                </div>","0","main_experiment_trial","1","dinner_party_scheme","schematic_sequence","chronological","","","","","","",""
"","","","","","html-keyboard-response","82","312880","0.0-82.0","BD829C455ECF44618E25144C1B8E8360","019cfc3d-f781-7ed1-a582-c2f468c0b49f","019cfc28-2143-7934-89cc-ce6402563331","","null","
                <div class=""stimulus-container"">
                    <img src=""images/schematic_sequence/dinner_party_scheme/dinner_party_scheme_2.png"" class=""exp-image"">
                    <div class=""question-area""></div> 
                </div>","null","","","","","","","","","","","",""
"","","","","","html-button-response","83","313412","0.0-83.0","BD829C455ECF44618E25144C1B8E8360","019cfc3d-f781-7ed1-a582-c2f468c0b49f","019cfc28-2143-7934-89cc-ce6402563331","","532","
                <div class=""stimulus-container"">
                    <img src=""images/schematic_sequence/dinner_party_scheme/dinner_party_scheme_2.png"" class=""exp-image"">
                    <div class=""question-area"">
                        <p style=""font-size: 20px; font-weight: bold; margin: 0;"">Is there a person in this image?</p>
                    </div>
                </div>","0","main_experiment_trial","2","dinner_party_scheme","schematic_sequence","chronological","","","","","","",""
"","","","","","html-keyboard-response","84","318413","0.0-84.0","BD829C455ECF44618E25144C1B8E8360","019cfc3d-f781-7ed1-a582-c2f468c0b49f","019cfc28-2143-7934-89cc-ce6402563331","","null","
                <div class=""stimulus-container"">
                    <img src=""images/schematic_sequence/dinner_party_scheme/dinner_party_scheme_3.png"" class=""exp-image"">
                    <div class=""question-area""></div> 
                </div>","null","","","","","","","","","","","",""
"","","","","","html-button-response","85","318865","0.0-85.0","BD829C455ECF44618E25144C1B8E8360","019cfc3d-f781-7ed1-a582-c2f468c0b49f","019cfc28-2143-7934-89cc-ce6402563331","","452","
                <div class=""stimulus-container"">
                    <img src=""images/schematic_sequence/dinner_party_scheme/dinner_party_scheme_3.png"" class=""exp-image"">
                    <div class=""question-area"">
                        <p style=""font-size: 20px; font-weight: bold; margin: 0;"">Is there a person in this image?</p>
                    </div>
                </div>","0","main_experiment_trial","3","dinner_party_scheme","schematic_sequence","chronological","","","","","","",""
"","","","","","html-keyboard-response","86","323866","0.0-86.0","BD829C455ECF44618E25144C1B8E8360","019cfc3d-f781-7ed1-a582-c2f468c0b49f","019cfc28-2143-7934-89cc-ce6402563331","","null","
                <div class=""stimulus-container"">
                    <img src=""images/schematic_sequence/dinner_party_scheme/dinner_party_scheme_4.png"" class=""exp-image"">
                    <div class=""question-area""></div> 
                </div>","null","","","","","","","","","","","",""
"","","","","","html-button-response","87","324490","0.0-87.0","BD829C455ECF44618E25144C1B8E8360","019cfc3d-f781-7ed1-a582-c2f468c0b49f","019cfc28-2143-7934-89cc-ce6402563331","","624","
                <div class=""stimulus-container"">
                    <img src=""images/schematic_sequence/dinner_party_scheme/dinner_party_scheme_4.png"" class=""exp-image"">
                    <div class=""question-area"">
                        <p style=""font-size: 20px; font-weight: bold; margin: 0;"">Is there a person in this image?</p>
                    </div>
                </div>","0","main_experiment_trial","4","dinner_party_scheme","schematic_sequence","chronological","","","","","","",""
"","","","","","html-keyboard-response","88","329491","0.0-88.0","BD829C455ECF44618E25144C1B8E8360","019cfc3d-f781-7ed1-a582-c2f468c0b49f","019cfc28-2143-7934-89cc-ce6402563331","","null","
                <div class=""stimulus-container"">
                    <img src=""images/schematic_sequence/dinner_party_scheme/dinner_party_scheme_5.png"" class=""exp-image"">
                    <div class=""question-area""></div> 
                </div>","null","","","","","","","","","","","",""
"","","","","","html-button-response","89","330206","0.0-89.0","BD829C455ECF44618E25144C1B8E8360","019cfc3d-f781-7ed1-a582-c2f468c0b49f","019cfc28-2143-7934-89cc-ce6402563331","","714","
                <div class=""stimulus-container"">
                    <img src=""images/schematic_sequence/dinner_party_scheme/dinner_party_scheme_5.png"" class=""exp-image"">
                    <div class=""question-area"">
                        <p style=""font-size: 20px; font-weight: bold; margin: 0;"">Is there a person in this image?</p>
                    </div>
                </div>","0","main_experiment_trial","5","dinner_party_scheme","schematic_sequence","chronological","","","","","","",""
"","","","","","html-keyboard-response","90","335207","0.0-90.0","BD829C455ECF44618E25144C1B8E8360","019cfc3d-f781-7ed1-a582-c2f468c0b49f","019cfc28-2143-7934-89cc-ce6402563331","","null","
                <div class=""stimulus-container"">
                    <img src=""images/schematic_sequence/dinner_party_scheme/dinner_party_scheme_6.png"" class=""exp-image"">
                    <div class=""question-area""></div> 
                </div>","null","","","","","","","","","","","",""
"","","","","","html-button-response","91","335823","0.0-91.0","BD829C455ECF44618E25144C1B8E8360","019cfc3d-f781-7ed1-a582-c2f468c0b49f","019cfc28-2143-7934-89cc-ce6402563331","","615","
                <div class=""stimulus-container"">
                    <img src=""images/schematic_sequence/dinner_party_scheme/dinner_party_scheme_6.png"" class=""exp-image"">
                    <div class=""question-area"">
                        <p style=""font-size: 20px; font-weight: bold; margin: 0;"">Is there a person in this image?</p>
                    </div>
                </div>","0","main_experiment_trial","6","dinner_party_scheme","schematic_sequence","chronological","","","","","","",""
"","","","","","html-keyboard-response","92","340824","0.0-92.0","BD829C455ECF44618E25144C1B8E8360","019cfc3d-f781-7ed1-a582-c2f468c0b49f","019cfc28-2143-7934-89cc-ce6402563331","","null","
                <div class=""stimulus-container"">
                    <img src=""images/schematic_sequence/dinner_party_scheme/dinner_party_scheme_7.png"" class=""exp-image"">
                    <div class=""question-area""></div> 
                </div>","null","","","","","","","","","","","",""
"","","","","","html-button-response","93","341381","0.0-93.0","BD829C455ECF44618E25144C1B8E8360","019cfc3d-f781-7ed1-a582-c2f468c0b49f","019cfc28-2143-7934-89cc-ce6402563331","","556","
                <div class=""stimulus-container"">
                    <img src=""images/schematic_sequence/dinner_party_scheme/dinner_party_scheme_7.png"" class=""exp-image"">
                    <div class=""question-area"">
                        <p style=""font-size: 20px; font-weight: bold; margin: 0;"">Is there a person in this image?</p>
                    </div>
                </div>","0","main_experiment_trial","7","dinner_party_scheme","schematic_sequence","chronological","","","","","","",""
"","","","","","html-keyboard-response","94","346382","0.0-94.0","BD829C455ECF44618E25144C1B8E8360","019cfc3d-f781-7ed1-a582-c2f468c0b49f","019cfc28-2143-7934-89cc-ce6402563331","","null","
                <div class=""stimulus-container"">
                    <img src=""images/schematic_sequence/dinner_party_scheme/dinner_party_scheme_8.png"" class=""exp-image"">
                    <div class=""question-area""></div> 
                </div>","null","","","","","","","","","","","",""
"","","","","","html-button-response","95","346795","0.0-95.0","BD829C455ECF44618E25144C1B8E8360","019cfc3d-f781-7ed1-a582-c2f468c0b49f","019cfc28-2143-7934-89cc-ce6402563331","","413","
                <div class=""stimulus-container"">
                    <img src=""images/schematic_sequence/dinner_party_scheme/dinner_party_scheme_8.png"" class=""exp-image"">
                    <div class=""question-area"">
                        <p style=""font-size: 20px; font-weight: bold; margin: 0;"">Is there a person in this image?</p>
                    </div>
                </div>","0","main_experiment_trial","8","dinner_party_scheme","schematic_sequence","chronological","","","","","","",""
"","","","","","html-keyboard-response","96","351797","0.0-96.0","BD829C455ECF44618E25144C1B8E8360","019cfc3d-f781-7ed1-a582-c2f468c0b49f","019cfc28-2143-7934-89cc-ce6402563331","","null","
                <div class=""stimulus-container"">
                    <img src=""images/schematic_sequence/dinner_party_scheme/dinner_party_scheme_9.png"" class=""exp-image"">
                    <div class=""question-area""></div> 
                </div>","null","","","","","","","","","","","",""
"","","","","","html-button-response","97","352518","0.0-97.0","BD829C455ECF44618E25144C1B8E8360","019cfc3d-f781-7ed1-a582-c2f468c0b49f","019cfc28-2143-7934-89cc-ce6402563331","","721","
                <div class=""stimulus-container"">
                    <img src=""images/schematic_sequence/dinner_party_scheme/dinner_party_scheme_9.png"" class=""exp-image"">
                    <div class=""question-area"">
                        <p style=""font-size: 20px; font-weight: bold; margin: 0;"">Is there a person in this image?</p>
                    </div>
                </div>","0","main_experiment_trial","9","dinner_party_scheme","schematic_sequence","chronological","","","","","","",""
"","","","","","html-keyboard-response","98","357520","0.0-98.0","BD829C455ECF44618E25144C1B8E8360","019cfc3d-f781-7ed1-a582-c2f468c0b49f","019cfc28-2143-7934-89cc-ce6402563331","","null","
                <div class=""stimulus-container"">
                    <img src=""images/schematic_sequence/dinner_party_scheme/dinner_party_scheme_ten.png"" class=""exp-image"">
                    <div class=""question-area""></div> 
                </div>","null","","","","","","","","","","","",""
"","","","","","html-button-response","99","357971","0.0-99.0","BD829C455ECF44618E25144C1B8E8360","019cfc3d-f781-7ed1-a582-c2f468c0b49f","019cfc28-2143-7934-89cc-ce6402563331","","451","
                <div class=""stimulus-container"">
                    <img src=""images/schematic_sequence/dinner_party_scheme/dinner_party_scheme_ten.png"" class=""exp-image"">
                    <div class=""question-area"">
                        <p style=""font-size: 20px; font-weight: bold; margin: 0;"">Is there a person in this image?</p>
                    </div>
                </div>","0","main_experiment_trial","ten","dinner_party_scheme","schematic_sequence","chronological","","","","","","",""
"","","","","","html-keyboard-response","100","362974","0.0-100.0","BD829C455ECF44618E25144C1B8E8360","019cfc3d-f781-7ed1-a582-c2f468c0b49f","019cfc28-2143-7934-89cc-ce6402563331","","null","<div style=""background-color: white; width: 100vw; height: 100vh;""></div>","null","","","","","","","","","","","",""
"","","","","","html-keyboard-response","101","367975","0.0-101.0","BD829C455ECF44618E25144C1B8E8360","019cfc3d-f781-7ed1-a582-c2f468c0b49f","019cfc28-2143-7934-89cc-ce6402563331","","null","
                <div class=""stimulus-container"">
                    <img src=""images/semantic_sequence/cat_care_semantic/cat_care_semantic_1.png"" class=""exp-image"">
                    <div class=""question-area""></div> 
                </div>","null","","","","","","","","","","","",""
"","","","","","html-button-response","102","368726","0.0-102.0","BD829C455ECF44618E25144C1B8E8360","019cfc3d-f781-7ed1-a582-c2f468c0b49f","019cfc28-2143-7934-89cc-ce6402563331","","751","
                <div class=""stimulus-container"">
                    <img src=""images/semantic_sequence/cat_care_semantic/cat_care_semantic_1.png"" class=""exp-image"">
                    <div class=""question-area"">
                        <p style=""font-size: 20px; font-weight: bold; margin: 0;"">Is there a person in this image?</p>
                    </div>
                </div>","0","main_experiment_trial","1","cat_care_semantic","semantic_sequence","chronological","","","","","","",""
"","","","","","html-keyboard-response","103","373727","0.0-103.0","BD829C455ECF44618E25144C1B8E8360","019cfc3d-f781-7ed1-a582-c2f468c0b49f","019cfc28-2143-7934-89cc-ce6402563331","","null","
                <div class=""stimulus-container"">
                    <img src=""images/semantic_sequence/cat_care_semantic/cat_care_semantic_2.png"" class=""exp-image"">
                    <div class=""question-area""></div> 
                </div>","null","","","","","","","","","","","",""
"","","","","","html-button-response","104","374359","0.0-104.0","BD829C455ECF44618E25144C1B8E8360","019cfc3d-f781-7ed1-a582-c2f468c0b49f","019cfc28-2143-7934-89cc-ce6402563331","","631","
                <div class=""stimulus-container"">
                    <img src=""images/semantic_sequence/cat_care_semantic/cat_care_semantic_2.png"" class=""exp-image"">
                    <div class=""question-area"">
                        <p style=""font-size: 20px; font-weight: bold; margin: 0;"">Is there a person in this image?</p>
                    </div>
                </div>","0","main_experiment_trial","2","cat_care_semantic","semantic_sequence","chronological","","","","","","",""
"","","","","","html-keyboard-response","105","379360","0.0-105.0","BD829C455ECF44618E25144C1B8E8360","019cfc3d-f781-7ed1-a582-c2f468c0b49f","019cfc28-2143-7934-89cc-ce6402563331","","null","
                <div class=""stimulus-container"">
                    <img src=""images/semantic_sequence/cat_care_semantic/cat_care_semantic_3.png"" class=""exp-image"">
                    <div class=""question-area""></div> 
                </div>","null","","","","","","","","","","","",""
"","","","","","html-button-response","106","379977","0.0-106.0","BD829C455ECF44618E25144C1B8E8360","019cfc3d-f781-7ed1-a582-c2f468c0b49f","019cfc28-2143-7934-89cc-ce6402563331","","616","
                <div class=""stimulus-container"">
                    <img src=""images/semantic_sequence/cat_care_semantic/cat_care_semantic_3.png"" class=""exp-image"">
                    <div class=""question-area"">
                        <p style=""font-size: 20px; font-weight: bold; margin: 0;"">Is there a person in this image?</p>
                    </div>
                </div>","0","main_experiment_trial","3","cat_care_semantic","semantic_sequence","chronological","","","","","","",""
"","","","","","html-keyboard-response","107","384978","0.0-107.0","BD829C455ECF44618E25144C1B8E8360","019cfc3d-f781-7ed1-a582-c2f468c0b49f","019cfc28-2143-7934-89cc-ce6402563331","","null","
                <div class=""stimulus-container"">
                    <img src=""images/semantic_sequence/cat_care_semantic/cat_care_semantic_4.png"" class=""exp-image"">
                    <div class=""question-area""></div> 
                </div>","null","","","","","","","","","","","",""
"","","","","","html-button-response","108","386291","0.0-108.0","BD829C455ECF44618E25144C1B8E8360","019cfc3d-f781-7ed1-a582-c2f468c0b49f","019cfc28-2143-7934-89cc-ce6402563331","","1313","
                <div class=""stimulus-container"">
                    <img src=""images/semantic_sequence/cat_care_semantic/cat_care_semantic_4.png"" class=""exp-image"">
                    <div class=""question-area"">
                        <p style=""font-size: 20px; font-weight: bold; margin: 0;"">Is there a person in this image?</p>
                    </div>
                </div>","0","main_experiment_trial","4","cat_care_semantic","semantic_sequence","chronological","","","","","","",""
"","","","","","html-keyboard-response","109","391293","0.0-109.0","BD829C455ECF44618E25144C1B8E8360","019cfc3d-f781-7ed1-a582-c2f468c0b49f","019cfc28-2143-7934-89cc-ce6402563331","","null","
                <div class=""stimulus-container"">
                    <img src=""images/semantic_sequence/cat_care_semantic/cat_care_semantic_5.png"" class=""exp-image"">
                    <div class=""question-area""></div> 
                </div>","null","","","","","","","","","","","",""
"","","","","","html-button-response","110","392583","0.0-110.0","BD829C455ECF44618E25144C1B8E8360","019cfc3d-f781-7ed1-a582-c2f468c0b49f","019cfc28-2143-7934-89cc-ce6402563331","","1290","
                <div class=""stimulus-container"">
                    <img src=""images/semantic_sequence/cat_care_semantic/cat_care_semantic_5.png"" class=""exp-image"">
                    <div class=""question-area"">
                        <p style=""font-size: 20px; font-weight: bold; margin: 0;"">Is there a person in this image?</p>
                    </div>
                </div>","0","main_experiment_trial","5","cat_care_semantic","semantic_sequence","chronological","","","","","","",""
"","","","","","html-keyboard-response","111","397585","0.0-111.0","BD829C455ECF44618E25144C1B8E8360","019cfc3d-f781-7ed1-a582-c2f468c0b49f","019cfc28-2143-7934-89cc-ce6402563331","","null","
                <div class=""stimulus-container"">
                    <img src=""images/semantic_sequence/cat_care_semantic/cat_care_semantic_6.png"" class=""exp-image"">
                    <div class=""question-area""></div> 
                </div>","null","","","","","","","","","","","",""
"","","","","","html-button-response","112","399011","0.0-112.0","BD829C455ECF44618E25144C1B8E8360","019cfc3d-f781-7ed1-a582-c2f468c0b49f","019cfc28-2143-7934-89cc-ce6402563331","","1426","
                <div class=""stimulus-container"">
                    <img src=""images/semantic_sequence/cat_care_semantic/cat_care_semantic_6.png"" class=""exp-image"">
                    <div class=""question-area"">
                        <p style=""font-size: 20px; font-weight: bold; margin: 0;"">Is there a person in this image?</p>
                    </div>
                </div>","0","main_experiment_trial","6","cat_care_semantic","semantic_sequence","chronological","","","","","","",""
"","","","","","html-keyboard-response","113","404012","0.0-113.0","BD829C455ECF44618E25144C1B8E8360","019cfc3d-f781-7ed1-a582-c2f468c0b49f","019cfc28-2143-7934-89cc-ce6402563331","","null","
                <div class=""stimulus-container"">
                    <img src=""images/semantic_sequence/cat_care_semantic/cat_care_semantic_7.png"" class=""exp-image"">
                    <div class=""question-area""></div> 
                </div>","null","","","","","","","","","","","",""
"","","","","","html-button-response","114","405560","0.0-114.0","BD829C455ECF44618E25144C1B8E8360","019cfc3d-f781-7ed1-a582-c2f468c0b49f","019cfc28-2143-7934-89cc-ce6402563331","","1547","
                <div class=""stimulus-container"">
                    <img src=""images/semantic_sequence/cat_care_semantic/cat_care_semantic_7.png"" class=""exp-image"">
                    <div class=""question-area"">
                        <p style=""font-size: 20px; font-weight: bold; margin: 0;"">Is there a person in this image?</p>
                    </div>
                </div>","0","main_experiment_trial","7","cat_care_semantic","semantic_sequence","chronological","","","","","","",""
"","","","","","html-keyboard-response","115","410561","0.0-115.0","BD829C455ECF44618E25144C1B8E8360","019cfc3d-f781-7ed1-a582-c2f468c0b49f","019cfc28-2143-7934-89cc-ce6402563331","","null","
                <div class=""stimulus-container"">
                    <img src=""images/semantic_sequence/cat_care_semantic/cat_care_semantic_8.png"" class=""exp-image"">
                    <div class=""question-area""></div> 
                </div>","null","","","","","","","","","","","",""
"","","","","","html-button-response","116","411140","0.0-116.0","BD829C455ECF44618E25144C1B8E8360","019cfc3d-f781-7ed1-a582-c2f468c0b49f","019cfc28-2143-7934-89cc-ce6402563331","","578","
                <div class=""stimulus-container"">
                    <img src=""images/semantic_sequence/cat_care_semantic/cat_care_semantic_8.png"" class=""exp-image"">
                    <div class=""question-area"">
                        <p style=""font-size: 20px; font-weight: bold; margin: 0;"">Is there a person in this image?</p>
                    </div>
                </div>","0","main_experiment_trial","8","cat_care_semantic","semantic_sequence","chronological","","","","","","",""
"","","","","","html-keyboard-response","117","416141","0.0-117.0","BD829C455ECF44618E25144C1B8E8360","019cfc3d-f781-7ed1-a582-c2f468c0b49f","019cfc28-2143-7934-89cc-ce6402563331","","null","
                <div class=""stimulus-container"">
                    <img src=""images/semantic_sequence/cat_care_semantic/cat_care_semantic_9.png"" class=""exp-image"">
                    <div class=""question-area""></div> 
                </div>","null","","","","","","","","","","","",""
"","","","","","html-button-response","118","417043","0.0-118.0","BD829C455ECF44618E25144C1B8E8360","019cfc3d-f781-7ed1-a582-c2f468c0b49f","019cfc28-2143-7934-89cc-ce6402563331","","901","
                <div class=""stimulus-container"">
                    <img src=""images/semantic_sequence/cat_care_semantic/cat_care_semantic_9.png"" class=""exp-image"">
                    <div class=""question-area"">
                        <p style=""font-size: 20px; font-weight: bold; margin: 0;"">Is there a person in this image?</p>
                    </div>
                </div>","0","main_experiment_trial","9","cat_care_semantic","semantic_sequence","chronological","","","","","","",""
"","","","","","html-keyboard-response","119","422045","0.0-119.0","BD829C455ECF44618E25144C1B8E8360","019cfc3d-f781-7ed1-a582-c2f468c0b49f","019cfc28-2143-7934-89cc-ce6402563331","","null","
                <div class=""stimulus-container"">
                    <img src=""images/semantic_sequence/cat_care_semantic/cat_care_semantic_ten.png"" class=""exp-image"">
                    <div class=""question-area""></div> 
                </div>","null","","","","","","","","","","","",""
"","","","","","html-button-response","120","422645","0.0-120.0","BD829C455ECF44618E25144C1B8E8360","019cfc3d-f781-7ed1-a582-c2f468c0b49f","019cfc28-2143-7934-89cc-ce6402563331","","599","
                <div class=""stimulus-container"">
                    <img src=""images/semantic_sequence/cat_care_semantic/cat_care_semantic_ten.png"" class=""exp-image"">
                    <div class=""question-area"">
                        <p style=""font-size: 20px; font-weight: bold; margin: 0;"">Is there a person in this image?</p>
                    </div>
                </div>","1","main_experiment_trial","ten","cat_care_semantic","semantic_sequence","chronological","","","","","","",""
"","","","","","html-keyboard-response","121","427647","0.0-121.0","BD829C455ECF44618E25144C1B8E8360","019cfc3d-f781-7ed1-a582-c2f468c0b49f","019cfc28-2143-7934-89cc-ce6402563331","","null","<div style=""background-color: white; width: 100vw; height: 100vh;""></div>","null","","","","","","","","","","","",""
"","","","","","html-keyboard-response","122","432649","0.0-122.0","BD829C455ECF44618E25144C1B8E8360","019cfc3d-f781-7ed1-a582-c2f468c0b49f","019cfc28-2143-7934-89cc-ce6402563331","","null","
                <div class=""stimulus-container"">
                    <img src=""images/schematic_sequence/restaurant_scheme/restaurant_scheme_1.png"" class=""exp-image"">
                    <div class=""question-area""></div> 
                </div>","null","","","","","","","","","","","",""
"","","","","","html-button-response","123","433566","0.0-123.0","BD829C455ECF44618E25144C1B8E8360","019cfc3d-f781-7ed1-a582-c2f468c0b49f","019cfc28-2143-7934-89cc-ce6402563331","","916","
                <div class=""stimulus-container"">
                    <img src=""images/schematic_sequence/restaurant_scheme/restaurant_scheme_1.png"" class=""exp-image"">
                    <div class=""question-area"">
                        <p style=""font-size: 20px; font-weight: bold; margin: 0;"">Is there a person in this image?</p>
                    </div>
                </div>","0","main_experiment_trial","1","restaurant_scheme","schematic_sequence","chronological","","","","","","",""
"","","","","","html-keyboard-response","124","438567","0.0-124.0","BD829C455ECF44618E25144C1B8E8360","019cfc3d-f781-7ed1-a582-c2f468c0b49f","019cfc28-2143-7934-89cc-ce6402563331","","null","
                <div class=""stimulus-container"">
                    <img src=""images/schematic_sequence/restaurant_scheme/restaurant_scheme_2.png"" class=""exp-image"">
                    <div class=""question-area""></div> 
                </div>","null","","","","","","","","","","","",""
"","","","","","html-button-response","125","439242","0.0-125.0","BD829C455ECF44618E25144C1B8E8360","019cfc3d-f781-7ed1-a582-c2f468c0b49f","019cfc28-2143-7934-89cc-ce6402563331","","675","
                <div class=""stimulus-container"">
                    <img src=""images/schematic_sequence/restaurant_scheme/restaurant_scheme_2.png"" class=""exp-image"">
                    <div class=""question-area"">
                        <p style=""font-size: 20px; font-weight: bold; margin: 0;"">Is there a person in this image?</p>
                    </div>
                </div>","1","main_experiment_trial","2","restaurant_scheme","schematic_sequence","chronological","","","","","","",""
"","","","","","html-keyboard-response","126","444244","0.0-126.0","BD829C455ECF44618E25144C1B8E8360","019cfc3d-f781-7ed1-a582-c2f468c0b49f","019cfc28-2143-7934-89cc-ce6402563331","","null","
                <div class=""stimulus-container"">
                    <img src=""images/schematic_sequence/restaurant_scheme/restaurant_scheme_3.png"" class=""exp-image"">
                    <div class=""question-area""></div> 
                </div>","null","","","","","","","","","","","",""
"","","","","","html-button-response","127","444905","0.0-127.0","BD829C455ECF44618E25144C1B8E8360","019cfc3d-f781-7ed1-a582-c2f468c0b49f","019cfc28-2143-7934-89cc-ce6402563331","","661","
                <div class=""stimulus-container"">
                    <img src=""images/schematic_sequence/restaurant_scheme/restaurant_scheme_3.png"" class=""exp-image"">
                    <div class=""question-area"">
                        <p style=""font-size: 20px; font-weight: bold; margin: 0;"">Is there a person in this image?</p>
                    </div>
                </div>","1","main_experiment_trial","3","restaurant_scheme","schematic_sequence","chronological","","","","","","",""
"","","","","","html-keyboard-response","128","449908","0.0-128.0","BD829C455ECF44618E25144C1B8E8360","019cfc3d-f781-7ed1-a582-c2f468c0b49f","019cfc28-2143-7934-89cc-ce6402563331","","null","
                <div class=""stimulus-container"">
                    <img src=""images/schematic_sequence/restaurant_scheme/restaurant_scheme_4.png"" class=""exp-image"">
                    <div class=""question-area""></div> 
                </div>","null","","","","","","","","","","","",""
"","","","","","html-button-response","129","450546","0.0-129.0","BD829C455ECF44618E25144C1B8E8360","019cfc3d-f781-7ed1-a582-c2f468c0b49f","019cfc28-2143-7934-89cc-ce6402563331","","638","
                <div class=""stimulus-container"">
                    <img src=""images/schematic_sequence/restaurant_scheme/restaurant_scheme_4.png"" class=""exp-image"">
                    <div class=""question-area"">
                        <p style=""font-size: 20px; font-weight: bold; margin: 0;"">Is there a person in this image?</p>
                    </div>
                </div>","0","main_experiment_trial","4","restaurant_scheme","schematic_sequence","chronological","","","","","","",""
"","","","","","html-keyboard-response","130","455548","0.0-130.0","BD829C455ECF44618E25144C1B8E8360","019cfc3d-f781-7ed1-a582-c2f468c0b49f","019cfc28-2143-7934-89cc-ce6402563331","","null","
                <div class=""stimulus-container"">
                    <img src=""images/schematic_sequence/restaurant_scheme/restaurant_scheme_5.png"" class=""exp-image"">
                    <div class=""question-area""></div> 
                </div>","null","","","","","","","","","","","",""
"","","","","","html-button-response","131","457484","0.0-131.0","BD829C455ECF44618E25144C1B8E8360","019cfc3d-f781-7ed1-a582-c2f468c0b49f","019cfc28-2143-7934-89cc-ce6402563331","","1935","
                <div class=""stimulus-container"">
                    <img src=""images/schematic_sequence/restaurant_scheme/restaurant_scheme_5.png"" class=""exp-image"">
                    <div class=""question-area"">
                        <p style=""font-size: 20px; font-weight: bold; margin: 0;"">Is there a person in this image?</p>
                    </div>
                </div>","0","main_experiment_trial","5","restaurant_scheme","schematic_sequence","chronological","","","","","","",""
"","","","","","html-keyboard-response","132","462485","0.0-132.0","BD829C455ECF44618E25144C1B8E8360","019cfc3d-f781-7ed1-a582-c2f468c0b49f","019cfc28-2143-7934-89cc-ce6402563331","","null","
                <div class=""stimulus-container"">
                    <img src=""images/schematic_sequence/restaurant_scheme/restaurant_scheme_6.png"" class=""exp-image"">
                    <div class=""question-area""></div> 
                </div>","null","","","","","","","","","","","",""
"","","","","","html-button-response","133","463927","0.0-133.0","BD829C455ECF44618E25144C1B8E8360","019cfc3d-f781-7ed1-a582-c2f468c0b49f","019cfc28-2143-7934-89cc-ce6402563331","","1442","
                <div class=""stimulus-container"">
                    <img src=""images/schematic_sequence/restaurant_scheme/restaurant_scheme_6.png"" class=""exp-image"">
                    <div class=""question-area"">
                        <p style=""font-size: 20px; font-weight: bold; margin: 0;"">Is there a person in this image?</p>
                    </div>
                </div>","1","main_experiment_trial","6","restaurant_scheme","schematic_sequence","chronological","","","","","","",""
"","","","","","html-keyboard-response","134","468929","0.0-134.0","BD829C455ECF44618E25144C1B8E8360","019cfc3d-f781-7ed1-a582-c2f468c0b49f","019cfc28-2143-7934-89cc-ce6402563331","","null","
                <div class=""stimulus-container"">
                    <img src=""images/schematic_sequence/restaurant_scheme/restaurant_scheme_7.png"" class=""exp-image"">
                    <div class=""question-area""></div> 
                </div>","null","","","","","","","","","","","",""
"","","","","","html-button-response","135","471930","0.0-135.0","BD829C455ECF44618E25144C1B8E8360","019cfc3d-f781-7ed1-a582-c2f468c0b49f","019cfc28-2143-7934-89cc-ce6402563331","","null","
                <div class=""stimulus-container"">
                    <img src=""images/schematic_sequence/restaurant_scheme/restaurant_scheme_7.png"" class=""exp-image"">
                    <div class=""question-area"">
                        <p style=""font-size: 20px; font-weight: bold; margin: 0;"">Is there a person in this image?</p>
                    </div>
                </div>","null","main_experiment_trial","7","restaurant_scheme","schematic_sequence","chronological","","","","","","",""
"","","","","","html-keyboard-response","136","476932","0.0-136.0","BD829C455ECF44618E25144C1B8E8360","019cfc3d-f781-7ed1-a582-c2f468c0b49f","019cfc28-2143-7934-89cc-ce6402563331","","null","
                <div class=""stimulus-container"">
                    <img src=""images/schematic_sequence/restaurant_scheme/restaurant_scheme_8.png"" class=""exp-image"">
                    <div class=""question-area""></div> 
                </div>","null","","","","","","","","","","","",""
"","","","","","html-button-response","137","477690","0.0-137.0","BD829C455ECF44618E25144C1B8E8360","019cfc3d-f781-7ed1-a582-c2f468c0b49f","019cfc28-2143-7934-89cc-ce6402563331","","758","
                <div class=""stimulus-container"">
                    <img src=""images/schematic_sequence/restaurant_scheme/restaurant_scheme_8.png"" class=""exp-image"">
                    <div class=""question-area"">
                        <p style=""font-size: 20px; font-weight: bold; margin: 0;"">Is there a person in this image?</p>
                    </div>
                </div>","0","main_experiment_trial","8","restaurant_scheme","schematic_sequence","chronological","","","","","","",""
"","","","","","html-keyboard-response","138","482691","0.0-138.0","BD829C455ECF44618E25144C1B8E8360","019cfc3d-f781-7ed1-a582-c2f468c0b49f","019cfc28-2143-7934-89cc-ce6402563331","","null","
                <div class=""stimulus-container"">
                    <img src=""images/schematic_sequence/restaurant_scheme/restaurant_scheme_9.png"" class=""exp-image"">
                    <div class=""question-area""></div> 
                </div>","null","","","","","","","","","","","",""
"","","","","","html-button-response","139","483479","0.0-139.0","BD829C455ECF44618E25144C1B8E8360","019cfc3d-f781-7ed1-a582-c2f468c0b49f","019cfc28-2143-7934-89cc-ce6402563331","","788","
                <div class=""stimulus-container"">
                    <img src=""images/schematic_sequence/restaurant_scheme/restaurant_scheme_9.png"" class=""exp-image"">
                    <div class=""question-area"">
                        <p style=""font-size: 20px; font-weight: bold; margin: 0;"">Is there a person in this image?</p>
                    </div>
                </div>","0","main_experiment_trial","9","restaurant_scheme","schematic_sequence","chronological","","","","","","",""
"","","","","","html-keyboard-response","140","488480","0.0-140.0","BD829C455ECF44618E25144C1B8E8360","019cfc3d-f781-7ed1-a582-c2f468c0b49f","019cfc28-2143-7934-89cc-ce6402563331","","null","
                <div class=""stimulus-container"">
                    <img src=""images/schematic_sequence/restaurant_scheme/restaurant_scheme_ten.png"" class=""exp-image"">
                    <div class=""question-area""></div> 
                </div>","null","","","","","","","","","","","",""
"","","","","","html-button-response","141","489202","0.0-141.0","BD829C455ECF44618E25144C1B8E8360","019cfc3d-f781-7ed1-a582-c2f468c0b49f","019cfc28-2143-7934-89cc-ce6402563331","","721","
                <div class=""stimulus-container"">
                    <img src=""images/schematic_sequence/restaurant_scheme/restaurant_scheme_ten.png"" class=""exp-image"">
                    <div class=""question-area"">
                        <p style=""font-size: 20px; font-weight: bold; margin: 0;"">Is there a person in this image?</p>
                    </div>
                </div>","0","main_experiment_trial","ten","restaurant_scheme","schematic_sequence","chronological","","","","","","",""
"","","","","","html-keyboard-response","142","494203","0.0-142.0","BD829C455ECF44618E25144C1B8E8360","019cfc3d-f781-7ed1-a582-c2f468c0b49f","019cfc28-2143-7934-89cc-ce6402563331","","null","<div style=""background-color: white; width: 100vw; height: 100vh;""></div>","null","","","","","","","","","","","",""
"","","","","","html-keyboard-response","143","499206","0.0-143.0","BD829C455ECF44618E25144C1B8E8360","019cfc3d-f781-7ed1-a582-c2f468c0b49f","019cfc28-2143-7934-89cc-ce6402563331","","null","
                <div class=""stimulus-container"">
                    <img src=""images/semantic_sequence/creative_activities_semantic/creative_activities_semantic_1.png"" class=""exp-image"">
                    <div class=""question-area""></div> 
                </div>","null","","","","","","","","","","","",""
"","","","","","html-button-response","144","499830","0.0-144.0","BD829C455ECF44618E25144C1B8E8360","019cfc3d-f781-7ed1-a582-c2f468c0b49f","019cfc28-2143-7934-89cc-ce6402563331","","624","
                <div class=""stimulus-container"">
                    <img src=""images/semantic_sequence/creative_activities_semantic/creative_activities_semantic_1.png"" class=""exp-image"">
                    <div class=""question-area"">
                        <p style=""font-size: 20px; font-weight: bold; margin: 0;"">Is there a person in this image?</p>
                    </div>
                </div>","0","main_experiment_trial","1","creative_activities_semantic","semantic_sequence","chronological","","","","","","",""
"","","","","","html-keyboard-response","145","504832","0.0-145.0","BD829C455ECF44618E25144C1B8E8360","019cfc3d-f781-7ed1-a582-c2f468c0b49f","019cfc28-2143-7934-89cc-ce6402563331","","null","
                <div class=""stimulus-container"">
                    <img src=""images/semantic_sequence/creative_activities_semantic/creative_activities_semantic_2.png"" class=""exp-image"">
                    <div class=""question-area""></div> 
                </div>","null","","","","","","","","","","","",""
"","","","","","html-button-response","146","505605","0.0-146.0","BD829C455ECF44618E25144C1B8E8360","019cfc3d-f781-7ed1-a582-c2f468c0b49f","019cfc28-2143-7934-89cc-ce6402563331","","772","
                <div class=""stimulus-container"">
                    <img src=""images/semantic_sequence/creative_activities_semantic/creative_activities_semantic_2.png"" class=""exp-image"">
                    <div class=""question-area"">
                        <p style=""font-size: 20px; font-weight: bold; margin: 0;"">Is there a person in this image?</p>
                    </div>
                </div>","0","main_experiment_trial","2","creative_activities_semantic","semantic_sequence","chronological","","","","","","",""
"","","","","","html-keyboard-response","147","510606","0.0-147.0","BD829C455ECF44618E25144C1B8E8360","019cfc3d-f781-7ed1-a582-c2f468c0b49f","019cfc28-2143-7934-89cc-ce6402563331","","null","
                <div class=""stimulus-container"">
                    <img src=""images/semantic_sequence/creative_activities_semantic/creative_activities_semantic_3.png"" class=""exp-image"">
                    <div class=""question-area""></div> 
                </div>","null","","","","","","","","","","","",""
"","","","","","html-button-response","148","511485","0.0-148.0","BD829C455ECF44618E25144C1B8E8360","019cfc3d-f781-7ed1-a582-c2f468c0b49f","019cfc28-2143-7934-89cc-ce6402563331","","878","
                <div class=""stimulus-container"">
                    <img src=""images/semantic_sequence/creative_activities_semantic/creative_activities_semantic_3.png"" class=""exp-image"">
                    <div class=""question-area"">
                        <p style=""font-size: 20px; font-weight: bold; margin: 0;"">Is there a person in this image?</p>
                    </div>
                </div>","0","main_experiment_trial","3","creative_activities_semantic","semantic_sequence","chronological","","","","","","",""
"","","","","","html-keyboard-response","149","516485","0.0-149.0","BD829C455ECF44618E25144C1B8E8360","019cfc3d-f781-7ed1-a582-c2f468c0b49f","019cfc28-2143-7934-89cc-ce6402563331","","null","
                <div class=""stimulus-container"">
                    <img src=""images/semantic_sequence/creative_activities_semantic/creative_activities_semantic_4.png"" class=""exp-image"">
                    <div class=""question-area""></div> 
                </div>","null","","","","","","","","","","","",""
"","","","","","html-button-response","150","517163","0.0-150.0","BD829C455ECF44618E25144C1B8E8360","019cfc3d-f781-7ed1-a582-c2f468c0b49f","019cfc28-2143-7934-89cc-ce6402563331","","677","
                <div class=""stimulus-container"">
                    <img src=""images/semantic_sequence/creative_activities_semantic/creative_activities_semantic_4.png"" class=""exp-image"">
                    <div class=""question-area"">
                        <p style=""font-size: 20px; font-weight: bold; margin: 0;"">Is there a person in this image?</p>
                    </div>
                </div>","0","main_experiment_trial","4","creative_activities_semantic","semantic_sequence","chronological","","","","","","",""
"","","","","","html-keyboard-response","151","522164","0.0-151.0","BD829C455ECF44618E25144C1B8E8360","019cfc3d-f781-7ed1-a582-c2f468c0b49f","019cfc28-2143-7934-89cc-ce6402563331","","null","
                <div class=""stimulus-container"">
                    <img src=""images/semantic_sequence/creative_activities_semantic/creative_activities_semantic_5.png"" class=""exp-image"">
                    <div class=""question-area""></div> 
                </div>","null","","","","","","","","","","","",""
"","","","","","html-button-response","152","522833","0.0-152.0","BD829C455ECF44618E25144C1B8E8360","019cfc3d-f781-7ed1-a582-c2f468c0b49f","019cfc28-2143-7934-89cc-ce6402563331","","668","
                <div class=""stimulus-container"">
                    <img src=""images/semantic_sequence/creative_activities_semantic/creative_activities_semantic_5.png"" class=""exp-image"">
                    <div class=""question-area"">
                        <p style=""font-size: 20px; font-weight: bold; margin: 0;"">Is there a person in this image?</p>
                    </div>
                </div>","0","main_experiment_trial","5","creative_activities_semantic","semantic_sequence","chronological","","","","","","",""
"","","","","","html-keyboard-response","153","527834","0.0-153.0","BD829C455ECF44618E25144C1B8E8360","019cfc3d-f781-7ed1-a582-c2f468c0b49f","019cfc28-2143-7934-89cc-ce6402563331","","null","
                <div class=""stimulus-container"">
                    <img src=""images/semantic_sequence/creative_activities_semantic/creative_activities_semantic_6.png"" class=""exp-image"">
                    <div class=""question-area""></div> 
                </div>","null","","","","","","","","","","","",""
"","","","","","html-button-response","154","528539","0.0-154.0","BD829C455ECF44618E25144C1B8E8360","019cfc3d-f781-7ed1-a582-c2f468c0b49f","019cfc28-2143-7934-89cc-ce6402563331","","704","
                <div class=""stimulus-container"">
                    <img src=""images/semantic_sequence/creative_activities_semantic/creative_activities_semantic_6.png"" class=""exp-image"">
                    <div class=""question-area"">
                        <p style=""font-size: 20px; font-weight: bold; margin: 0;"">Is there a person in this image?</p>
                    </div>
                </div>","0","main_experiment_trial","6","creative_activities_semantic","semantic_sequence","chronological","","","","","","",""
"","","","","","html-keyboard-response","155","533540","0.0-155.0","BD829C455ECF44618E25144C1B8E8360","019cfc3d-f781-7ed1-a582-c2f468c0b49f","019cfc28-2143-7934-89cc-ce6402563331","","null","
                <div class=""stimulus-container"">
                    <img src=""images/semantic_sequence/creative_activities_semantic/creative_activities_semantic_7.png"" class=""exp-image"">
                    <div class=""question-area""></div> 
                </div>","null","","","","","","","","","","","",""
"","","","","","html-button-response","156","534150","0.0-156.0","BD829C455ECF44618E25144C1B8E8360","019cfc3d-f781-7ed1-a582-c2f468c0b49f","019cfc28-2143-7934-89cc-ce6402563331","","609","
                <div class=""stimulus-container"">
                    <img src=""images/semantic_sequence/creative_activities_semantic/creative_activities_semantic_7.png"" class=""exp-image"">
                    <div class=""question-area"">
                        <p style=""font-size: 20px; font-weight: bold; margin: 0;"">Is there a person in this image?</p>
                    </div>
                </div>","0","main_experiment_trial","7","creative_activities_semantic","semantic_sequence","chronological","","","","","","",""
"","","","","","html-keyboard-response","157","539151","0.0-157.0","BD829C455ECF44618E25144C1B8E8360","019cfc3d-f781-7ed1-a582-c2f468c0b49f","019cfc28-2143-7934-89cc-ce6402563331","","null","
                <div class=""stimulus-container"">
                    <img src=""images/semantic_sequence/creative_activities_semantic/creative_activities_semantic_8.png"" class=""exp-image"">
                    <div class=""question-area""></div> 
                </div>","null","","","","","","","","","","","",""
"","","","","","html-button-response","158","539692","0.0-158.0","BD829C455ECF44618E25144C1B8E8360","019cfc3d-f781-7ed1-a582-c2f468c0b49f","019cfc28-2143-7934-89cc-ce6402563331","","541","
                <div class=""stimulus-container"">
                    <img src=""images/semantic_sequence/creative_activities_semantic/creative_activities_semantic_8.png"" class=""exp-image"">
                    <div class=""question-area"">
                        <p style=""font-size: 20px; font-weight: bold; margin: 0;"">Is there a person in this image?</p>
                    </div>
                </div>","0","main_experiment_trial","8","creative_activities_semantic","semantic_sequence","chronological","","","","","","",""
"","","","","","html-keyboard-response","159","544695","0.0-159.0","BD829C455ECF44618E25144C1B8E8360","019cfc3d-f781-7ed1-a582-c2f468c0b49f","019cfc28-2143-7934-89cc-ce6402563331","","null","
                <div class=""stimulus-container"">
                    <img src=""images/semantic_sequence/creative_activities_semantic/creative_activities_semantic_9.png"" class=""exp-image"">
                    <div class=""question-area""></div> 
                </div>","null","","","","","","","","","","","",""
"","","","","","html-button-response","160","545235","0.0-160.0","BD829C455ECF44618E25144C1B8E8360","019cfc3d-f781-7ed1-a582-c2f468c0b49f","019cfc28-2143-7934-89cc-ce6402563331","","540","
                <div class=""stimulus-container"">
                    <img src=""images/semantic_sequence/creative_activities_semantic/creative_activities_semantic_9.png"" class=""exp-image"">
                    <div class=""question-area"">
                        <p style=""font-size: 20px; font-weight: bold; margin: 0;"">Is there a person in this image?</p>
                    </div>
                </div>","0","main_experiment_trial","9","creative_activities_semantic","semantic_sequence","chronological","","","","","","",""
"","","","","","html-keyboard-response","161","550237","0.0-161.0","BD829C455ECF44618E25144C1B8E8360","019cfc3d-f781-7ed1-a582-c2f468c0b49f","019cfc28-2143-7934-89cc-ce6402563331","","null","
                <div class=""stimulus-container"">
                    <img src=""images/semantic_sequence/creative_activities_semantic/creative_activities_semantic_ten.png"" class=""exp-image"">
                    <div class=""question-area""></div> 
                </div>","null","","","","","","","","","","","",""
"","","","","","html-button-response","162","550853","0.0-162.0","BD829C455ECF44618E25144C1B8E8360","019cfc3d-f781-7ed1-a582-c2f468c0b49f","019cfc28-2143-7934-89cc-ce6402563331","","616","
                <div class=""stimulus-container"">
                    <img src=""images/semantic_sequence/creative_activities_semantic/creative_activities_semantic_ten.png"" class=""exp-image"">
                    <div class=""question-area"">
                        <p style=""font-size: 20px; font-weight: bold; margin: 0;"">Is there a person in this image?</p>
                    </div>
                </div>","0","main_experiment_trial","ten","creative_activities_semantic","semantic_sequence","chronological","","","","","","",""
"","","","","","html-keyboard-response","163","555854","0.0-163.0","BD829C455ECF44618E25144C1B8E8360","019cfc3d-f781-7ed1-a582-c2f468c0b49f","019cfc28-2143-7934-89cc-ce6402563331","","null","<div style=""background-color: white; width: 100vw; height: 100vh;""></div>","null","","","","","","","","","","","",""
"","","","","","html-keyboard-response","164","560856","0.0-164.0","BD829C455ECF44618E25144C1B8E8360","019cfc3d-f781-7ed1-a582-c2f468c0b49f","019cfc28-2143-7934-89cc-ce6402563331","","null","
                <div class=""stimulus-container"">
                    <img src=""images/semantic_sequence/maintaining_a_car_semantic/maintaining_a_car_semantic_1.png"" class=""exp-image"">
                    <div class=""question-area""></div> 
                </div>","null","","","","","","","","","","","",""
"","","","","","html-button-response","165","561554","0.0-165.0","BD829C455ECF44618E25144C1B8E8360","019cfc3d-f781-7ed1-a582-c2f468c0b49f","019cfc28-2143-7934-89cc-ce6402563331","","698","
                <div class=""stimulus-container"">
                    <img src=""images/semantic_sequence/maintaining_a_car_semantic/maintaining_a_car_semantic_1.png"" class=""exp-image"">
                    <div class=""question-area"">
                        <p style=""font-size: 20px; font-weight: bold; margin: 0;"">Is there a person in this image?</p>
                    </div>
                </div>","0","main_experiment_trial","1","maintaining_a_car_semantic","semantic_sequence","chronological","","","","","","",""
"","","","","","html-keyboard-response","166","566556","0.0-166.0","BD829C455ECF44618E25144C1B8E8360","019cfc3d-f781-7ed1-a582-c2f468c0b49f","019cfc28-2143-7934-89cc-ce6402563331","","null","
                <div class=""stimulus-container"">
                    <img src=""images/semantic_sequence/maintaining_a_car_semantic/maintaining_a_car_semantic_2.png"" class=""exp-image"">
                    <div class=""question-area""></div> 
                </div>","null","","","","","","","","","","","",""
"","","","","","html-button-response","167","568139","0.0-167.0","BD829C455ECF44618E25144C1B8E8360","019cfc3d-f781-7ed1-a582-c2f468c0b49f","019cfc28-2143-7934-89cc-ce6402563331","","1582","
                <div class=""stimulus-container"">
                    <img src=""images/semantic_sequence/maintaining_a_car_semantic/maintaining_a_car_semantic_2.png"" class=""exp-image"">
                    <div class=""question-area"">
                        <p style=""font-size: 20px; font-weight: bold; margin: 0;"">Is there a person in this image?</p>
                    </div>
                </div>","0","main_experiment_trial","2","maintaining_a_car_semantic","semantic_sequence","chronological","","","","","","",""
"","","","","","html-keyboard-response","168","573141","0.0-168.0","BD829C455ECF44618E25144C1B8E8360","019cfc3d-f781-7ed1-a582-c2f468c0b49f","019cfc28-2143-7934-89cc-ce6402563331","","null","
                <div class=""stimulus-container"">
                    <img src=""images/semantic_sequence/maintaining_a_car_semantic/maintaining_a_car_semantic_3.png"" class=""exp-image"">
                    <div class=""question-area""></div> 
                </div>","null","","","","","","","","","","","",""
"","","","","","html-button-response","169","574177","0.0-169.0","BD829C455ECF44618E25144C1B8E8360","019cfc3d-f781-7ed1-a582-c2f468c0b49f","019cfc28-2143-7934-89cc-ce6402563331","","1036","
                <div class=""stimulus-container"">
                    <img src=""images/semantic_sequence/maintaining_a_car_semantic/maintaining_a_car_semantic_3.png"" class=""exp-image"">
                    <div class=""question-area"">
                        <p style=""font-size: 20px; font-weight: bold; margin: 0;"">Is there a person in this image?</p>
                    </div>
                </div>","0","main_experiment_trial","3","maintaining_a_car_semantic","semantic_sequence","chronological","","","","","","",""
"","","","","","html-keyboard-response","170","579179","0.0-170.0","BD829C455ECF44618E25144C1B8E8360","019cfc3d-f781-7ed1-a582-c2f468c0b49f","019cfc28-2143-7934-89cc-ce6402563331","","null","
                <div class=""stimulus-container"">
                    <img src=""images/semantic_sequence/maintaining_a_car_semantic/maintaining_a_car_semantic_4.png"" class=""exp-image"">
                    <div class=""question-area""></div> 
                </div>","null","","","","","","","","","","","",""
"","","","","","html-button-response","171","579848","0.0-171.0","BD829C455ECF44618E25144C1B8E8360","019cfc3d-f781-7ed1-a582-c2f468c0b49f","019cfc28-2143-7934-89cc-ce6402563331","","669","
                <div class=""stimulus-container"">
                    <img src=""images/semantic_sequence/maintaining_a_car_semantic/maintaining_a_car_semantic_4.png"" class=""exp-image"">
                    <div class=""question-area"">
                        <p style=""font-size: 20px; font-weight: bold; margin: 0;"">Is there a person in this image?</p>
                    </div>
                </div>","0","main_experiment_trial","4","maintaining_a_car_semantic","semantic_sequence","chronological","","","","","","",""
"","","","","","html-keyboard-response","172","584850","0.0-172.0","BD829C455ECF44618E25144C1B8E8360","019cfc3d-f781-7ed1-a582-c2f468c0b49f","019cfc28-2143-7934-89cc-ce6402563331","","null","
                <div class=""stimulus-container"">
                    <img src=""images/semantic_sequence/maintaining_a_car_semantic/maintaining_a_car_semantic_5.png"" class=""exp-image"">
                    <div class=""question-area""></div> 
                </div>","null","","","","","","","","","","","",""
"","","","","","html-button-response","173","585720","0.0-173.0","BD829C455ECF44618E25144C1B8E8360","019cfc3d-f781-7ed1-a582-c2f468c0b49f","019cfc28-2143-7934-89cc-ce6402563331","","869","
                <div class=""stimulus-container"">
                    <img src=""images/semantic_sequence/maintaining_a_car_semantic/maintaining_a_car_semantic_5.png"" class=""exp-image"">
                    <div class=""question-area"">
                        <p style=""font-size: 20px; font-weight: bold; margin: 0;"">Is there a person in this image?</p>
                    </div>
                </div>","0","main_experiment_trial","5","maintaining_a_car_semantic","semantic_sequence","chronological","","","","","","",""
"","","","","","html-keyboard-response","174","590721","0.0-174.0","BD829C455ECF44618E25144C1B8E8360","019cfc3d-f781-7ed1-a582-c2f468c0b49f","019cfc28-2143-7934-89cc-ce6402563331","","null","
                <div class=""stimulus-container"">
                    <img src=""images/semantic_sequence/maintaining_a_car_semantic/maintaining_a_car_semantic_6.png"" class=""exp-image"">
                    <div class=""question-area""></div> 
                </div>","null","","","","","","","","","","","",""
"","","","","","html-button-response","175","591713","0.0-175.0","BD829C455ECF44618E25144C1B8E8360","019cfc3d-f781-7ed1-a582-c2f468c0b49f","019cfc28-2143-7934-89cc-ce6402563331","","991","
