"success","timeout","failed_images","failed_audio","failed_video","trial_type","trial_index","time_elapsed","internal_node_id","subject_id","study_id","session_id","view_history","rt","stimulus","response","task","image_index","folder","sequence_type","valuable_image_index","reward_type","chosen_image_index","target_X","correct_choice"
"true","false","[]","[]","[]","preload","0","9817","0.0-0.0","7EC6EC9604A74DB4B503ED8DB5DFB91F","019cf0cb-c150-742d-9c88-73fc090fc04e","019cf037-5203-781a-b900-108ccb1cab86","","","","","","","","","","","","",""
"","","","","","instructions","1","13410","0.0-1.0","7EC6EC9604A74DB4B503ED8DB5DFB91F","019cf0cb-c150-742d-9c88-73fc090fc04e","019cf037-5203-781a-b900-108ccb1cab86","[{""page_index"":0,""viewing_time"":3592}]","3593","","","","","","","","","","",""
"","","","","","instructions","2","24179","0.0-2.0","7EC6EC9604A74DB4B503ED8DB5DFB91F","019cf0cb-c150-742d-9c88-73fc090fc04e","019cf037-5203-781a-b900-108ccb1cab86","[{""page_index"":0,""viewing_time"":10769}]","10769","","","","","","","","","","",""
"true","","","","","fullscreen","3","696375","0.0-3.0","7EC6EC9604A74DB4B503ED8DB5DFB91F","019cf0cb-c150-742d-9c88-73fc090fc04e","019cf037-5203-781a-b900-108ccb1cab86","","671181","","","","","","","","","","",""
"","","","","","instructions","4","709017","0.0-4.0","7EC6EC9604A74DB4B503ED8DB5DFB91F","019cf0cb-c150-742d-9c88-73fc090fc04e","019cf037-5203-781a-b900-108ccb1cab86","[{""page_index"":0,""viewing_time"":12641}]","12641","","","","","","","","","","",""
"","","","","","instructions","5","781316","0.0-5.0","7EC6EC9604A74DB4B503ED8DB5DFB91F","019cf0cb-c150-742d-9c88-73fc090fc04e","019cf037-5203-781a-b900-108ccb1cab86","[{""page_index"":0,""viewing_time"":72299}]","72299","","","","","","","","","","",""
"","","","","","html-keyboard-response","6","785323","0.0-6.0","7EC6EC9604A74DB4B503ED8DB5DFB91F","019cf0cb-c150-742d-9c88-73fc090fc04e","019cf037-5203-781a-b900-108ccb1cab86","","null","
                <div class=""stimulus-container"">
                    <img src=""images/instructions/movie_1.png"" class=""exp-image"">
                    <div class=""question-area""></div> 
                </div>","null","","","","","","","","",""
"","","","","","html-button-response","7","788328","0.0-7.0","7EC6EC9604A74DB4B503ED8DB5DFB91F","019cf0cb-c150-742d-9c88-73fc090fc04e","019cf037-5203-781a-b900-108ccb1cab86","","null","
                <div class=""stimulus-container"">
                    <img src=""images/instructions/movie_1.png"" class=""exp-image"">
                    <div class=""question-area"">
                        <p style=""font-size: 20px; font-weight: bold; margin: 0;"">Was there a person in this image?</p>
                    </div>
                </div>","null","example_question","1","","","","","","",""
"","","","","","html-keyboard-response","8","792329","0.0-8.0","7EC6EC9604A74DB4B503ED8DB5DFB91F","019cf0cb-c150-742d-9c88-73fc090fc04e","019cf037-5203-781a-b900-108ccb1cab86","","null","
                <div class=""stimulus-container"">
                    <img src=""images/instructions/movie_2.png"" class=""exp-image"">
                    <div class=""question-area""></div> 
                </div>","null","","","","","","","","",""
"","","","","","html-button-response","9","792684","0.0-9.0","7EC6EC9604A74DB4B503ED8DB5DFB91F","019cf0cb-c150-742d-9c88-73fc090fc04e","019cf037-5203-781a-b900-108ccb1cab86","","354","
                <div class=""stimulus-container"">
                    <img src=""images/instructions/movie_2.png"" class=""exp-image"">
                    <div class=""question-area"">
                        <p style=""font-size: 20px; font-weight: bold; margin: 0;"">Was there a person in this image?</p>
                    </div>
                </div>","0","example_question","2","","","","","","",""
"","","","","","html-keyboard-response","10","796685","0.0-10.0","7EC6EC9604A74DB4B503ED8DB5DFB91F","019cf0cb-c150-742d-9c88-73fc090fc04e","019cf037-5203-781a-b900-108ccb1cab86","","null","
                <div class=""stimulus-container"">
                    <img src=""images/instructions/movie_3.png"" class=""exp-image"">
                    <div class=""question-area""></div> 
                </div>","null","","","","","","","","",""
"","","","","","html-button-response","11","797151","0.0-11.0","7EC6EC9604A74DB4B503ED8DB5DFB91F","019cf0cb-c150-742d-9c88-73fc090fc04e","019cf037-5203-781a-b900-108ccb1cab86","","465","
                <div class=""stimulus-container"">
                    <img src=""images/instructions/movie_3.png"" class=""exp-image"">
                    <div class=""question-area"">
                        <p style=""font-size: 20px; font-weight: bold; margin: 0;"">Was there a person in this image?</p>
                    </div>
                </div>","0","example_question","3","","","","","","",""
"","","","","","html-keyboard-response","12","801154","0.0-12.0","7EC6EC9604A74DB4B503ED8DB5DFB91F","019cf0cb-c150-742d-9c88-73fc090fc04e","019cf037-5203-781a-b900-108ccb1cab86","","null","
                <div class=""stimulus-container"">
                    <img src=""images/instructions/movie_4.png"" class=""exp-image"">
                    <div class=""question-area""></div> 
                </div>","null","","","","","","","","",""
"","","","","","html-button-response","13","801666","0.0-13.0","7EC6EC9604A74DB4B503ED8DB5DFB91F","019cf0cb-c150-742d-9c88-73fc090fc04e","019cf037-5203-781a-b900-108ccb1cab86","","512","
                <div class=""stimulus-container"">
                    <img src=""images/instructions/movie_4.png"" class=""exp-image"">
                    <div class=""question-area"">
                        <p style=""font-size: 20px; font-weight: bold; margin: 0;"">Was there a person in this image?</p>
                    </div>
                </div>","0","example_question","4","","","","","","",""
"","","","","","instructions","14","803473","0.0-14.0","7EC6EC9604A74DB4B503ED8DB5DFB91F","019cf0cb-c150-742d-9c88-73fc090fc04e","019cf037-5203-781a-b900-108ccb1cab86","[{""page_index"":0,""viewing_time"":1807}]","1807","","","","","","","","","","",""
"","","","","","instructions","15","808449","0.0-15.0","7EC6EC9604A74DB4B503ED8DB5DFB91F","019cf0cb-c150-742d-9c88-73fc090fc04e","019cf037-5203-781a-b900-108ccb1cab86","[{""page_index"":0,""viewing_time"":4976}]","4976","","","","","","","","","","",""
"","","","","","html-keyboard-response","16","809450","0.0-16.0","7EC6EC9604A74DB4B503ED8DB5DFB91F","019cf0cb-c150-742d-9c88-73fc090fc04e","019cf037-5203-781a-b900-108ccb1cab86","","null","<div style=""background-color: white; width: 100vw; height: 100vh;""></div>","null","","","","","","","","",""
"","","","","","html-keyboard-response","17","814462","0.0-17.0","7EC6EC9604A74DB4B503ED8DB5DFB91F","019cf0cb-c150-742d-9c88-73fc090fc04e","019cf037-5203-781a-b900-108ccb1cab86","","null","
                <div class=""stimulus-container"">
                    <img src=""images/schematic_sequence/dinner_party_scheme/dinner_party_scheme_1.png"" class=""exp-image"">
                    <div class=""question-area""></div> 
                </div>","null","","","","","","","","",""
"","","","","","html-button-response","18","815208","0.0-18.0","7EC6EC9604A74DB4B503ED8DB5DFB91F","019cf0cb-c150-742d-9c88-73fc090fc04e","019cf037-5203-781a-b900-108ccb1cab86","","745","
                <div class=""stimulus-container"">
                    <img src=""images/schematic_sequence/dinner_party_scheme/dinner_party_scheme_1.png"" class=""exp-image"">
                    <div class=""question-area"">
                        <p style=""font-size: 20px; font-weight: bold; margin: 0;"">Is there a person in this image?</p>
                    </div>
                </div>","0","main_experiment_trial","1","dinner_party_scheme","schematic_sequence","","","","",""
"","","","","","html-keyboard-response","19","820212","0.0-19.0","7EC6EC9604A74DB4B503ED8DB5DFB91F","019cf0cb-c150-742d-9c88-73fc090fc04e","019cf037-5203-781a-b900-108ccb1cab86","","null","
                <div class=""stimulus-container"">
                    <img src=""images/schematic_sequence/dinner_party_scheme/dinner_party_scheme_2.png"" class=""exp-image"">
                    <div class=""question-area""></div> 
                </div>","null","","","","","","","","",""
"","","","","","html-button-response","20","821052","0.0-20.0","7EC6EC9604A74DB4B503ED8DB5DFB91F","019cf0cb-c150-742d-9c88-73fc090fc04e","019cf037-5203-781a-b900-108ccb1cab86","","840","
                <div class=""stimulus-container"">
                    <img src=""images/schematic_sequence/dinner_party_scheme/dinner_party_scheme_2.png"" class=""exp-image"">
                    <div class=""question-area"">
                        <p style=""font-size: 20px; font-weight: bold; margin: 0;"">Is there a person in this image?</p>
                    </div>
                </div>","0","main_experiment_trial","2","dinner_party_scheme","schematic_sequence","","","","",""
"","","","","","html-keyboard-response","21","826068","0.0-21.0","7EC6EC9604A74DB4B503ED8DB5DFB91F","019cf0cb-c150-742d-9c88-73fc090fc04e","019cf037-5203-781a-b900-108ccb1cab86","","null","
                <div class=""stimulus-container"">
                    <img src=""images/schematic_sequence/dinner_party_scheme/dinner_party_scheme_3.png"" class=""exp-image"">
                    <div class=""question-area""></div> 
                </div>","null","","","","","","","","",""
"","","","","","html-button-response","22","826746","0.0-22.0","7EC6EC9604A74DB4B503ED8DB5DFB91F","019cf0cb-c150-742d-9c88-73fc090fc04e","019cf037-5203-781a-b900-108ccb1cab86","","677","
                <div class=""stimulus-container"">
                    <img src=""images/schematic_sequence/dinner_party_scheme/dinner_party_scheme_3.png"" class=""exp-image"">
                    <div class=""question-area"">
                        <p style=""font-size: 20px; font-weight: bold; margin: 0;"">Is there a person in this image?</p>
                    </div>
                </div>","0","main_experiment_trial","3","dinner_party_scheme","schematic_sequence","","","","",""
"","","","","","html-keyboard-response","23","831748","0.0-23.0","7EC6EC9604A74DB4B503ED8DB5DFB91F","019cf0cb-c150-742d-9c88-73fc090fc04e","019cf037-5203-781a-b900-108ccb1cab86","","null","
                <div class=""stimulus-container"">
                    <img src=""images/schematic_sequence/dinner_party_scheme/dinner_party_scheme_4.png"" class=""exp-image"">
                    <div class=""question-area""></div> 
                </div>","null","","","","","","","","",""
"","","","","","html-button-response","24","832194","0.0-24.0","7EC6EC9604A74DB4B503ED8DB5DFB91F","019cf0cb-c150-742d-9c88-73fc090fc04e","019cf037-5203-781a-b900-108ccb1cab86","","446","
                <div class=""stimulus-container"">
                    <img src=""images/schematic_sequence/dinner_party_scheme/dinner_party_scheme_4.png"" class=""exp-image"">
                    <div class=""question-area"">
                        <p style=""font-size: 20px; font-weight: bold; margin: 0;"">Is there a person in this image?</p>
                    </div>
                </div>","0","main_experiment_trial","4","dinner_party_scheme","schematic_sequence","","","","",""
"","","","","","html-keyboard-response","25","837207","0.0-25.0","7EC6EC9604A74DB4B503ED8DB5DFB91F","019cf0cb-c150-742d-9c88-73fc090fc04e","019cf037-5203-781a-b900-108ccb1cab86","","null","
                <div class=""stimulus-container"">
                    <img src=""images/schematic_sequence/dinner_party_scheme/dinner_party_scheme_5.png"" class=""exp-image"">
                    <div class=""question-area""></div> 
                </div>","null","","","","","","","","",""
"","","","","","html-button-response","26","837805","0.0-26.0","7EC6EC9604A74DB4B503ED8DB5DFB91F","019cf0cb-c150-742d-9c88-73fc090fc04e","019cf037-5203-781a-b900-108ccb1cab86","","597","
                <div class=""stimulus-container"">
                    <img src=""images/schematic_sequence/dinner_party_scheme/dinner_party_scheme_5.png"" class=""exp-image"">
                    <div class=""question-area"">
                        <p style=""font-size: 20px; font-weight: bold; margin: 0;"">Is there a person in this image?</p>
                    </div>
                </div>","0","main_experiment_trial","5","dinner_party_scheme","schematic_sequence","","","","",""
"","","","","","html-keyboard-response","27","842810","0.0-27.0","7EC6EC9604A74DB4B503ED8DB5DFB91F","019cf0cb-c150-742d-9c88-73fc090fc04e","019cf037-5203-781a-b900-108ccb1cab86","","null","
                <div class=""stimulus-container"">
                    <img src=""images/schematic_sequence/dinner_party_scheme/dinner_party_scheme_6.png"" class=""exp-image"">
                    <div class=""question-area""></div> 
                </div>","null","","","","","","","","",""
"","","","","","html-button-response","28","843532","0.0-28.0","7EC6EC9604A74DB4B503ED8DB5DFB91F","019cf0cb-c150-742d-9c88-73fc090fc04e","019cf037-5203-781a-b900-108ccb1cab86","","722","
                <div class=""stimulus-container"">
                    <img src=""images/schematic_sequence/dinner_party_scheme/dinner_party_scheme_6.png"" class=""exp-image"">
                    <div class=""question-area"">
                        <p style=""font-size: 20px; font-weight: bold; margin: 0;"">Is there a person in this image?</p>
                    </div>
                </div>","0","main_experiment_trial","6","dinner_party_scheme","schematic_sequence","","","","",""
"","","","","","html-keyboard-response","29","848534","0.0-29.0","7EC6EC9604A74DB4B503ED8DB5DFB91F","019cf0cb-c150-742d-9c88-73fc090fc04e","019cf037-5203-781a-b900-108ccb1cab86","","null","
                <div class=""stimulus-container"">
                    <img src=""images/schematic_sequence/dinner_party_scheme/dinner_party_scheme_7.png"" class=""exp-image"">
                    <div class=""question-area""></div> 
                </div>","null","","","","","","","","",""
"","","","","","html-button-response","30","849132","0.0-30.0","7EC6EC9604A74DB4B503ED8DB5DFB91F","019cf0cb-c150-742d-9c88-73fc090fc04e","019cf037-5203-781a-b900-108ccb1cab86","","597","
                <div class=""stimulus-container"">
                    <img src=""images/schematic_sequence/dinner_party_scheme/dinner_party_scheme_7.png"" class=""exp-image"">
                    <div class=""question-area"">
                        <p style=""font-size: 20px; font-weight: bold; margin: 0;"">Is there a person in this image?</p>
                    </div>
                </div>","0","main_experiment_trial","7","dinner_party_scheme","schematic_sequence","","","","",""
"","","","","","html-keyboard-response","31","854138","0.0-31.0","7EC6EC9604A74DB4B503ED8DB5DFB91F","019cf0cb-c150-742d-9c88-73fc090fc04e","019cf037-5203-781a-b900-108ccb1cab86","","null","
                <div class=""stimulus-container"">
                    <img src=""images/schematic_sequence/dinner_party_scheme/dinner_party_scheme_8.png"" class=""exp-image"">
                    <div class=""question-area""></div> 
                </div>","null","","","","","","","","",""
"","","","","","html-button-response","32","854777","0.0-32.0","7EC6EC9604A74DB4B503ED8DB5DFB91F","019cf0cb-c150-742d-9c88-73fc090fc04e","019cf037-5203-781a-b900-108ccb1cab86","","638","
                <div class=""stimulus-container"">
                    <img src=""images/schematic_sequence/dinner_party_scheme/dinner_party_scheme_8.png"" class=""exp-image"">
                    <div class=""question-area"">
                        <p style=""font-size: 20px; font-weight: bold; margin: 0;"">Is there a person in this image?</p>
                    </div>
                </div>","0","main_experiment_trial","8","dinner_party_scheme","schematic_sequence","","","","",""
"","","","","","html-keyboard-response","33","859786","0.0-33.0","7EC6EC9604A74DB4B503ED8DB5DFB91F","019cf0cb-c150-742d-9c88-73fc090fc04e","019cf037-5203-781a-b900-108ccb1cab86","","null","
                <div class=""stimulus-container"">
                    <img src=""images/schematic_sequence/dinner_party_scheme/dinner_party_scheme_9.png"" class=""exp-image"">
                    <div class=""question-area""></div> 
                </div>","null","","","","","","","","",""
"","","","","","html-button-response","34","860377","0.0-34.0","7EC6EC9604A74DB4B503ED8DB5DFB91F","019cf0cb-c150-742d-9c88-73fc090fc04e","019cf037-5203-781a-b900-108ccb1cab86","","590","
                <div class=""stimulus-container"">
                    <img src=""images/schematic_sequence/dinner_party_scheme/dinner_party_scheme_9.png"" class=""exp-image"">
                    <div class=""question-area"">
                        <p style=""font-size: 20px; font-weight: bold; margin: 0;"">Is there a person in this image?</p>
                    </div>
                </div>","0","main_experiment_trial","9","dinner_party_scheme","schematic_sequence","","","","",""
"","","","","","html-keyboard-response","35","865389","0.0-35.0","7EC6EC9604A74DB4B503ED8DB5DFB91F","019cf0cb-c150-742d-9c88-73fc090fc04e","019cf037-5203-781a-b900-108ccb1cab86","","null","
                <div class=""stimulus-container"">
                    <img src=""images/schematic_sequence/dinner_party_scheme/dinner_party_scheme_ten.png"" class=""exp-image"">
                    <div class=""question-area""></div> 
                </div>","null","","","","","","","","",""
"","","","","","html-button-response","36","866043","0.0-36.0","7EC6EC9604A74DB4B503ED8DB5DFB91F","019cf0cb-c150-742d-9c88-73fc090fc04e","019cf037-5203-781a-b900-108ccb1cab86","","653","
                <div class=""stimulus-container"">
                    <img src=""images/schematic_sequence/dinner_party_scheme/dinner_party_scheme_ten.png"" class=""exp-image"">
                    <div class=""question-area"">
                        <p style=""font-size: 20px; font-weight: bold; margin: 0;"">Is there a person in this image?</p>
                    </div>
                </div>","0","main_experiment_trial","ten","dinner_party_scheme","schematic_sequence","","","","",""
"","","","","","html-keyboard-response","37","867054","0.0-37.0","7EC6EC9604A74DB4B503ED8DB5DFB91F","019cf0cb-c150-742d-9c88-73fc090fc04e","019cf037-5203-781a-b900-108ccb1cab86","","null","<div style=""background-color: white; width: 100vw; height: 100vh;""></div>","null","","","","","","","","",""
"","","","","","html-keyboard-response","38","872064","0.0-38.0","7EC6EC9604A74DB4B503ED8DB5DFB91F","019cf0cb-c150-742d-9c88-73fc090fc04e","019cf037-5203-781a-b900-108ccb1cab86","","null","
                <div class=""stimulus-container"">
                    <img src=""images/causal_sequence/saving_a_cat_causal/saving_a_cat_causal_1.png"" class=""exp-image"">
                    <div class=""question-area""></div> 
                </div>","null","","","","","","","","",""
"","","","","","html-button-response","39","872619","0.0-39.0","7EC6EC9604A74DB4B503ED8DB5DFB91F","019cf0cb-c150-742d-9c88-73fc090fc04e","019cf037-5203-781a-b900-108ccb1cab86","","555","
                <div class=""stimulus-container"">
                    <img src=""images/causal_sequence/saving_a_cat_causal/saving_a_cat_causal_1.png"" class=""exp-image"">
                    <div class=""question-area"">
                        <p style=""font-size: 20px; font-weight: bold; margin: 0;"">Is there a person in this image?</p>
                    </div>
                </div>","0","main_experiment_trial","1","saving_a_cat_causal","causal_sequence","","","","",""
"","","","","","html-keyboard-response","40","877634","0.0-40.0","7EC6EC9604A74DB4B503ED8DB5DFB91F","019cf0cb-c150-742d-9c88-73fc090fc04e","019cf037-5203-781a-b900-108ccb1cab86","","null","
                <div class=""stimulus-container"">
                    <img src=""images/causal_sequence/saving_a_cat_causal/saving_a_cat_causal_2.png"" class=""exp-image"">
                    <div class=""question-area""></div> 
                </div>","null","","","","","","","","",""
"","","","","","html-button-response","41","878243","0.0-41.0","7EC6EC9604A74DB4B503ED8DB5DFB91F","019cf0cb-c150-742d-9c88-73fc090fc04e","019cf037-5203-781a-b900-108ccb1cab86","","608","
                <div class=""stimulus-container"">
                    <img src=""images/causal_sequence/saving_a_cat_causal/saving_a_cat_causal_2.png"" class=""exp-image"">
                    <div class=""question-area"">
                        <p style=""font-size: 20px; font-weight: bold; margin: 0;"">Is there a person in this image?</p>
                    </div>
                </div>","1","main_experiment_trial","2","saving_a_cat_causal","causal_sequence","","","","",""
"","","","","","html-keyboard-response","42","883251","0.0-42.0","7EC6EC9604A74DB4B503ED8DB5DFB91F","019cf0cb-c150-742d-9c88-73fc090fc04e","019cf037-5203-781a-b900-108ccb1cab86","","null","
                <div class=""stimulus-container"">
                    <img src=""images/causal_sequence/saving_a_cat_causal/saving_a_cat_causal_3.png"" class=""exp-image"">
                    <div class=""question-area""></div> 
                </div>","null","","","","","","","","",""
"","","","","","html-button-response","43","883734","0.0-43.0","7EC6EC9604A74DB4B503ED8DB5DFB91F","019cf0cb-c150-742d-9c88-73fc090fc04e","019cf037-5203-781a-b900-108ccb1cab86","","483","
                <div class=""stimulus-container"">
                    <img src=""images/causal_sequence/saving_a_cat_causal/saving_a_cat_causal_3.png"" class=""exp-image"">
                    <div class=""question-area"">
                        <p style=""font-size: 20px; font-weight: bold; margin: 0;"">Is there a person in this image?</p>
                    </div>
                </div>","1","main_experiment_trial","3","saving_a_cat_causal","causal_sequence","","","","",""
"","","","","","html-keyboard-response","44","888742","0.0-44.0","7EC6EC9604A74DB4B503ED8DB5DFB91F","019cf0cb-c150-742d-9c88-73fc090fc04e","019cf037-5203-781a-b900-108ccb1cab86","","null","
                <div class=""stimulus-container"">
                    <img src=""images/causal_sequence/saving_a_cat_causal/saving_a_cat_causal_4.png"" class=""exp-image"">
                    <div class=""question-area""></div> 
                </div>","null","","","","","","","","",""
"","","","","","html-button-response","45","889142","0.0-45.0","7EC6EC9604A74DB4B503ED8DB5DFB91F","019cf0cb-c150-742d-9c88-73fc090fc04e","019cf037-5203-781a-b900-108ccb1cab86","","400","
                <div class=""stimulus-container"">
                    <img src=""images/causal_sequence/saving_a_cat_causal/saving_a_cat_causal_4.png"" class=""exp-image"">
                    <div class=""question-area"">
                        <p style=""font-size: 20px; font-weight: bold; margin: 0;"">Is there a person in this image?</p>
                    </div>
                </div>","0","main_experiment_trial","4","saving_a_cat_causal","causal_sequence","","","","",""
"","","","","","html-keyboard-response","46","894155","0.0-46.0","7EC6EC9604A74DB4B503ED8DB5DFB91F","019cf0cb-c150-742d-9c88-73fc090fc04e","019cf037-5203-781a-b900-108ccb1cab86","","null","
                <div class=""stimulus-container"">
                    <img src=""images/causal_sequence/saving_a_cat_causal/saving_a_cat_causal_5.png"" class=""exp-image"">
                    <div class=""question-area""></div> 
                </div>","null","","","","","","","","",""
"","","","","","html-button-response","47","894612","0.0-47.0","7EC6EC9604A74DB4B503ED8DB5DFB91F","019cf0cb-c150-742d-9c88-73fc090fc04e","019cf037-5203-781a-b900-108ccb1cab86","","457","
                <div class=""stimulus-container"">
                    <img src=""images/causal_sequence/saving_a_cat_causal/saving_a_cat_causal_5.png"" class=""exp-image"">
                    <div class=""question-area"">
                        <p style=""font-size: 20px; font-weight: bold; margin: 0;"">Is there a person in this image?</p>
                    </div>
                </div>","0","main_experiment_trial","5","saving_a_cat_causal","causal_sequence","","","","",""
"","","","","","html-keyboard-response","48","899615","0.0-48.0","7EC6EC9604A74DB4B503ED8DB5DFB91F","019cf0cb-c150-742d-9c88-73fc090fc04e","019cf037-5203-781a-b900-108ccb1cab86","","null","
                <div class=""stimulus-container"">
                    <img src=""images/causal_sequence/saving_a_cat_causal/saving_a_cat_causal_6.png"" class=""exp-image"">
                    <div class=""question-area""></div> 
                </div>","null","","","","","","","","",""
"","","","","","html-button-response","49","900627","0.0-49.0","7EC6EC9604A74DB4B503ED8DB5DFB91F","019cf0cb-c150-742d-9c88-73fc090fc04e","019cf037-5203-781a-b900-108ccb1cab86","","1012","
                <div class=""stimulus-container"">
                    <img src=""images/causal_sequence/saving_a_cat_causal/saving_a_cat_causal_6.png"" class=""exp-image"">
                    <div class=""question-area"">
                        <p style=""font-size: 20px; font-weight: bold; margin: 0;"">Is there a person in this image?</p>
                    </div>
                </div>","0","main_experiment_trial","6","saving_a_cat_causal","causal_sequence","","","","",""
"","","","","","html-keyboard-response","50","905635","0.0-50.0","7EC6EC9604A74DB4B503ED8DB5DFB91F","019cf0cb-c150-742d-9c88-73fc090fc04e","019cf037-5203-781a-b900-108ccb1cab86","","null","
                <div class=""stimulus-container"">
                    <img src=""images/causal_sequence/saving_a_cat_causal/saving_a_cat_causal_7.png"" class=""exp-image"">
                    <div class=""question-area""></div> 
                </div>","null","","","","","","","","",""
"","","","","","html-button-response","51","906353","0.0-51.0","7EC6EC9604A74DB4B503ED8DB5DFB91F","019cf0cb-c150-742d-9c88-73fc090fc04e","019cf037-5203-781a-b900-108ccb1cab86","","717","
                <div class=""stimulus-container"">
                    <img src=""images/causal_sequence/saving_a_cat_causal/saving_a_cat_causal_7.png"" class=""exp-image"">
                    <div class=""question-area"">
                        <p style=""font-size: 20px; font-weight: bold; margin: 0;"">Is there a person in this image?</p>
                    </div>
                </div>","0","main_experiment_trial","7","saving_a_cat_causal","causal_sequence","","","","",""
"","","","","","html-keyboard-response","52","911359","0.0-52.0","7EC6EC9604A74DB4B503ED8DB5DFB91F","019cf0cb-c150-742d-9c88-73fc090fc04e","019cf037-5203-781a-b900-108ccb1cab86","","null","
                <div class=""stimulus-container"">
                    <img src=""images/causal_sequence/saving_a_cat_causal/saving_a_cat_causal_8.png"" class=""exp-image"">
                    <div class=""question-area""></div> 
                </div>","null","","","","","","","","",""
"","","","","","html-button-response","53","911734","0.0-53.0","7EC6EC9604A74DB4B503ED8DB5DFB91F","019cf0cb-c150-742d-9c88-73fc090fc04e","019cf037-5203-781a-b900-108ccb1cab86","","374","
                <div class=""stimulus-container"">
                    <img src=""images/causal_sequence/saving_a_cat_causal/saving_a_cat_causal_8.png"" class=""exp-image"">
                    <div class=""question-area"">
                        <p style=""font-size: 20px; font-weight: bold; margin: 0;"">Is there a person in this image?</p>
                    </div>
                </div>","0","main_experiment_trial","8","saving_a_cat_causal","causal_sequence","","","","",""
"","","","","","html-keyboard-response","54","916744","0.0-54.0","7EC6EC9604A74DB4B503ED8DB5DFB91F","019cf0cb-c150-742d-9c88-73fc090fc04e","019cf037-5203-781a-b900-108ccb1cab86","","null","
                <div class=""stimulus-container"">
                    <img src=""images/causal_sequence/saving_a_cat_causal/saving_a_cat_causal_9.png"" class=""exp-image"">
                    <div class=""question-area""></div> 
                </div>","null","","","","","","","","",""
"","","","","","html-button-response","55","917496","0.0-55.0","7EC6EC9604A74DB4B503ED8DB5DFB91F","019cf0cb-c150-742d-9c88-73fc090fc04e","019cf037-5203-781a-b900-108ccb1cab86","","752","
                <div class=""stimulus-container"">
                    <img src=""images/causal_sequence/saving_a_cat_causal/saving_a_cat_causal_9.png"" class=""exp-image"">
                    <div class=""question-area"">
                        <p style=""font-size: 20px; font-weight: bold; margin: 0;"">Is there a person in this image?</p>
                    </div>
                </div>","0","main_experiment_trial","9","saving_a_cat_causal","causal_sequence","","","","",""
"","","","","","html-keyboard-response","56","922501","0.0-56.0","7EC6EC9604A74DB4B503ED8DB5DFB91F","019cf0cb-c150-742d-9c88-73fc090fc04e","019cf037-5203-781a-b900-108ccb1cab86","","null","
                <div class=""stimulus-container"">
                    <img src=""images/causal_sequence/saving_a_cat_causal/saving_a_cat_causal_ten.png"" class=""exp-image"">
                    <div class=""question-area""></div> 
                </div>","null","","","","","","","","",""
"","","","","","html-button-response","57","922934","0.0-57.0","7EC6EC9604A74DB4B503ED8DB5DFB91F","019cf0cb-c150-742d-9c88-73fc090fc04e","019cf037-5203-781a-b900-108ccb1cab86","","433","
                <div class=""stimulus-container"">
                    <img src=""images/causal_sequence/saving_a_cat_causal/saving_a_cat_causal_ten.png"" class=""exp-image"">
                    <div class=""question-area"">
                        <p style=""font-size: 20px; font-weight: bold; margin: 0;"">Is there a person in this image?</p>
                    </div>
                </div>","0","main_experiment_trial","ten","saving_a_cat_causal","causal_sequence","","","","",""
"","","","","","html-keyboard-response","58","923947","0.0-58.0","7EC6EC9604A74DB4B503ED8DB5DFB91F","019cf0cb-c150-742d-9c88-73fc090fc04e","019cf037-5203-781a-b900-108ccb1cab86","","null","<div style=""background-color: white; width: 100vw; height: 100vh;""></div>","null","","","","","","","","",""
"","","","","","html-keyboard-response","59","928957","0.0-59.0","7EC6EC9604A74DB4B503ED8DB5DFB91F","019cf0cb-c150-742d-9c88-73fc090fc04e","019cf037-5203-781a-b900-108ccb1cab86","","null","
                <div class=""stimulus-container"">
                    <img src=""images/causal_sequence/package_causal/package_causal_1.png"" class=""exp-image"">
                    <div class=""question-area""></div> 
                </div>","null","","","","","","","","",""
"","","","","","html-button-response","60","929269","0.0-60.0","7EC6EC9604A74DB4B503ED8DB5DFB91F","019cf0cb-c150-742d-9c88-73fc090fc04e","019cf037-5203-781a-b900-108ccb1cab86","","311","
                <div class=""stimulus-container"">
                    <img src=""images/causal_sequence/package_causal/package_causal_1.png"" class=""exp-image"">
                    <div class=""question-area"">
                        <p style=""font-size: 20px; font-weight: bold; margin: 0;"">Is there a person in this image?</p>
                    </div>
                </div>","0","main_experiment_trial","1","package_causal","causal_sequence","","","","",""
"","","","","","html-keyboard-response","61","934281","0.0-61.0","7EC6EC9604A74DB4B503ED8DB5DFB91F","019cf0cb-c150-742d-9c88-73fc090fc04e","019cf037-5203-781a-b900-108ccb1cab86","","null","
                <div class=""stimulus-container"">
                    <img src=""images/causal_sequence/package_causal/package_causal_2.png"" class=""exp-image"">
                    <div class=""question-area""></div> 
                </div>","null","","","","","","","","",""
"","","","","","html-button-response","62","935102","0.0-62.0","7EC6EC9604A74DB4B503ED8DB5DFB91F","019cf0cb-c150-742d-9c88-73fc090fc04e","019cf037-5203-781a-b900-108ccb1cab86","","821","
                <div class=""stimulus-container"">
                    <img src=""images/causal_sequence/package_causal/package_causal_2.png"" class=""exp-image"">
                    <div class=""question-area"">
                        <p style=""font-size: 20px; font-weight: bold; margin: 0;"">Is there a person in this image?</p>
                    </div>
                </div>","0","main_experiment_trial","2","package_causal","causal_sequence","","","","",""
"","","","","","html-keyboard-response","63","940114","0.0-63.0","7EC6EC9604A74DB4B503ED8DB5DFB91F","019cf0cb-c150-742d-9c88-73fc090fc04e","019cf037-5203-781a-b900-108ccb1cab86","","null","
                <div class=""stimulus-container"">
                    <img src=""images/causal_sequence/package_causal/package_causal_3.png"" class=""exp-image"">
                    <div class=""question-area""></div> 
                </div>","null","","","","","","","","",""
"","","","","","html-button-response","64","940449","0.0-64.0","7EC6EC9604A74DB4B503ED8DB5DFB91F","019cf0cb-c150-742d-9c88-73fc090fc04e","019cf037-5203-781a-b900-108ccb1cab86","","335","
                <div class=""stimulus-container"">
                    <img src=""images/causal_sequence/package_causal/package_causal_3.png"" class=""exp-image"">
                    <div class=""question-area"">
                        <p style=""font-size: 20px; font-weight: bold; margin: 0;"">Is there a person in this image?</p>
                    </div>
                </div>","0","main_experiment_trial","3","package_causal","causal_sequence","","","","",""
"","","","","","html-keyboard-response","65","945451","0.0-65.0","7EC6EC9604A74DB4B503ED8DB5DFB91F","019cf0cb-c150-742d-9c88-73fc090fc04e","019cf037-5203-781a-b900-108ccb1cab86","","null","
                <div class=""stimulus-container"">
                    <img src=""images/causal_sequence/package_causal/package_causal_4.png"" class=""exp-image"">
                    <div class=""question-area""></div> 
                </div>","null","","","","","","","","",""
"","","","","","html-button-response","66","946155","0.0-66.0","7EC6EC9604A74DB4B503ED8DB5DFB91F","019cf0cb-c150-742d-9c88-73fc090fc04e","019cf037-5203-781a-b900-108ccb1cab86","","704","
                <div class=""stimulus-container"">
                    <img src=""images/causal_sequence/package_causal/package_causal_4.png"" class=""exp-image"">
                    <div class=""question-area"">
                        <p style=""font-size: 20px; font-weight: bold; margin: 0;"">Is there a person in this image?</p>
                    </div>
                </div>","1","main_experiment_trial","4","package_causal","causal_sequence","","","","",""
"","","","","","html-keyboard-response","67","951159","0.0-67.0","7EC6EC9604A74DB4B503ED8DB5DFB91F","019cf0cb-c150-742d-9c88-73fc090fc04e","019cf037-5203-781a-b900-108ccb1cab86","","null","
                <div class=""stimulus-container"">
                    <img src=""images/causal_sequence/package_causal/package_causal_5.png"" class=""exp-image"">
                    <div class=""question-area""></div> 
                </div>","null","","","","","","","","",""
"","","","","","html-button-response","68","951848","0.0-68.0","7EC6EC9604A74DB4B503ED8DB5DFB91F","019cf0cb-c150-742d-9c88-73fc090fc04e","019cf037-5203-781a-b900-108ccb1cab86","","688","
                <div class=""stimulus-container"">
                    <img src=""images/causal_sequence/package_causal/package_causal_5.png"" class=""exp-image"">
                    <div class=""question-area"">
                        <p style=""font-size: 20px; font-weight: bold; margin: 0;"">Is there a person in this image?</p>
                    </div>
                </div>","0","main_experiment_trial","5","package_causal","causal_sequence","","","","",""
"","","","","","html-keyboard-response","69","956849","0.0-69.0","7EC6EC9604A74DB4B503ED8DB5DFB91F","019cf0cb-c150-742d-9c88-73fc090fc04e","019cf037-5203-781a-b900-108ccb1cab86","","null","
                <div class=""stimulus-container"">
                    <img src=""images/causal_sequence/package_causal/package_causal_6.png"" class=""exp-image"">
                    <div class=""question-area""></div> 
                </div>","null","","","","","","","","",""
"","","","","","html-button-response","70","957264","0.0-70.0","7EC6EC9604A74DB4B503ED8DB5DFB91F","019cf0cb-c150-742d-9c88-73fc090fc04e","019cf037-5203-781a-b900-108ccb1cab86","","415","
                <div class=""stimulus-container"">
                    <img src=""images/causal_sequence/package_causal/package_causal_6.png"" class=""exp-image"">
                    <div class=""question-area"">
                        <p style=""font-size: 20px; font-weight: bold; margin: 0;"">Is there a person in this image?</p>
                    </div>
                </div>","0","main_experiment_trial","6","package_causal","causal_sequence","","","","",""
"","","","","","html-keyboard-response","71","962266","0.0-71.0","7EC6EC9604A74DB4B503ED8DB5DFB91F","019cf0cb-c150-742d-9c88-73fc090fc04e","019cf037-5203-781a-b900-108ccb1cab86","","null","
                <div class=""stimulus-container"">
                    <img src=""images/causal_sequence/package_causal/package_causal_7.png"" class=""exp-image"">
                    <div class=""question-area""></div> 
                </div>","null","","","","","","","","",""
"","","","","","html-button-response","72","963126","0.0-72.0","7EC6EC9604A74DB4B503ED8DB5DFB91F","019cf0cb-c150-742d-9c88-73fc090fc04e","019cf037-5203-781a-b900-108ccb1cab86","","860","
                <div class=""stimulus-container"">
                    <img src=""images/causal_sequence/package_causal/package_causal_7.png"" class=""exp-image"">
                    <div class=""question-area"">
                        <p style=""font-size: 20px; font-weight: bold; margin: 0;"">Is there a person in this image?</p>
                    </div>
                </div>","0","main_experiment_trial","7","package_causal","causal_sequence","","","","",""
"","","","","","html-keyboard-response","73","968131","0.0-73.0","7EC6EC9604A74DB4B503ED8DB5DFB91F","019cf0cb-c150-742d-9c88-73fc090fc04e","019cf037-5203-781a-b900-108ccb1cab86","","null","
                <div class=""stimulus-container"">
                    <img src=""images/causal_sequence/package_causal/package_causal_8.png"" class=""exp-image"">
                    <div class=""question-area""></div> 
                </div>","null","","","","","","","","",""
"","","","","","html-button-response","74","968843","0.0-74.0","7EC6EC9604A74DB4B503ED8DB5DFB91F","019cf0cb-c150-742d-9c88-73fc090fc04e","019cf037-5203-781a-b900-108ccb1cab86","","713","
                <div class=""stimulus-container"">
                    <img src=""images/causal_sequence/package_causal/package_causal_8.png"" class=""exp-image"">
                    <div class=""question-area"">
                        <p style=""font-size: 20px; font-weight: bold; margin: 0;"">Is there a person in this image?</p>
                    </div>
                </div>","0","main_experiment_trial","8","package_causal","causal_sequence","","","","",""
"","","","","","html-keyboard-response","75","973855","0.0-75.0","7EC6EC9604A74DB4B503ED8DB5DFB91F","019cf0cb-c150-742d-9c88-73fc090fc04e","019cf037-5203-781a-b900-108ccb1cab86","","null","
                <div class=""stimulus-container"">
                    <img src=""images/causal_sequence/package_causal/package_causal_9.png"" class=""exp-image"">
                    <div class=""question-area""></div> 
                </div>","null","","","","","","","","",""
"","","","","","html-button-response","76","974477","0.0-76.0","7EC6EC9604A74DB4B503ED8DB5DFB91F","019cf0cb-c150-742d-9c88-73fc090fc04e","019cf037-5203-781a-b900-108ccb1cab86","","621","
                <div class=""stimulus-container"">
                    <img src=""images/causal_sequence/package_causal/package_causal_9.png"" class=""exp-image"">
                    <div class=""question-area"">
                        <p style=""font-size: 20px; font-weight: bold; margin: 0;"">Is there a person in this image?</p>
                    </div>
                </div>","0","main_experiment_trial","9","package_causal","causal_sequence","","","","",""
"","","","","","html-keyboard-response","77","979489","0.0-77.0","7EC6EC9604A74DB4B503ED8DB5DFB91F","019cf0cb-c150-742d-9c88-73fc090fc04e","019cf037-5203-781a-b900-108ccb1cab86","","null","
                <div class=""stimulus-container"">
                    <img src=""images/causal_sequence/package_causal/package_causal_ten.png"" class=""exp-image"">
                    <div class=""question-area""></div> 
                </div>","null","","","","","","","","",""
"","","","","","html-button-response","78","980257","0.0-78.0","7EC6EC9604A74DB4B503ED8DB5DFB91F","019cf0cb-c150-742d-9c88-73fc090fc04e","019cf037-5203-781a-b900-108ccb1cab86","","767","
                <div class=""stimulus-container"">
                    <img src=""images/causal_sequence/package_causal/package_causal_ten.png"" class=""exp-image"">
                    <div class=""question-area"">
                        <p style=""font-size: 20px; font-weight: bold; margin: 0;"">Is there a person in this image?</p>
                    </div>
                </div>","0","main_experiment_trial","ten","package_causal","causal_sequence","","","","",""
"","","","","","html-keyboard-response","79","981263","0.0-79.0","7EC6EC9604A74DB4B503ED8DB5DFB91F","019cf0cb-c150-742d-9c88-73fc090fc04e","019cf037-5203-781a-b900-108ccb1cab86","","null","<div style=""background-color: white; width: 100vw; height: 100vh;""></div>","null","","","","","","","","",""
"","","","","","html-keyboard-response","80","986273","0.0-80.0","7EC6EC9604A74DB4B503ED8DB5DFB91F","019cf0cb-c150-742d-9c88-73fc090fc04e","019cf037-5203-781a-b900-108ccb1cab86","","null","
                <div class=""stimulus-container"">
                    <img src=""images/causal_sequence/museum_causal/museum_causal_1.png"" class=""exp-image"">
                    <div class=""question-area""></div> 
                </div>","null","","","","","","","","",""
"","","","","","html-button-response","81","986879","0.0-81.0","7EC6EC9604A74DB4B503ED8DB5DFB91F","019cf0cb-c150-742d-9c88-73fc090fc04e","019cf037-5203-781a-b900-108ccb1cab86","","605","
                <div class=""stimulus-container"">
                    <img src=""images/causal_sequence/museum_causal/museum_causal_1.png"" class=""exp-image"">
                    <div class=""question-area"">
                        <p style=""font-size: 20px; font-weight: bold; margin: 0;"">Is there a person in this image?</p>
                    </div>
                </div>","0","main_experiment_trial","1","museum_causal","causal_sequence","","","","",""
"","","","","","html-keyboard-response","82","991893","0.0-82.0","7EC6EC9604A74DB4B503ED8DB5DFB91F","019cf0cb-c150-742d-9c88-73fc090fc04e","019cf037-5203-781a-b900-108ccb1cab86","","null","
                <div class=""stimulus-container"">
                    <img src=""images/causal_sequence/museum_causal/museum_causal_2.png"" class=""exp-image"">
                    <div class=""question-area""></div> 
                </div>","null","","","","","","","","",""
"","","","","","html-button-response","83","992324","0.0-83.0","7EC6EC9604A74DB4B503ED8DB5DFB91F","019cf0cb-c150-742d-9c88-73fc090fc04e","019cf037-5203-781a-b900-108ccb1cab86","","430","
                <div class=""stimulus-container"">
                    <img src=""images/causal_sequence/museum_causal/museum_causal_2.png"" class=""exp-image"">
                    <div class=""question-area"">
                        <p style=""font-size: 20px; font-weight: bold; margin: 0;"">Is there a person in this image?</p>
                    </div>
                </div>","0","main_experiment_trial","2","museum_causal","causal_sequence","","","","",""
"","","","","","html-keyboard-response","84","997337","0.0-84.0","7EC6EC9604A74DB4B503ED8DB5DFB91F","019cf0cb-c150-742d-9c88-73fc090fc04e","019cf037-5203-781a-b900-108ccb1cab86","","null","
                <div class=""stimulus-container"">
                    <img src=""images/causal_sequence/museum_causal/museum_causal_3.png"" class=""exp-image"">
                    <div class=""question-area""></div> 
                </div>","null","","","","","","","","",""
"","","","","","html-button-response","85","997953","0.0-85.0","7EC6EC9604A74DB4B503ED8DB5DFB91F","019cf0cb-c150-742d-9c88-73fc090fc04e","019cf037-5203-781a-b900-108ccb1cab86","","615","
                <div class=""stimulus-container"">
                    <img src=""images/causal_sequence/museum_causal/museum_causal_3.png"" class=""exp-image"">
                    <div class=""question-area"">
                        <p style=""font-size: 20px; font-weight: bold; margin: 0;"">Is there a person in this image?</p>
                    </div>
                </div>","0","main_experiment_trial","3","museum_causal","causal_sequence","","","","",""
"","","","","","html-keyboard-response","86","1002954","0.0-86.0","7EC6EC9604A74DB4B503ED8DB5DFB91F","019cf0cb-c150-742d-9c88-73fc090fc04e","019cf037-5203-781a-b900-108ccb1cab86","","null","
                <div class=""stimulus-container"">
                    <img src=""images/causal_sequence/museum_causal/museum_causal_4.png"" class=""exp-image"">
                    <div class=""question-area""></div> 
                </div>","null","","","","","","","","",""
"","","","","","html-button-response","87","1003675","0.0-87.0","7EC6EC9604A74DB4B503ED8DB5DFB91F","019cf0cb-c150-742d-9c88-73fc090fc04e","019cf037-5203-781a-b900-108ccb1cab86","","720","
                <div class=""stimulus-container"">
                    <img src=""images/causal_sequence/museum_causal/museum_causal_4.png"" class=""exp-image"">
                    <div class=""question-area"">
                        <p style=""font-size: 20px; font-weight: bold; margin: 0;"">Is there a person in this image?</p>
                    </div>
                </div>","1","main_experiment_trial","4","museum_causal","causal_sequence","","","","",""
"","","","","","html-keyboard-response","88","1008678","0.0-88.0","7EC6EC9604A74DB4B503ED8DB5DFB91F","019cf0cb-c150-742d-9c88-73fc090fc04e","019cf037-5203-781a-b900-108ccb1cab86","","null","
                <div class=""stimulus-container"">
                    <img src=""images/causal_sequence/museum_causal/museum_causal_5.png"" class=""exp-image"">
                    <div class=""question-area""></div> 
                </div>","null","","","","","","","","",""
"","","","","","html-button-response","89","1009264","0.0-89.0","7EC6EC9604A74DB4B503ED8DB5DFB91F","019cf0cb-c150-742d-9c88-73fc090fc04e","019cf037-5203-781a-b900-108ccb1cab86","","585","
                <div class=""stimulus-container"">
                    <img src=""images/causal_sequence/museum_causal/museum_causal_5.png"" class=""exp-image"">
                    <div class=""question-area"">
                        <p style=""font-size: 20px; font-weight: bold; margin: 0;"">Is there a person in this image?</p>
                    </div>
                </div>","0","main_experiment_trial","5","museum_causal","causal_sequence","","","","",""
"","","","","","html-keyboard-response","90","1014265","0.0-90.0","7EC6EC9604A74DB4B503ED8DB5DFB91F","019cf0cb-c150-742d-9c88-73fc090fc04e","019cf037-5203-781a-b900-108ccb1cab86","","null","
                <div class=""stimulus-container"">
                    <img src=""images/causal_sequence/museum_causal/museum_causal_6.png"" class=""exp-image"">
                    <div class=""question-area""></div> 
                </div>","null","","","","","","","","",""
"","","","","","html-button-response","91","1014818","0.0-91.0","7EC6EC9604A74DB4B503ED8DB5DFB91F","019cf0cb-c150-742d-9c88-73fc090fc04e","019cf037-5203-781a-b900-108ccb1cab86","","553","
                <div class=""stimulus-container"">
                    <img src=""images/causal_sequence/museum_causal/museum_causal_6.png"" class=""exp-image"">
                    <div class=""question-area"">
                        <p style=""font-size: 20px; font-weight: bold; margin: 0;"">Is there a person in this image?</p>
                    </div>
                </div>","0","main_experiment_trial","6","museum_causal","causal_sequence","","","","",""
"","","","","","html-keyboard-response","92","1019822","0.0-92.0","7EC6EC9604A74DB4B503ED8DB5DFB91F","019cf0cb-c150-742d-9c88-73fc090fc04e","019cf037-5203-781a-b900-108ccb1cab86","","null","
                <div class=""stimulus-container"">
                    <img src=""images/causal_sequence/museum_causal/museum_causal_7.png"" class=""exp-image"">
                    <div class=""question-area""></div> 
                </div>","null","","","","","","","","",""
"","","","","","html-button-response","93","1020369","0.0-93.0","7EC6EC9604A74DB4B503ED8DB5DFB91F","019cf0cb-c150-742d-9c88-73fc090fc04e","019cf037-5203-781a-b900-108ccb1cab86","","547","
                <div class=""stimulus-container"">
                    <img src=""images/causal_sequence/museum_causal/museum_causal_7.png"" class=""exp-image"">
                    <div class=""question-area"">
                        <p style=""font-size: 20px; font-weight: bold; margin: 0;"">Is there a person in this image?</p>
                    </div>
                </div>","1","main_experiment_trial","7","museum_causal","causal_sequence","","","","",""
"","","","","","html-keyboard-response","94","1025371","0.0-94.0","7EC6EC9604A74DB4B503ED8DB5DFB91F","019cf0cb-c150-742d-9c88-73fc090fc04e","019cf037-5203-781a-b900-108ccb1cab86","","null","
                <div class=""stimulus-container"">
                    <img src=""images/causal_sequence/museum_causal/museum_causal_8.png"" class=""exp-image"">
                    <div class=""question-area""></div> 
                </div>","null","","","","","","","","",""
"","","","","","html-button-response","95","1025858","0.0-95.0","7EC6EC9604A74DB4B503ED8DB5DFB91F","019cf0cb-c150-742d-9c88-73fc090fc04e","019cf037-5203-781a-b900-108ccb1cab86","","487","
                <div class=""stimulus-container"">
                    <img src=""images/causal_sequence/museum_causal/museum_causal_8.png"" class=""exp-image"">
                    <div class=""question-area"">
                        <p style=""font-size: 20px; font-weight: bold; margin: 0;"">Is there a person in this image?</p>
                    </div>
                </div>","0","main_experiment_trial","8","museum_causal","causal_sequence","","","","",""
"","","","","","html-keyboard-response","96","1030859","0.0-96.0","7EC6EC9604A74DB4B503ED8DB5DFB91F","019cf0cb-c150-742d-9c88-73fc090fc04e","019cf037-5203-781a-b900-108ccb1cab86","","null","
                <div class=""stimulus-container"">
                    <img src=""images/causal_sequence/museum_causal/museum_causal_9.png"" class=""exp-image"">
                    <div class=""question-area""></div> 
                </div>","null","","","","","","","","",""
"","","","","","html-button-response","97","1031823","0.0-97.0","7EC6EC9604A74DB4B503ED8DB5DFB91F","019cf0cb-c150-742d-9c88-73fc090fc04e","019cf037-5203-781a-b900-108ccb1cab86","","964","
                <div class=""stimulus-container"">
                    <img src=""images/causal_sequence/museum_causal/museum_causal_9.png"" class=""exp-image"">
                    <div class=""question-area"">
                        <p style=""font-size: 20px; font-weight: bold; margin: 0;"">Is there a person in this image?</p>
                    </div>
                </div>","1","main_experiment_trial","9","museum_causal","causal_sequence","","","","",""
"","","","","","html-keyboard-response","98","1036824","0.0-98.0","7EC6EC9604A74DB4B503ED8DB5DFB91F","019cf0cb-c150-742d-9c88-73fc090fc04e","019cf037-5203-781a-b900-108ccb1cab86","","null","
                <div class=""stimulus-container"">
                    <img src=""images/causal_sequence/museum_causal/museum_causal_ten.png"" class=""exp-image"">
                    <div class=""question-area""></div> 
                </div>","null","","","","","","","","",""
"","","","","","html-button-response","99","1037437","0.0-99.0","7EC6EC9604A74DB4B503ED8DB5DFB91F","019cf0cb-c150-742d-9c88-73fc090fc04e","019cf037-5203-781a-b900-108ccb1cab86","","613","
                <div class=""stimulus-container"">
                    <img src=""images/causal_sequence/museum_causal/museum_causal_ten.png"" class=""exp-image"">
                    <div class=""question-area"">
                        <p style=""font-size: 20px; font-weight: bold; margin: 0;"">Is there a person in this image?</p>
                    </div>
                </div>","0","main_experiment_trial","ten","museum_causal","causal_sequence","","","","",""
"","","","","","html-keyboard-response","100","1038445","0.0-100.0","7EC6EC9604A74DB4B503ED8DB5DFB91F","019cf0cb-c150-742d-9c88-73fc090fc04e","019cf037-5203-781a-b900-108ccb1cab86","","null","<div style=""background-color: white; width: 100vw; height: 100vh;""></div>","null","","","","","","","","",""
"","","","","","html-keyboard-response","101","1043455","0.0-101.0","7EC6EC9604A74DB4B503ED8DB5DFB91F","019cf0cb-c150-742d-9c88-73fc090fc04e","019cf037-5203-781a-b900-108ccb1cab86","","null","
                <div class=""stimulus-container"">
                    <img src=""images/schematic_sequence/hotel_scheme/hotel_scheme_1.png"" class=""exp-image"">
                    <div class=""question-area""></div> 
                </div>","null","","","","","","","","",""
"","","","","","html-button-response","102","1043911","0.0-102.0","7EC6EC9604A74DB4B503ED8DB5DFB91F","019cf0cb-c150-742d-9c88-73fc090fc04e","019cf037-5203-781a-b900-108ccb1cab86","","456","
                <div class=""stimulus-container"">
                    <img src=""images/schematic_sequence/hotel_scheme/hotel_scheme_1.png"" class=""exp-image"">
                    <div class=""question-area"">
                        <p style=""font-size: 20px; font-weight: bold; margin: 0;"">Is there a person in this image?</p>
                    </div>
                </div>","1","main_experiment_trial","1","hotel_scheme","schematic_sequence","","","","",""
"","","","","","html-keyboard-response","103","1048916","0.0-103.0","7EC6EC9604A74DB4B503ED8DB5DFB91F","019cf0cb-c150-742d-9c88-73fc090fc04e","019cf037-5203-781a-b900-108ccb1cab86","","null","
                <div class=""stimulus-container"">
                    <img src=""images/schematic_sequence/hotel_scheme/hotel_scheme_2.png"" class=""exp-image"">
                    <div class=""question-area""></div> 
                </div>","null","","","","","","","","",""
"","","","","","html-button-response","104","1049440","0.0-104.0","7EC6EC9604A74DB4B503ED8DB5DFB91F","019cf0cb-c150-742d-9c88-73fc090fc04e","019cf037-5203-781a-b900-108ccb1cab86","","524","
                <div class=""stimulus-container"">
                    <img src=""images/schematic_sequence/hotel_scheme/hotel_scheme_2.png"" class=""exp-image"">
                    <div class=""question-area"">
                        <p style=""font-size: 20px; font-weight: bold; margin: 0;"">Is there a person in this image?</p>
                    </div>
                </div>","0","main_experiment_trial","2","hotel_scheme","schematic_sequence","","","","",""
"","","","","","html-keyboard-response","105","1054445","0.0-105.0","7EC6EC9604A74DB4B503ED8DB5DFB91F","019cf0cb-c150-742d-9c88-73fc090fc04e","019cf037-5203-781a-b900-108ccb1cab86","","null","
                <div class=""stimulus-container"">
                    <img src=""images/schematic_sequence/hotel_scheme/hotel_scheme_3.png"" class=""exp-image"">
                    <div class=""question-area""></div> 
                </div>","null","","","","","","","","",""
"","","","","","html-button-response","106","1054935","0.0-106.0","7EC6EC9604A74DB4B503ED8DB5DFB91F","019cf0cb-c150-742d-9c88-73fc090fc04e","019cf037-5203-781a-b900-108ccb1cab86","","489","
                <div class=""stimulus-container"">
                    <img src=""images/schematic_sequence/hotel_scheme/hotel_scheme_3.png"" class=""exp-image"">
                    <div class=""question-area"">
                        <p style=""font-size: 20px; font-weight: bold; margin: 0;"">Is there a person in this image?</p>
                    </div>
                </div>","0","main_experiment_trial","3","hotel_scheme","schematic_sequence","","","","",""
"","","","","","html-keyboard-response","107","1059944","0.0-107.0","7EC6EC9604A74DB4B503ED8DB5DFB91F","019cf0cb-c150-742d-9c88-73fc090fc04e","019cf037-5203-781a-b900-108ccb1cab86","","null","
                <div class=""stimulus-container"">
                    <img src=""images/schematic_sequence/hotel_scheme/hotel_scheme_4.png"" class=""exp-image"">
                    <div class=""question-area""></div> 
                </div>","null","","","","","","","","",""
"","","","","","html-button-response","108","1061001","0.0-108.0","7EC6EC9604A74DB4B503ED8DB5DFB91F","019cf0cb-c150-742d-9c88-73fc090fc04e","019cf037-5203-781a-b900-108ccb1cab86","","1057","
                <div class=""stimulus-container"">
                    <img src=""images/schematic_sequence/hotel_scheme/hotel_scheme_4.png"" class=""exp-image"">
                    <div class=""question-area"">
                        <p style=""font-size: 20px; font-weight: bold; margin: 0;"">Is there a person in this image?</p>
                    </div>
                </div>","1","main_experiment_trial","4","hotel_scheme","schematic_sequence","","","","",""
"","","","","","html-keyboard-response","109","1066013","0.0-109.0","7EC6EC9604A74DB4B503ED8DB5DFB91F","019cf0cb-c150-742d-9c88-73fc090fc04e","019cf037-5203-781a-b900-108ccb1cab86","","null","
                <div class=""stimulus-container"">
                    <img src=""images/schematic_sequence/hotel_scheme/hotel_scheme_5.png"" class=""exp-image"">
                    <div class=""question-area""></div> 
                </div>","null","","","","","","","","",""
"","","","","","html-button-response","110","1066851","0.0-110.0","7EC6EC9604A74DB4B503ED8DB5DFB91F","019cf0cb-c150-742d-9c88-73fc090fc04e","019cf037-5203-781a-b900-108ccb1cab86","","838","
                <div class=""stimulus-container"">
                    <img src=""images/schematic_sequence/hotel_scheme/hotel_scheme_5.png"" class=""exp-image"">
                    <div class=""question-area"">
                        <p style=""font-size: 20px; font-weight: bold; margin: 0;"">Is there a person in this image?</p>
                    </div>
                </div>","0","main_experiment_trial","5","hotel_scheme","schematic_sequence","","","","",""
"","","","","","html-keyboard-response","111","1071861","0.0-111.0","7EC6EC9604A74DB4B503ED8DB5DFB91F","019cf0cb-c150-742d-9c88-73fc090fc04e","019cf037-5203-781a-b900-108ccb1cab86","","null","
                <div class=""stimulus-container"">
                    <img src=""images/schematic_sequence/hotel_scheme/hotel_scheme_6.png"" class=""exp-image"">
                    <div class=""question-area""></div> 
                </div>","null","","","","","","","","",""
"","","","","","html-button-response","112","1072973","0.0-112.0","7EC6EC9604A74DB4B503ED8DB5DFB91F","019cf0cb-c150-742d-9c88-73fc090fc04e","019cf037-5203-781a-b900-108ccb1cab86","","1112","
                <div class=""stimulus-container"">
                    <img src=""images/schematic_sequence/hotel_scheme/hotel_scheme_6.png"" class=""exp-image"">
                    <div class=""question-area"">
                        <p style=""font-size: 20px; font-weight: bold; margin: 0;"">Is there a person in this image?</p>
                    </div>
                </div>","0","main_experiment_trial","6","hotel_scheme","schematic_sequence","","","","",""
"","","","","","html-keyboard-response","113","1077978","0.0-113.0","7EC6EC9604A74DB4B503ED8DB5DFB91F","019cf0cb-c150-742d-9c88-73fc090fc04e","019cf037-5203-781a-b900-108ccb1cab86","","null","
                <div class=""stimulus-container"">
                    <img src=""images/schematic_sequence/hotel_scheme/hotel_scheme_7.png"" class=""exp-image"">
                    <div class=""question-area""></div> 
                </div>","null","","","","","","","","",""
"","","","","","html-button-response","114","1078486","0.0-114.0","7EC6EC9604A74DB4B503ED8DB5DFB91F","019cf0cb-c150-742d-9c88-73fc090fc04e","019cf037-5203-781a-b900-108ccb1cab86","","508","
                <div class=""stimulus-container"">
                    <img src=""images/schematic_sequence/hotel_scheme/hotel_scheme_7.png"" class=""exp-image"">
                    <div class=""question-area"">
                        <p style=""font-size: 20px; font-weight: bold; margin: 0;"">Is there a person in this image?</p>
                    </div>
                </div>","0","main_experiment_trial","7","hotel_scheme","schematic_sequence","","","","",""
"","","","","","html-keyboard-response","115","1083487","0.0-115.0","7EC6EC9604A74DB4B503ED8DB5DFB91F","019cf0cb-c150-742d-9c88-73fc090fc04e","019cf037-5203-781a-b900-108ccb1cab86","","null","
                <div class=""stimulus-container"">
                    <img src=""images/schematic_sequence/hotel_scheme/hotel_scheme_8.png"" class=""exp-image"">
                    <div class=""question-area""></div> 
                </div>","null","","","","","","","","",""
"","","","","","html-button-response","116","1084347","0.0-116.0","7EC6EC9604A74DB4B503ED8DB5DFB91F","019cf0cb-c150-742d-9c88-73fc090fc04e","019cf037-5203-781a-b900-108ccb1cab86","","860","
                <div class=""stimulus-container"">
                    <img src=""images/schematic_sequence/hotel_scheme/hotel_scheme_8.png"" class=""exp-image"">
                    <div class=""question-area"">
                        <p style=""font-size: 20px; font-weight: bold; margin: 0;"">Is there a person in this image?</p>
                    </div>
                </div>","0","main_experiment_trial","8","hotel_scheme","schematic_sequence","","","","",""
"","","","","","html-keyboard-response","117","1089354","0.0-117.0","7EC6EC9604A74DB4B503ED8DB5DFB91F","019cf0cb-c150-742d-9c88-73fc090fc04e","019cf037-5203-781a-b900-108ccb1cab86","","null","
                <div class=""stimulus-container"">
                    <img src=""images/schematic_sequence/hotel_scheme/hotel_scheme_9.png"" class=""exp-image"">
                    <div class=""question-area""></div> 
                </div>","null","","","","","","","","",""
"","","","","","html-button-response","118","1089666","0.0-118.0","7EC6EC9604A74DB4B503ED8DB5DFB91F","019cf0cb-c150-742d-9c88-73fc090fc04e","019cf037-5203-781a-b900-108ccb1cab86","","312","
                <div class=""stimulus-container"">
                    <img src=""images/schematic_sequence/hotel_scheme/hotel_scheme_9.png"" class=""exp-image"">
                    <div class=""question-area"">
                        <p style=""font-size: 20px; font-weight: bold; margin: 0;"">Is there a person in this image?</p>
                    </div>
                </div>","0","main_experiment_trial","9","hotel_scheme","schematic_sequence","","","","",""
"","","","","","html-keyboard-response","119","1094667","0.0-119.0","7EC6EC9604A74DB4B503ED8DB5DFB91F","019cf0cb-c150-742d-9c88-73fc090fc04e","019cf037-5203-781a-b900-108ccb1cab86","","null","
                <div class=""stimulus-container"">
                    <img src=""images/schematic_sequence/hotel_scheme/hotel_scheme_ten.png"" class=""exp-image"">
                    <div class=""question-area""></div> 
                </div>","null","","","","","","","","",""
"","","","","","html-button-response","120","1095173","0.0-120.0","7EC6EC9604A74DB4B503ED8DB5DFB91F","019cf0cb-c150-742d-9c88-73fc090fc04e","019cf037-5203-781a-b900-108ccb1cab86","","505","
                <div class=""stimulus-container"">
                    <img src=""images/schematic_sequence/hotel_scheme/hotel_scheme_ten.png"" class=""exp-image"">
                    <div class=""question-area"">
                        <p style=""font-size: 20px; font-weight: bold; margin: 0;"">Is there a person in this image?</p>
                    </div>
                </div>","0","main_experiment_trial","ten","hotel_scheme","schematic_sequence","","","","",""
"","","","","","html-keyboard-response","121","1096183","0.0-121.0","7EC6EC9604A74DB4B503ED8DB5DFB91F","019cf0cb-c150-742d-9c88-73fc090fc04e","019cf037-5203-781a-b900-108ccb1cab86","","null","<div style=""background-color: white; width: 100vw; height: 100vh;""></div>","null","","","","","","","","",""
"","","","","","html-keyboard-response","122","1101192","0.0-122.0","7EC6EC9604A74DB4B503ED8DB5DFB91F","019cf0cb-c150-742d-9c88-73fc090fc04e","019cf037-5203-781a-b900-108ccb1cab86","","null","
                <div class=""stimulus-container"">
                    <img src=""images/schematic_sequence/restaurant_scheme/restaurant_scheme_1.png"" class=""exp-image"">
                    <div class=""question-area""></div> 
                </div>","null","","","","","","","","",""
"","","","","","html-button-response","123","1101591","0.0-123.0","7EC6EC9604A74DB4B503ED8DB5DFB91F","019cf0cb-c150-742d-9c88-73fc090fc04e","019cf037-5203-781a-b900-108ccb1cab86","","398","
                <div class=""stimulus-container"">
                    <img src=""images/schematic_sequence/restaurant_scheme/restaurant_scheme_1.png"" class=""exp-image"">
                    <div class=""question-area"">
                        <p style=""font-size: 20px; font-weight: bold; margin: 0;"">Is there a person in this image?</p>
                    </div>
                </div>","0","main_experiment_trial","1","restaurant_scheme","schematic_sequence","","","","",""
"","","","","","html-keyboard-response","124","1106606","0.0-124.0","7EC6EC9604A74DB4B503ED8DB5DFB91F","019cf0cb-c150-742d-9c88-73fc090fc04e","019cf037-5203-781a-b900-108ccb1cab86","","null","
                <div class=""stimulus-container"">
                    <img src=""images/schematic_sequence/restaurant_scheme/restaurant_scheme_2.png"" class=""exp-image"">
                    <div class=""question-area""></div> 
                </div>","null","","","","","","","","",""
"","","","","","html-button-response","125","1107124","0.0-125.0","7EC6EC9604A74DB4B503ED8DB5DFB91F","019cf0cb-c150-742d-9c88-73fc090fc04e","019cf037-5203-781a-b900-108ccb1cab86","","518","
                <div class=""stimulus-container"">
                    <img src=""images/schematic_sequence/restaurant_scheme/restaurant_scheme_2.png"" class=""exp-image"">
                    <div class=""question-area"">
                        <p style=""font-size: 20px; font-weight: bold; margin: 0;"">Is there a person in this image?</p>
                    </div>
                </div>","1","main_experiment_trial","2","restaurant_scheme","schematic_sequence","","","","",""
"","","","","","html-keyboard-response","126","1112129","0.0-126.0","7EC6EC9604A74DB4B503ED8DB5DFB91F","019cf0cb-c150-742d-9c88-73fc090fc04e","019cf037-5203-781a-b900-108ccb1cab86","","null","
                <div class=""stimulus-container"">
                    <img src=""images/schematic_sequence/restaurant_scheme/restaurant_scheme_3.png"" class=""exp-image"">
                    <div class=""question-area""></div> 
                </div>","null","","","","","","","","",""
"","","","","","html-button-response","127","1112962","0.0-127.0","7EC6EC9604A74DB4B503ED8DB5DFB91F","019cf0cb-c150-742d-9c88-73fc090fc04e","019cf037-5203-781a-b900-108ccb1cab86","","833","
                <div class=""stimulus-container"">
                    <img src=""images/schematic_sequence/restaurant_scheme/restaurant_scheme_3.png"" class=""exp-image"">
                    <div class=""question-area"">
                        <p style=""font-size: 20px; font-weight: bold; margin: 0;"">Is there a person in this image?</p>
                    </div>
                </div>","1","main_experiment_trial","3","restaurant_scheme","schematic_sequence","","","","",""
"","","","","","html-keyboard-response","128","1117964","0.0-128.0","7EC6EC9604A74DB4B503ED8DB5DFB91F","019cf0cb-c150-742d-9c88-73fc090fc04e","019cf037-5203-781a-b900-108ccb1cab86","","null","
                <div class=""stimulus-container"">
                    <img src=""images/schematic_sequence/restaurant_scheme/restaurant_scheme_4.png"" class=""exp-image"">
                    <div class=""question-area""></div> 
                </div>","null","","","","","","","","",""
"","","","","","html-button-response","129","1118455","0.0-129.0","7EC6EC9604A74DB4B503ED8DB5DFB91F","019cf0cb-c150-742d-9c88-73fc090fc04e","019cf037-5203-781a-b900-108ccb1cab86","","491","
                <div class=""stimulus-container"">
                    <img src=""images/schematic_sequence/restaurant_scheme/restaurant_scheme_4.png"" class=""exp-image"">
                    <div class=""question-area"">
                        <p style=""font-size: 20px; font-weight: bold; margin: 0;"">Is there a person in this image?</p>
                    </div>
                </div>","0","main_experiment_trial","4","restaurant_scheme","schematic_sequence","","","","",""
"","","","","","html-keyboard-response","130","1123469","0.0-130.0","7EC6EC9604A74DB4B503ED8DB5DFB91F","019cf0cb-c150-742d-9c88-73fc090fc04e","019cf037-5203-781a-b900-108ccb1cab86","","null","
                <div class=""stimulus-container"">
                    <img src=""images/schematic_sequence/restaurant_scheme/restaurant_scheme_5.png"" class=""exp-image"">
                    <div class=""question-area""></div> 
                </div>","null","","","","","","","","",""
"","","","","","html-button-response","131","1123926","0.0-131.0","7EC6EC9604A74DB4B503ED8DB5DFB91F","019cf0cb-c150-742d-9c88-73fc090fc04e","019cf037-5203-781a-b900-108ccb1cab86","","456","
                <div class=""stimulus-container"">
                    <img src=""images/schematic_sequence/restaurant_scheme/restaurant_scheme_5.png"" class=""exp-image"">
                    <div class=""question-area"">
                        <p style=""font-size: 20px; font-weight: bold; margin: 0;"">Is there a person in this image?</p>
                    </div>
                </div>","0","main_experiment_trial","5","restaurant_scheme","schematic_sequence","","","","",""
"","","","","","html-keyboard-response","132","1128933","0.0-132.0","7EC6EC9604A74DB4B503ED8DB5DFB91F","019cf0cb-c150-742d-9c88-73fc090fc04e","019cf037-5203-781a-b900-108ccb1cab86","","null","
                <div class=""stimulus-container"">
                    <img src=""images/schematic_sequence/restaurant_scheme/restaurant_scheme_6.png"" class=""exp-image"">
                    <div class=""question-area""></div> 
                </div>","null","","","","","","","","",""
"","","","","","html-button-response","133","1129417","0.0-133.0","7EC6EC9604A74DB4B503ED8DB5DFB91F","019cf0cb-c150-742d-9c88-73fc090fc04e","019cf037-5203-781a-b900-108ccb1cab86","","483","
                <div class=""stimulus-container"">
                    <img src=""images/schematic_sequence/restaurant_scheme/restaurant_scheme_6.png"" class=""exp-image"">
                    <div class=""question-area"">
                        <p style=""font-size: 20px; font-weight: bold; margin: 0;"">Is there a person in this image?</p>
                    </div>
                </div>","1","main_experiment_trial","6","restaurant_scheme","schematic_sequence","","","","",""
"","","","","","html-keyboard-response","134","1134424","0.0-134.0","7EC6EC9604A74DB4B503ED8DB5DFB91F","019cf0cb-c150-742d-9c88-73fc090fc04e","019cf037-5203-781a-b900-108ccb1cab86","","null","
                <div class=""stimulus-container"">
                    <img src=""images/schematic_sequence/restaurant_scheme/restaurant_scheme_7.png"" class=""exp-image"">
                    <div class=""question-area""></div> 
                </div>","null","","","","","","","","",""
"","","","","","html-button-response","135","1135185","0.0-135.0","7EC6EC9604A74DB4B503ED8DB5DFB91F","019cf0cb-c150-742d-9c88-73fc090fc04e","019cf037-5203-781a-b900-108ccb1cab86","","760","
                <div class=""stimulus-container"">
                    <img src=""images/schematic_sequence/restaurant_scheme/restaurant_scheme_7.png"" class=""exp-image"">
                    <div class=""question-area"">
                        <p style=""font-size: 20px; font-weight: bold; margin: 0;"">Is there a person in this image?</p>
                    </div>
                </div>","1","main_experiment_trial","7","restaurant_scheme","schematic_sequence","","","","",""
"","","","","","html-keyboard-response","136","1140195","0.0-136.0","7EC6EC9604A74DB4B503ED8DB5DFB91F","019cf0cb-c150-742d-9c88-73fc090fc04e","019cf037-5203-781a-b900-108ccb1cab86","","null","
                <div class=""stimulus-container"">
                    <img src=""images/schematic_sequence/restaurant_scheme/restaurant_scheme_8.png"" class=""exp-image"">
                    <div class=""question-area""></div> 
                </div>","null","","","","","","","","",""
"","","","","","html-button-response","137","1140649","0.0-137.0","7EC6EC9604A74DB4B503ED8DB5DFB91F","019cf0cb-c150-742d-9c88-73fc090fc04e","019cf037-5203-781a-b900-108ccb1cab86","","453","
                <div class=""stimulus-container"">
                    <img src=""images/schematic_sequence/restaurant_scheme/restaurant_scheme_8.png"" class=""exp-image"">
                    <div class=""question-area"">
                        <p style=""font-size: 20px; font-weight: bold; margin: 0;"">Is there a person in this image?</p>
                    </div>
                </div>","0","main_experiment_trial","8","restaurant_scheme","schematic_sequence","","","","",""
"","","","","","html-keyboard-response","138","1145658","0.0-138.0","7EC6EC9604A74DB4B503ED8DB5DFB91F","019cf0cb-c150-742d-9c88-73fc090fc04e","019cf037-5203-781a-b900-108ccb1cab86","","null","
                <div class=""stimulus-container"">
                    <img src=""images/schematic_sequence/restaurant_scheme/restaurant_scheme_9.png"" class=""exp-image"">
                    <div class=""question-area""></div> 
                </div>","null","","","","","","","","",""
"","","","","","html-button-response","139","1146353","0.0-139.0","7EC6EC9604A74DB4B503ED8DB5DFB91F","019cf0cb-c150-742d-9c88-73fc090fc04e","019cf037-5203-781a-b900-108ccb1cab86","","694","
                <div class=""stimulus-container"">
                    <img src=""images/schematic_sequence/restaurant_scheme/restaurant_scheme_9.png"" class=""exp-image"">
                    <div class=""question-area"">
                        <p style=""font-size: 20px; font-weight: bold; margin: 0;"">Is there a person in this image?</p>
                    </div>
                </div>","0","main_experiment_trial","9","restaurant_scheme","schematic_sequence","","","","",""
"","","","","","html-keyboard-response","140","1151354","0.0-140.0","7EC6EC9604A74DB4B503ED8DB5DFB91F","019cf0cb-c150-742d-9c88-73fc090fc04e","019cf037-5203-781a-b900-108ccb1cab86","","null","
                <div class=""stimulus-container"">
                    <img src=""images/schematic_sequence/restaurant_scheme/restaurant_scheme_ten.png"" class=""exp-image"">
                    <div class=""question-area""></div> 
                </div>","null","","","","","","","","",""
"","","","","","html-button-response","141","1151950","0.0-141.0","7EC6EC9604A74DB4B503ED8DB5DFB91F","019cf0cb-c150-742d-9c88-73fc090fc04e","019cf037-5203-781a-b900-108ccb1cab86","","595","
                <div class=""stimulus-container"">
                    <img src=""images/schematic_sequence/restaurant_scheme/restaurant_scheme_ten.png"" class=""exp-image"">
                    <div class=""question-area"">
                        <p style=""font-size: 20px; font-weight: bold; margin: 0;"">Is there a person in this image?</p>
                    </div>
                </div>","0","main_experiment_trial","ten","restaurant_scheme","schematic_sequence","","","","",""
"","","","","","html-keyboard-response","142","1152956","0.0-142.0","7EC6EC9604A74DB4B503ED8DB5DFB91F","019cf0cb-c150-742d-9c88-73fc090fc04e","019cf037-5203-781a-b900-108ccb1cab86","","null","<div style=""background-color: white; width: 100vw; height: 100vh;""></div>","null","","","","","","","","",""
"","","","","","html-keyboard-response","143","1157965","0.0-143.0","7EC6EC9604A74DB4B503ED8DB5DFB91F","019cf0cb-c150-742d-9c88-73fc090fc04e","019cf037-5203-781a-b900-108ccb1cab86","","null","
                <div class=""stimulus-container"">
                    <img src=""images/schematic_sequence/supermarket_scheme/supermarket_scheme_1.png"" class=""exp-image"">
                    <div class=""question-area""></div> 
                </div>","null","","","","","","","","",""
"","","","","","html-button-response","144","1158315","0.0-144.0","7EC6EC9604A74DB4B503ED8DB5DFB91F","019cf0cb-c150-742d-9c88-73fc090fc04e","019cf037-5203-781a-b900-108ccb1cab86","","349","
                <div class=""stimulus-container"">
                    <img src=""images/schematic_sequence/supermarket_scheme/supermarket_scheme_1.png"" class=""exp-image"">
                    <div class=""question-area"">
                        <p style=""font-size: 20px; font-weight: bold; margin: 0;"">Is there a person in this image?</p>
                    </div>
                </div>","1","main_experiment_trial","1","supermarket_scheme","schematic_sequence","","","","",""
"","","","","","html-keyboard-response","145","1163315","0.0-145.0","7EC6EC9604A74DB4B503ED8DB5DFB91F","019cf0cb-c150-742d-9c88-73fc090fc04e","019cf037-5203-781a-b900-108ccb1cab86","","null","
                <div class=""stimulus-container"">
                    <img src=""images/schematic_sequence/supermarket_scheme/supermarket_scheme_2.png"" class=""exp-image"">
                    <div class=""question-area""></div> 
                </div>","null","","","","","","","","",""
"","","","","","html-button-response","146","1163954","0.0-146.0","7EC6EC9604A74DB4B503ED8DB5DFB91F","019cf0cb-c150-742d-9c88-73fc090fc04e","019cf037-5203-781a-b900-108ccb1cab86","","638","
                <div class=""stimulus-container"">
                    <img src=""images/schematic_sequence/supermarket_scheme/supermarket_scheme_2.png"" class=""exp-image"">
                    <div class=""question-area"">
                        <p style=""font-size: 20px; font-weight: bold; margin: 0;"">Is there a person in this image?</p>
                    </div>
                </div>","1","main_experiment_trial","2","supermarket_scheme","schematic_sequence","","","","",""
"","","","","","html-keyboard-response","147","1168955","0.0-147.0","7EC6EC9604A74DB4B503ED8DB5DFB91F","019cf0cb-c150-742d-9c88-73fc090fc04e","019cf037-5203-781a-b900-108ccb1cab86","","null","
                <div class=""stimulus-container"">
                    <img src=""images/schematic_sequence/supermarket_scheme/supermarket_scheme_3.png"" class=""exp-image"">
                    <div class=""question-area""></div> 
                </div>","null","","","","","","","","",""
"","","","","","html-button-response","148","1169700","0.0-148.0","7EC6EC9604A74DB4B503ED8DB5DFB91F","019cf0cb-c150-742d-9c88-73fc090fc04e","019cf037-5203-781a-b900-108ccb1cab86","","744","
                <div class=""stimulus-container"">
                    <img src=""images/schematic_sequence/supermarket_scheme/supermarket_scheme_3.png"" class=""exp-image"">
                    <div class=""question-area"">
                        <p style=""font-size: 20px; font-weight: bold; margin: 0;"">Is there a person in this image?</p>
                    </div>
                </div>","1","main_experiment_trial","3","supermarket_scheme","schematic_sequence","","","","",""
"","","","","","html-keyboard-response","149","1174702","0.0-149.0","7EC6EC9604A74DB4B503ED8DB5DFB91F","019cf0cb-c150-742d-9c88-73fc090fc04e","019cf037-5203-781a-b900-108ccb1cab86","","null","
                <div class=""stimulus-container"">
                    <img src=""images/schematic_sequence/supermarket_scheme/supermarket_scheme_4.png"" class=""exp-image"">
                    <div class=""question-area""></div> 
                </div>","null","","","","","","","","",""
"","","","","","html-button-response","150","1175095","0.0-150.0","7EC6EC9604A74DB4B503ED8DB5DFB91F","019cf0cb-c150-742d-9c88-73fc090fc04e","019cf037-5203-781a-b900-108ccb1cab86","","393","
                <div class=""stimulus-container"">
                    <img src=""images/schematic_sequence/supermarket_scheme/supermarket_scheme_4.png"" class=""exp-image"">
                    <div class=""question-area"">
                        <p style=""font-size: 20px; font-weight: bold; margin: 0;"">Is there a person in this image?</p>
                    </div>
                </div>","0","main_experiment_trial","4","supermarket_scheme","schematic_sequence","","","","",""
"","","","","","html-keyboard-response","151","1180096","0.0-151.0","7EC6EC9604A74DB4B503ED8DB5DFB91F","019cf0cb-c150-742d-9c88-73fc090fc04e","019cf037-5203-781a-b900-108ccb1cab86","","null","
                <div class=""stimulus-container"">
                    <img src=""images/schematic_sequence/supermarket_scheme/supermarket_scheme_5.png"" class=""exp-image"">
                    <div class=""question-area""></div> 
                </div>","null","","","","","","","","",""
"","","","","","html-button-response","152","1181137","0.0-152.0","7EC6EC9604A74DB4B503ED8DB5DFB91F","019cf0cb-c150-742d-9c88-73fc090fc04e","019cf037-5203-781a-b900-108ccb1cab86","","1041","
                <div class=""stimulus-container"">
                    <img src=""images/schematic_sequence/supermarket_scheme/supermarket_scheme_5.png"" class=""exp-image"">
                    <div class=""question-area"">
                        <p style=""font-size: 20px; font-weight: bold; margin: 0;"">Is there a person in this image?</p>
                    </div>
                </div>","1","main_experiment_trial","5","supermarket_scheme","schematic_sequence","","","","",""
"","","","","","html-keyboard-response","153","1186138","0.0-153.0","7EC6EC9604A74DB4B503ED8DB5DFB91F","019cf0cb-c150-742d-9c88-73fc090fc04e","019cf037-5203-781a-b900-108ccb1cab86","","null","
                <div class=""stimulus-container"">
                    <img src=""images/schematic_sequence/supermarket_scheme/supermarket_scheme_6.png"" class=""exp-image"">
                    <div class=""question-area""></div> 
                </div>","null","","","","","","","","",""
"","","","","","html-button-response","154","1186980","0.0-154.0","7EC6EC9604A74DB4B503ED8DB5DFB91F","019cf0cb-c150-742d-9c88-73fc090fc04e","019cf037-5203-781a-b900-108ccb1cab86","","841","
                <div class=""stimulus-container"">
                    <img src=""images/schematic_sequence/supermarket_scheme/supermarket_scheme_6.png"" class=""exp-image"">
                    <div class=""question-area"">
                        <p style=""font-size: 20px; font-weight: bold; margin: 0;"">Is there a person in this image?</p>
                    </div>
                </div>","0","main_experiment_trial","6","supermarket_scheme","schematic_sequence","","","","",""
"","","","","","html-keyboard-response","155","1191987","0.0-155.0","7EC6EC9604A74DB4B503ED8DB5DFB91F","019cf0cb-c150-742d-9c88-73fc090fc04e","019cf037-5203-781a-b900-108ccb1cab86","","null","
                <div class=""stimulus-container"">
                    <img src=""images/schematic_sequence/supermarket_scheme/supermarket_scheme_7.png"" class=""exp-image"">
                    <div class=""question-area""></div> 
                </div>","null","","","","","","","","",""
"","","","","","html-button-response","156","1192576","0.0-156.0","7EC6EC9604A74DB4B503ED8DB5DFB91F","019cf0cb-c150-742d-9c88-73fc090fc04e","019cf037-5203-781a-b900-108ccb1cab86","","589","
                <div class=""stimulus-container"">
                    <img src=""images/schematic_sequence/supermarket_scheme/supermarket_scheme_7.png"" class=""exp-image"">
                    <div class=""question-area"">
                        <p style=""font-size: 20px; font-weight: bold; margin: 0;"">Is there a person in this image?</p>
                    </div>
                </div>","0","main_experiment_trial","7","supermarket_scheme","schematic_sequence","","","","",""
"","","","","","html-keyboard-response","157","1197577","0.0-157.0","7EC6EC9604A74DB4B503ED8DB5DFB91F","019cf0cb-c150-742d-9c88-73fc090fc04e","019cf037-5203-781a-b900-108ccb1cab86","","null","
                <div class=""stimulus-container"">
                    <img src=""images/schematic_sequence/supermarket_scheme/supermarket_scheme_8.png"" class=""exp-image"">
                    <div class=""question-area""></div> 
                </div>","null","","","","","","","","",""
"","","","","","html-button-response","158","1198453","0.0-158.0","7EC6EC9604A74DB4B503ED8DB5DFB91F","019cf0cb-c150-742d-9c88-73fc090fc04e","019cf037-5203-781a-b900-108ccb1cab86","","876","
                <div class=""stimulus-container"">
                    <img src=""images/schematic_sequence/supermarket_scheme/supermarket_scheme_8.png"" class=""exp-image"">
                    <div class=""question-area"">
                        <p style=""font-size: 20px; font-weight: bold; margin: 0;"">Is there a person in this image?</p>
                    </div>
                </div>","0","main_experiment_trial","8","supermarket_scheme","schematic_sequence","","","","",""
"","","","","","html-keyboard-response","159","1203454","0.0-159.0","7EC6EC9604A74DB4B503ED8DB5DFB91F","019cf0cb-c150-742d-9c88-73fc090fc04e","019cf037-5203-781a-b900-108ccb1cab86","","null","
                <div class=""stimulus-container"">
                    <img src=""images/schematic_sequence/supermarket_scheme/supermarket_scheme_9.png"" class=""exp-image"">
                    <div class=""question-area""></div> 
                </div>","null","","","","","","","","",""
"","","","","","html-button-response","160","1203852","0.0-160.0","7EC6EC9604A74DB4B503ED8DB5DFB91F","019cf0cb-c150-742d-9c88-73fc090fc04e","019cf037-5203-781a-b900-108ccb1cab86","","398","
                <div class=""stimulus-container"">
                    <img src=""images/schematic_sequence/supermarket_scheme/supermarket_scheme_9.png"" class=""exp-image"">
                    <div class=""question-area"">
                        <p style=""font-size: 20px; font-weight: bold; margin: 0;"">Is there a person in this image?</p>
                    </div>
                </div>","0","main_experiment_trial","9","supermarket_scheme","schematic_sequence","","","","",""
"","","","","","html-keyboard-response","161","1208867","0.0-161.0","7EC6EC9604A74DB4B503ED8DB5DFB91F","019cf0cb-c150-742d-9c88-73fc090fc04e","019cf037-5203-781a-b900-108ccb1cab86","","null","
                <div class=""stimulus-container"">
                    <img src=""images/schematic_sequence/supermarket_scheme/supermarket_scheme_ten.png"" class=""exp-image"">
                    <div class=""question-area""></div> 
                </div>","null","","","","","","","","",""
"","","","","","html-button-response","162","1209770","0.0-162.0","7EC6EC9604A74DB4B503ED8DB5DFB91F","019cf0cb-c150-742d-9c88-73fc090fc04e","019cf037-5203-781a-b900-108ccb1cab86","","902","
                <div class=""stimulus-container"">
                    <img src=""images/schematic_sequence/supermarket_scheme/supermarket_scheme_ten.png"" class=""exp-image"">
                    <div class=""question-area"">
                        <p style=""font-size: 20px; font-weight: bold; margin: 0;"">Is there a person in this image?</p>
                    </div>
                </div>","1","main_experiment_trial","ten","supermarket_scheme","schematic_sequence","","","","",""
"","","","","","html-keyboard-response","163","1210781","0.0-163.0","7EC6EC9604A74DB4B503ED8DB5DFB91F","019cf0cb-c150-742d-9c88-73fc090fc04e","019cf037-5203-781a-b900-108ccb1cab86","","null","<div style=""background-color: white; width: 100vw; height: 100vh;""></div>","null","","","","","","","","",""
"","","","","","html-keyboard-response","164","1215792","0.0-164.0","7EC6EC9604A74DB4B503ED8DB5DFB91F","019cf0cb-c150-742d-9c88-73fc090fc04e","019cf037-5203-781a-b900-108ccb1cab86","","null","
                <div class=""stimulus-container"">
                    <img src=""images/causal_sequence/dog_causal/dog_causal_1.png"" class=""exp-image"">
                    <div class=""question-area""></div> 
                </div>","null","","","","","","","","",""
"","","","","","html-button-response","165","1216468","0.0-165.0","7EC6EC9604A74DB4B503ED8DB5DFB91F","019cf0cb-c150-742d-9c88-73fc090fc04e","019cf037-5203-781a-b900-108ccb1cab86","","676","
                <div class=""stimulus-container"">
                    <img src=""images/causal_sequence/dog_causal/dog_causal_1.png"" class=""exp-image"">
                    <div class=""question-area"">
                        <p style=""font-size: 20px; font-weight: bold; margin: 0;"">Is there a person in this image?</p>
                    </div>
                </div>","0","main_experiment_trial","1","dog_causal","causal_sequence","","","","",""
"","","","","","html-keyboard-response","166","1221473","0.0-166.0","7EC6EC9604A74DB4B503ED8DB5DFB91F","019cf0cb-c150-742d-9c88-73fc090fc04e","019cf037-5203-781a-b900-108ccb1cab86","","null","
                <div class=""stimulus-container"">
                    <img src=""images/causal_sequence/dog_causal/dog_causal_2.png"" class=""exp-image"">
                    <div class=""question-area""></div> 
                </div>","null","","","","","","","","",""
"","","","","","html-button-response","167","1222238","0.0-167.0","7EC6EC9604A74DB4B503ED8DB5DFB91F","019cf0cb-c150-742d-9c88-73fc090fc04e","019cf037-5203-781a-b900-108ccb1cab86","","765","
                <div class=""stimulus-container"">
                    <img src=""images/causal_sequence/dog_causal/dog_causal_2.png"" class=""exp-image"">
                    <div class=""question-area"">
                        <p style=""font-size: 20px; font-weight: bold; margin: 0;"">Is there a person in this image?</p>
                    </div>
                </div>","0","main_experiment_trial","2","dog_causal","causal_sequence","","","","",""
"","","","","","html-keyboard-response","168","1227246","0.0-168.0","7EC6EC9604A74DB4B503ED8DB5DFB91F","019cf0cb-c150-742d-9c88-73fc090fc04e","019cf037-5203-781a-b900-108ccb1cab86","","null","
                <div class=""stimulus-container"">
                    <img src=""images/causal_sequence/dog_causal/dog_causal_3.png"" class=""exp-image"">
                    <div class=""question-area""></div> 
                </div>","null","","","","","","","","",""
"","","","","","html-button-response","169","1227646","0.0-169.0","7EC6EC9604A74DB4B503ED8DB5DFB91F","019cf0cb-c150-742d-9c88-73fc090fc04e","019cf037-5203-781a-b900-108ccb1cab86","","400","
                <div class=""stimulus-container"">
                    <img src=""images/causal_sequence/dog_causal/dog_causal_3.png"" class=""exp-image"">
                    <div class=""question-area"">
                        <p style=""font-size: 20px; font-weight: bold; margin: 0;"">Is there a person in this image?</p>
                    </div>
                </div>","0","main_experiment_trial","3","dog_causal","causal_sequence","","","","",""
"","","","","","html-keyboard-response","170","1232656","0.0-170.0","7EC6EC9604A74DB4B503ED8DB5DFB91F","019cf0cb-c150-742d-9c88-73fc090fc04e","019cf037-5203-781a-b900-108ccb1cab86","","null","
                <div class=""stimulus-container"">
                    <img src=""images/causal_sequence/dog_causal/dog_causal_4.png"" class=""exp-image"">
                    <div class=""question-area""></div> 
                </div>","null","","","","","","","","",""
"","","","","","html-button-response","171","1233442","0.0-171.0","7EC6EC9604A74DB4B503ED8DB5DFB91F","019cf0cb-c150-742d-9c88-73fc090fc04e","019cf037-5203-781a-b900-108ccb1cab86","","786","
                <div class=""stimulus-container"">
                    <img src=""images/causal_sequence/dog_causal/dog_causal_4.png"" class=""exp-image"">
                    <div class=""question-area"">
                        <p style=""font-size: 20px; font-weight: bold; margin: 0;"">Is there a person in this image?</p>
                    </div>
                </div>","0","main_experiment_trial","4","dog_causal","causal_sequence","","","","",""
"","","","","","html-keyboard-response","172","1238447","0.0-172.0","7EC6EC9604A74DB4B503ED8DB5DFB91F","019cf0cb-c150-742d-9c88-73fc090fc04e","019cf037-5203-781a-b900-108ccb1cab86","","null","
                <div class=""stimulus-container"">
                    <img src=""images/causal_sequence/dog_causal/dog_causal_5.png"" class=""exp-image"">
                    <div class=""question-area""></div> 
                </div>","null","","","","","","","","",""
"","","","","","html-button-response","173","1239132","0.0-173.0","7EC6EC9604A74DB4B503ED8DB5DFB91F","019cf0cb-c150-742d-9c88-73fc090fc04e","019cf037-5203-781a-b900-108ccb1cab86","","684","
                <div class=""stimulus-container"">
                    <img src=""images/causal_sequence/dog_causal/dog_causal_5.png"" class=""exp-image"">
                    <div class=""question-area"">
                        <p style=""font-size: 20px; font-weight: bold; margin: 0;"">Is there a person in this image?</p>
                    </div>
                </div>","0","main_experiment_trial","5","dog_causal","causal_sequence","","","","",""
"","","","","","html-keyboard-response","174","1244141","0.0-174.0","7EC6EC9604A74DB4B503ED8DB5DFB91F","019cf0cb-c150-742d-9c88-73fc090fc04e","019cf037-5203-781a-b900-108ccb1cab86","","null","
                <div class=""stimulus-container"">
                    <img src=""images/causal_sequence/dog_causal/dog_causal_6.png"" class=""exp-image"">
                    <div class=""question-area""></div> 
                </div>","null","","","","","","","","",""
"","","","","","html-button-response","175","1245059","0.0-175.0","7EC6EC9604A74DB4B503ED8DB5DFB91F","019cf0cb-c150-742d-9c88-73fc090fc04e","019cf037-5203-781a-b900-108ccb1cab86","","918","
                <div class=""stimulus-container"">
                    <img src=""images/causal_sequence/dog_causal/dog_causal_6.png"" class=""exp-image"">
                    <div class=""question-area"">
                        <p style=""font-size: 20px; font-weight: bold; margin: 0;"">Is there a person in this image?</p>
                    </div>
                </div>","0","main_experiment_trial","6","dog_causal","causal_sequence","","","","",""
"","","","","","html-keyboard-response","176","1250067","0.0-176.0","7EC6EC9604A74DB4B503ED8DB5DFB91F","019cf0cb-c150-742d-9c88-73fc090fc04e","019cf037-5203-781a-b900-108ccb1cab86","","null","
                <div class=""stimulus-container"">
                    <img src=""images/causal_sequence/dog_causal/dog_causal_7.png"" class=""exp-image"">
                    <div class=""question-area""></div> 
                </div>","null","","","","","","","","",""
"","","","","","html-button-response","177","1251056","0.0-177.0","7EC6EC9604A74DB4B503ED8DB5DFB91F","019cf0cb-c150-742d-9c88-73fc090fc04e","019cf037-5203-781a-b900-108ccb1cab86","","989","
                <div class=""stimulus-container"">
                    <img src=""images/causal_sequence/dog_causal/dog_causal_7.png"" class=""exp-image"">
                    <div class=""question-area"">
                        <p style=""font-size: 20px; font-weight: bold; margin: 0;"">Is there a person in this image?</p>
                    </div>
                </div>","0","main_experiment_trial","7","dog_causal","causal_sequence","","","","",""
"","","","","","html-keyboard-response","178","1256059","0.0-178.0","7EC6EC9604A74DB4B503ED8DB5DFB91F","019cf0cb-c150-742d-9c88-73fc090fc04e","019cf037-5203-781a-b900-108ccb1cab86","","null","
                <div class=""stimulus-container"">
                    <img src=""images/causal_sequence/dog_causal/dog_causal_8.png"" class=""exp-image"">
                    <div class=""question-area""></div> 
                </div>","null","","","","","","","","",""
"","","","","","html-button-response","179","1256869","0.0-179.0","7EC6EC9604A74DB4B503ED8DB5DFB91F","019cf0cb-c150-742d-9c88-73fc090fc04e","019cf037-5203-781a-b900-108ccb1cab86","","809","
                <div class=""stimulus-container"">
                    <img src=""images/causal_sequence/dog_causal/dog_causal_8.png"" class=""exp-image"">
                    <div class=""question-area"">
                        <p style=""font-size: 20px; font-weight: bold; margin: 0;"">Is there a person in this image?</p>
                    </div>
                </div>","0","main_experiment_trial","8","dog_causal","causal_sequence","","","","",""
"","","","","","html-keyboard-response","180","1261881","0.0-180.0","7EC6EC9604A74DB4B503ED8DB5DFB91F","019cf0cb-c150-742d-9c88-73fc090fc04e","019cf037-5203-781a-b900-108ccb1cab86","","null","
                <div class=""stimulus-container"">
                    <img src=""images/causal_sequence/dog_causal/dog_causal_9.png"" class=""exp-image"">
                    <div class=""question-area""></div> 
                </div>","null","","","","","","","","",""
"","","","","","html-button-response","181","1262888","0.0-181.0","7EC6EC9604A74DB4B503ED8DB5DFB91F","019cf0cb-c150-742d-9c88-73fc090fc04e","019cf037-5203-781a-b900-108ccb1cab86","","1006","
                <div class=""stimulus-container"">
                    <img src=""images/causal_sequence/dog_causal/dog_causal_9.png"" class=""exp-image"">
                    <div class=""question-area"">
                        <p style=""font-size: 20px; font-weight: bold; margin: 0;"">Is there a person in this image?</p>
                    </div>
                </div>","0","main_experiment_trial","9","dog_causal","causal_sequence","","","","",""
"","","","","","html-keyboard-response","182","1267888","0.0-182.0","7EC6EC9604A74DB4B503ED8DB5DFB91F","019cf0cb-c150-742d-9c88-73fc090fc04e","019cf037-5203-781a-b900-108ccb1cab86","","null","
                <div class=""stimulus-container"">
                    <img src=""images/causal_sequence/dog_causal/dog_causal_ten.png"" class=""exp-image"">
                    <div class=""question-area""></div> 
                </div>","null","","","","","","","","",""
"","","","","","html-button-response","183","1268479","0.0-183.0","7EC6EC9604A74DB4B503ED8DB5DFB91F","019cf0cb-c150-742d-9c88-73fc090fc04e","019cf037-5203-781a-b900-108ccb1cab86","","590","
                <div class=""stimulus-container"">
                    <img src=""images/causal_sequence/dog_causal/dog_causal_ten.png"" class=""exp-image"">
                    <div class=""question-area"">
                        <p style=""font-size: 20px; font-weight: bold; margin: 0;"">Is there a person in this image?</p>
