"success","timeout","failed_images","failed_audio","failed_video","trial_type","trial_index","time_elapsed","internal_node_id","subject_id","study_id","session_id","view_history","rt","stimulus","response","task","image_index","folder","sequence_type","presentation_order","valuable_image_index","reward_type","distance_from_x","target_X","chosen_image_index","is_x_plus_dist","correct_choice"
"true","false","[]","[]","[]","preload","0","14747","0.0-0.0","1E1EE73B383B45CCBE1C51C697D0B2BA","019d6b95-893a-78f8-a7f6-09d33cbb39c0","019d6b6d-d11f-7233-9b95-7a424dbf389f","","","","","","","","","","","","","","","",""
"","","","","","instructions","1","65709","0.0-1.0","1E1EE73B383B45CCBE1C51C697D0B2BA","019d6b95-893a-78f8-a7f6-09d33cbb39c0","019d6b6d-d11f-7233-9b95-7a424dbf389f","[{""page_index"":0,""viewing_time"":50959}]","50959","","","","","","","","","","","","","",""
"","","","","","instructions","2","84881","0.0-2.0","1E1EE73B383B45CCBE1C51C697D0B2BA","019d6b95-893a-78f8-a7f6-09d33cbb39c0","019d6b6d-d11f-7233-9b95-7a424dbf389f","[{""page_index"":0,""viewing_time"":19172}]","19172","","","","","","","","","","","","","",""
"true","","","","","fullscreen","3","142950","0.0-3.0","1E1EE73B383B45CCBE1C51C697D0B2BA","019d6b95-893a-78f8-a7f6-09d33cbb39c0","019d6b6d-d11f-7233-9b95-7a424dbf389f","","57059","","","","","","","","","","","","","",""
"","","","","","instructions","4","204575","0.0-4.0","1E1EE73B383B45CCBE1C51C697D0B2BA","019d6b95-893a-78f8-a7f6-09d33cbb39c0","019d6b6d-d11f-7233-9b95-7a424dbf389f","[{""page_index"":0,""viewing_time"":61624}]","61624","","","","","","","","","","","","","",""
"","","","","","instructions","5","209919","0.0-5.0","1E1EE73B383B45CCBE1C51C697D0B2BA","019d6b95-893a-78f8-a7f6-09d33cbb39c0","019d6b6d-d11f-7233-9b95-7a424dbf389f","[{""page_index"":0,""viewing_time"":5344}]","5344","","","","","","","","","","","","","",""
"","","","","","html-keyboard-response","6","213931","0.0-6.0","1E1EE73B383B45CCBE1C51C697D0B2BA","019d6b95-893a-78f8-a7f6-09d33cbb39c0","019d6b6d-d11f-7233-9b95-7a424dbf389f","","null","
            <div class=""stimulus-container"">
                <img src=""images/instructions/movie_1.png"" class=""exp-image"">
                <div class=""question-area""></div> 
            </div>","null","","","","","","","","","","","",""
"","","","","","html-button-response","7","216934","0.0-7.0","1E1EE73B383B45CCBE1C51C697D0B2BA","019d6b95-893a-78f8-a7f6-09d33cbb39c0","019d6b6d-d11f-7233-9b95-7a424dbf389f","","null","
            <div class=""stimulus-container"">
                <img src=""images/instructions/movie_1.png"" class=""exp-image"">
                <div class=""question-area"">
                    <p style=""font-size: 20px; font-weight: bold; margin: 0;"">Was there a person in this image?</p>
                </div>
            </div>","null","example_question","1","","","","","","","","","",""
"","","","","","html-keyboard-response","8","220942","0.0-8.0","1E1EE73B383B45CCBE1C51C697D0B2BA","019d6b95-893a-78f8-a7f6-09d33cbb39c0","019d6b6d-d11f-7233-9b95-7a424dbf389f","","null","
            <div class=""stimulus-container"">
                <img src=""images/instructions/movie_2.png"" class=""exp-image"">
                <div class=""question-area""></div> 
            </div>","null","","","","","","","","","","","",""
"","","","","","html-button-response","9","221766","0.0-9.0","1E1EE73B383B45CCBE1C51C697D0B2BA","019d6b95-893a-78f8-a7f6-09d33cbb39c0","019d6b6d-d11f-7233-9b95-7a424dbf389f","","823","
            <div class=""stimulus-container"">
                <img src=""images/instructions/movie_2.png"" class=""exp-image"">
                <div class=""question-area"">
                    <p style=""font-size: 20px; font-weight: bold; margin: 0;"">Was there a person in this image?</p>
                </div>
            </div>","0","example_question","2","","","","","","","","","",""
"","","","","","html-keyboard-response","10","225782","0.0-10.0","1E1EE73B383B45CCBE1C51C697D0B2BA","019d6b95-893a-78f8-a7f6-09d33cbb39c0","019d6b6d-d11f-7233-9b95-7a424dbf389f","","null","
            <div class=""stimulus-container"">
                <img src=""images/instructions/movie_3.png"" class=""exp-image"">
                <div class=""question-area""></div> 
            </div>","null","","","","","","","","","","","",""
"","","","","","html-button-response","11","227118","0.0-11.0","1E1EE73B383B45CCBE1C51C697D0B2BA","019d6b95-893a-78f8-a7f6-09d33cbb39c0","019d6b6d-d11f-7233-9b95-7a424dbf389f","","1334","
            <div class=""stimulus-container"">
                <img src=""images/instructions/movie_3.png"" class=""exp-image"">
                <div class=""question-area"">
                    <p style=""font-size: 20px; font-weight: bold; margin: 0;"">Was there a person in this image?</p>
                </div>
            </div>","0","example_question","3","","","","","","","","","",""
"","","","","","html-keyboard-response","12","231121","0.0-12.0","1E1EE73B383B45CCBE1C51C697D0B2BA","019d6b95-893a-78f8-a7f6-09d33cbb39c0","019d6b6d-d11f-7233-9b95-7a424dbf389f","","null","
            <div class=""stimulus-container"">
                <img src=""images/instructions/movie_4.png"" class=""exp-image"">
                <div class=""question-area""></div> 
            </div>","null","","","","","","","","","","","",""
"","","","","","html-button-response","13","232086","0.0-13.0","1E1EE73B383B45CCBE1C51C697D0B2BA","019d6b95-893a-78f8-a7f6-09d33cbb39c0","019d6b6d-d11f-7233-9b95-7a424dbf389f","","964","
            <div class=""stimulus-container"">
                <img src=""images/instructions/movie_4.png"" class=""exp-image"">
                <div class=""question-area"">
                    <p style=""font-size: 20px; font-weight: bold; margin: 0;"">Was there a person in this image?</p>
                </div>
            </div>","0","example_question","4","","","","","","","","","",""
"","","","","","instructions","14","233943","0.0-14.0","1E1EE73B383B45CCBE1C51C697D0B2BA","019d6b95-893a-78f8-a7f6-09d33cbb39c0","019d6b6d-d11f-7233-9b95-7a424dbf389f","[{""page_index"":0,""viewing_time"":1857}]","1857","","","","","","","","","","","","","",""
"","","","","","instructions","15","242904","0.0-15.0","1E1EE73B383B45CCBE1C51C697D0B2BA","019d6b95-893a-78f8-a7f6-09d33cbb39c0","019d6b6d-d11f-7233-9b95-7a424dbf389f","[{""page_index"":0,""viewing_time"":8960}]","8960","","","","","","","","","","","","","",""
"","","","","","html-keyboard-response","16","247919","0.0-16.0","1E1EE73B383B45CCBE1C51C697D0B2BA","019d6b95-893a-78f8-a7f6-09d33cbb39c0","019d6b6d-d11f-7233-9b95-7a424dbf389f","","null","<div style=""background-color: white; width: 100vw; height: 100vh;""></div>","null","","","","","","","","","","","",""
"","","","","","html-keyboard-response","17","252929","0.0-17.0","1E1EE73B383B45CCBE1C51C697D0B2BA","019d6b95-893a-78f8-a7f6-09d33cbb39c0","019d6b6d-d11f-7233-9b95-7a424dbf389f","","null","
                <div class=""stimulus-container"">
                    <img src=""semantic_sequence_notimeline/transportation_semantic/transportation_semantic_1.png"" class=""exp-image"">
                    <div class=""question-area""></div> 
                </div>","null","","","","","","","","","","","",""
"","","","","","html-button-response","18","254114","0.0-18.0","1E1EE73B383B45CCBE1C51C697D0B2BA","019d6b95-893a-78f8-a7f6-09d33cbb39c0","019d6b6d-d11f-7233-9b95-7a424dbf389f","","1183","
                <div class=""stimulus-container"">
                    <img src=""semantic_sequence_notimeline/transportation_semantic/transportation_semantic_1.png"" class=""exp-image"">
                    <div class=""question-area"">
                        <p style=""font-size: 20px; font-weight: bold; margin: 0;"">Is there a person in this image?</p>
                    </div>
                </div>","1","main_experiment_trial","1","transportation_semantic","semantic_sequence_notimeline","chronological","","","","","","",""
"","","","","","html-keyboard-response","19","259118","0.0-19.0","1E1EE73B383B45CCBE1C51C697D0B2BA","019d6b95-893a-78f8-a7f6-09d33cbb39c0","019d6b6d-d11f-7233-9b95-7a424dbf389f","","null","
                <div class=""stimulus-container"">
                    <img src=""semantic_sequence_notimeline/transportation_semantic/transportation_semantic_2.png"" class=""exp-image"">
                    <div class=""question-area""></div> 
                </div>","null","","","","","","","","","","","",""
"","","","","","html-button-response","20","260202","0.0-20.0","1E1EE73B383B45CCBE1C51C697D0B2BA","019d6b95-893a-78f8-a7f6-09d33cbb39c0","019d6b6d-d11f-7233-9b95-7a424dbf389f","","1083","
                <div class=""stimulus-container"">
                    <img src=""semantic_sequence_notimeline/transportation_semantic/transportation_semantic_2.png"" class=""exp-image"">
                    <div class=""question-area"">
                        <p style=""font-size: 20px; font-weight: bold; margin: 0;"">Is there a person in this image?</p>
                    </div>
                </div>","1","main_experiment_trial","2","transportation_semantic","semantic_sequence_notimeline","chronological","","","","","","",""
"","","","","","html-keyboard-response","21","265212","0.0-21.0","1E1EE73B383B45CCBE1C51C697D0B2BA","019d6b95-893a-78f8-a7f6-09d33cbb39c0","019d6b6d-d11f-7233-9b95-7a424dbf389f","","null","
                <div class=""stimulus-container"">
                    <img src=""semantic_sequence_notimeline/transportation_semantic/transportation_semantic_3.png"" class=""exp-image"">
                    <div class=""question-area""></div> 
                </div>","null","","","","","","","","","","","",""
"","","","","","html-button-response","22","266358","0.0-22.0","1E1EE73B383B45CCBE1C51C697D0B2BA","019d6b95-893a-78f8-a7f6-09d33cbb39c0","019d6b6d-d11f-7233-9b95-7a424dbf389f","","1146","
                <div class=""stimulus-container"">
                    <img src=""semantic_sequence_notimeline/transportation_semantic/transportation_semantic_3.png"" class=""exp-image"">
                    <div class=""question-area"">
                        <p style=""font-size: 20px; font-weight: bold; margin: 0;"">Is there a person in this image?</p>
                    </div>
                </div>","1","main_experiment_trial","3","transportation_semantic","semantic_sequence_notimeline","chronological","","","","","","",""
"","","","","","html-keyboard-response","23","271374","0.0-23.0","1E1EE73B383B45CCBE1C51C697D0B2BA","019d6b95-893a-78f8-a7f6-09d33cbb39c0","019d6b6d-d11f-7233-9b95-7a424dbf389f","","null","
                <div class=""stimulus-container"">
                    <img src=""semantic_sequence_notimeline/transportation_semantic/transportation_semantic_4.png"" class=""exp-image"">
                    <div class=""question-area""></div> 
                </div>","null","","","","","","","","","","","",""
"","","","","","html-button-response","24","272637","0.0-24.0","1E1EE73B383B45CCBE1C51C697D0B2BA","019d6b95-893a-78f8-a7f6-09d33cbb39c0","019d6b6d-d11f-7233-9b95-7a424dbf389f","","1261","
                <div class=""stimulus-container"">
                    <img src=""semantic_sequence_notimeline/transportation_semantic/transportation_semantic_4.png"" class=""exp-image"">
                    <div class=""question-area"">
                        <p style=""font-size: 20px; font-weight: bold; margin: 0;"">Is there a person in this image?</p>
                    </div>
                </div>","1","main_experiment_trial","4","transportation_semantic","semantic_sequence_notimeline","chronological","","","","","","",""
"","","","","","html-keyboard-response","25","277638","0.0-25.0","1E1EE73B383B45CCBE1C51C697D0B2BA","019d6b95-893a-78f8-a7f6-09d33cbb39c0","019d6b6d-d11f-7233-9b95-7a424dbf389f","","null","
                <div class=""stimulus-container"">
                    <img src=""semantic_sequence_notimeline/transportation_semantic/transportation_semantic_5.png"" class=""exp-image"">
                    <div class=""question-area""></div> 
                </div>","null","","","","","","","","","","","",""
"","","","","","html-button-response","26","278662","0.0-26.0","1E1EE73B383B45CCBE1C51C697D0B2BA","019d6b95-893a-78f8-a7f6-09d33cbb39c0","019d6b6d-d11f-7233-9b95-7a424dbf389f","","1023","
                <div class=""stimulus-container"">
                    <img src=""semantic_sequence_notimeline/transportation_semantic/transportation_semantic_5.png"" class=""exp-image"">
                    <div class=""question-area"">
                        <p style=""font-size: 20px; font-weight: bold; margin: 0;"">Is there a person in this image?</p>
                    </div>
                </div>","1","main_experiment_trial","5","transportation_semantic","semantic_sequence_notimeline","chronological","","","","","","",""
"","","","","","html-keyboard-response","27","283678","0.0-27.0","1E1EE73B383B45CCBE1C51C697D0B2BA","019d6b95-893a-78f8-a7f6-09d33cbb39c0","019d6b6d-d11f-7233-9b95-7a424dbf389f","","null","
                <div class=""stimulus-container"">
                    <img src=""semantic_sequence_notimeline/transportation_semantic/transportation_semantic_6.png"" class=""exp-image"">
                    <div class=""question-area""></div> 
                </div>","null","","","","","","","","","","","",""
"","","","","","html-button-response","28","284950","0.0-28.0","1E1EE73B383B45CCBE1C51C697D0B2BA","019d6b95-893a-78f8-a7f6-09d33cbb39c0","019d6b6d-d11f-7233-9b95-7a424dbf389f","","1271","
                <div class=""stimulus-container"">
                    <img src=""semantic_sequence_notimeline/transportation_semantic/transportation_semantic_6.png"" class=""exp-image"">
                    <div class=""question-area"">
                        <p style=""font-size: 20px; font-weight: bold; margin: 0;"">Is there a person in this image?</p>
                    </div>
                </div>","0","main_experiment_trial","6","transportation_semantic","semantic_sequence_notimeline","chronological","","","","","","",""
"","","","","","html-keyboard-response","29","289961","0.0-29.0","1E1EE73B383B45CCBE1C51C697D0B2BA","019d6b95-893a-78f8-a7f6-09d33cbb39c0","019d6b6d-d11f-7233-9b95-7a424dbf389f","","null","
                <div class=""stimulus-container"">
                    <img src=""semantic_sequence_notimeline/transportation_semantic/transportation_semantic_7.png"" class=""exp-image"">
                    <div class=""question-area""></div> 
                </div>","null","","","","","","","","","","","",""
"","","","","","html-button-response","30","291196","0.0-30.0","1E1EE73B383B45CCBE1C51C697D0B2BA","019d6b95-893a-78f8-a7f6-09d33cbb39c0","019d6b6d-d11f-7233-9b95-7a424dbf389f","","1234","
                <div class=""stimulus-container"">
                    <img src=""semantic_sequence_notimeline/transportation_semantic/transportation_semantic_7.png"" class=""exp-image"">
                    <div class=""question-area"">
                        <p style=""font-size: 20px; font-weight: bold; margin: 0;"">Is there a person in this image?</p>
                    </div>
                </div>","1","main_experiment_trial","7","transportation_semantic","semantic_sequence_notimeline","chronological","","","","","","",""
"","","","","","html-keyboard-response","31","296200","0.0-31.0","1E1EE73B383B45CCBE1C51C697D0B2BA","019d6b95-893a-78f8-a7f6-09d33cbb39c0","019d6b6d-d11f-7233-9b95-7a424dbf389f","","null","
                <div class=""stimulus-container"">
                    <img src=""semantic_sequence_notimeline/transportation_semantic/transportation_semantic_8.png"" class=""exp-image"">
                    <div class=""question-area""></div> 
                </div>","null","","","","","","","","","","","",""
"","","","","","html-button-response","32","297261","0.0-32.0","1E1EE73B383B45CCBE1C51C697D0B2BA","019d6b95-893a-78f8-a7f6-09d33cbb39c0","019d6b6d-d11f-7233-9b95-7a424dbf389f","","1059","
                <div class=""stimulus-container"">
                    <img src=""semantic_sequence_notimeline/transportation_semantic/transportation_semantic_8.png"" class=""exp-image"">
                    <div class=""question-area"">
                        <p style=""font-size: 20px; font-weight: bold; margin: 0;"">Is there a person in this image?</p>
                    </div>
                </div>","1","main_experiment_trial","8","transportation_semantic","semantic_sequence_notimeline","chronological","","","","","","",""
"","","","","","html-keyboard-response","33","302277","0.0-33.0","1E1EE73B383B45CCBE1C51C697D0B2BA","019d6b95-893a-78f8-a7f6-09d33cbb39c0","019d6b6d-d11f-7233-9b95-7a424dbf389f","","null","
                <div class=""stimulus-container"">
                    <img src=""semantic_sequence_notimeline/transportation_semantic/transportation_semantic_9.png"" class=""exp-image"">
                    <div class=""question-area""></div> 
                </div>","null","","","","","","","","","","","",""
"","","","","","html-button-response","34","303618","0.0-34.0","1E1EE73B383B45CCBE1C51C697D0B2BA","019d6b95-893a-78f8-a7f6-09d33cbb39c0","019d6b6d-d11f-7233-9b95-7a424dbf389f","","1340","
                <div class=""stimulus-container"">
                    <img src=""semantic_sequence_notimeline/transportation_semantic/transportation_semantic_9.png"" class=""exp-image"">
                    <div class=""question-area"">
                        <p style=""font-size: 20px; font-weight: bold; margin: 0;"">Is there a person in this image?</p>
                    </div>
                </div>","1","main_experiment_trial","9","transportation_semantic","semantic_sequence_notimeline","chronological","","","","","","",""
"","","","","","html-keyboard-response","35","308619","0.0-35.0","1E1EE73B383B45CCBE1C51C697D0B2BA","019d6b95-893a-78f8-a7f6-09d33cbb39c0","019d6b6d-d11f-7233-9b95-7a424dbf389f","","null","
                <div class=""stimulus-container"">
                    <img src=""semantic_sequence_notimeline/transportation_semantic/transportation_semantic_ten.png"" class=""exp-image"">
                    <div class=""question-area""></div> 
                </div>","null","","","","","","","","","","","",""
"","","","","","html-button-response","36","309624","0.0-36.0","1E1EE73B383B45CCBE1C51C697D0B2BA","019d6b95-893a-78f8-a7f6-09d33cbb39c0","019d6b6d-d11f-7233-9b95-7a424dbf389f","","1002","
                <div class=""stimulus-container"">
                    <img src=""semantic_sequence_notimeline/transportation_semantic/transportation_semantic_ten.png"" class=""exp-image"">
                    <div class=""question-area"">
                        <p style=""font-size: 20px; font-weight: bold; margin: 0;"">Is there a person in this image?</p>
                    </div>
                </div>","1","main_experiment_trial","ten","transportation_semantic","semantic_sequence_notimeline","chronological","","","","","","",""
"","","","","","html-keyboard-response","37","314628","0.0-37.0","1E1EE73B383B45CCBE1C51C697D0B2BA","019d6b95-893a-78f8-a7f6-09d33cbb39c0","019d6b6d-d11f-7233-9b95-7a424dbf389f","","null","<div style=""background-color: white; width: 100vw; height: 100vh;""></div>","null","","","","","","","","","","","",""
"","","","","","html-keyboard-response","38","319629","0.0-38.0","1E1EE73B383B45CCBE1C51C697D0B2BA","019d6b95-893a-78f8-a7f6-09d33cbb39c0","019d6b6d-d11f-7233-9b95-7a424dbf389f","","null","
                <div class=""stimulus-container"">
                    <img src=""semantic_sequence_notimeline/animals_semantic/animals_semantic_1.png"" class=""exp-image"">
                    <div class=""question-area""></div> 
                </div>","null","","","","","","","","","","","",""
"","","","","","html-button-response","39","321767","0.0-39.0","1E1EE73B383B45CCBE1C51C697D0B2BA","019d6b95-893a-78f8-a7f6-09d33cbb39c0","019d6b6d-d11f-7233-9b95-7a424dbf389f","","2136","
                <div class=""stimulus-container"">
                    <img src=""semantic_sequence_notimeline/animals_semantic/animals_semantic_1.png"" class=""exp-image"">
                    <div class=""question-area"">
                        <p style=""font-size: 20px; font-weight: bold; margin: 0;"">Is there a person in this image?</p>
                    </div>
                </div>","1","main_experiment_trial","1","animals_semantic","semantic_sequence_notimeline","chronological","","","","","","",""
"","","","","","html-keyboard-response","40","326768","0.0-40.0","1E1EE73B383B45CCBE1C51C697D0B2BA","019d6b95-893a-78f8-a7f6-09d33cbb39c0","019d6b6d-d11f-7233-9b95-7a424dbf389f","","null","
                <div class=""stimulus-container"">
                    <img src=""semantic_sequence_notimeline/animals_semantic/animals_semantic_2.png"" class=""exp-image"">
                    <div class=""question-area""></div> 
                </div>","null","","","","","","","","","","","",""
"","","","","","html-button-response","41","327802","0.0-41.0","1E1EE73B383B45CCBE1C51C697D0B2BA","019d6b95-893a-78f8-a7f6-09d33cbb39c0","019d6b6d-d11f-7233-9b95-7a424dbf389f","","1033","
                <div class=""stimulus-container"">
                    <img src=""semantic_sequence_notimeline/animals_semantic/animals_semantic_2.png"" class=""exp-image"">
                    <div class=""question-area"">
                        <p style=""font-size: 20px; font-weight: bold; margin: 0;"">Is there a person in this image?</p>
                    </div>
                </div>","1","main_experiment_trial","2","animals_semantic","semantic_sequence_notimeline","chronological","","","","","","",""
"","","","","","html-keyboard-response","42","332803","0.0-42.0","1E1EE73B383B45CCBE1C51C697D0B2BA","019d6b95-893a-78f8-a7f6-09d33cbb39c0","019d6b6d-d11f-7233-9b95-7a424dbf389f","","null","
                <div class=""stimulus-container"">
                    <img src=""semantic_sequence_notimeline/animals_semantic/animals_semantic_3.png"" class=""exp-image"">
                    <div class=""question-area""></div> 
                </div>","null","","","","","","","","","","","",""
"","","","","","html-button-response","43","334170","0.0-43.0","1E1EE73B383B45CCBE1C51C697D0B2BA","019d6b95-893a-78f8-a7f6-09d33cbb39c0","019d6b6d-d11f-7233-9b95-7a424dbf389f","","1365","
                <div class=""stimulus-container"">
                    <img src=""semantic_sequence_notimeline/animals_semantic/animals_semantic_3.png"" class=""exp-image"">
                    <div class=""question-area"">
                        <p style=""font-size: 20px; font-weight: bold; margin: 0;"">Is there a person in this image?</p>
                    </div>
                </div>","1","main_experiment_trial","3","animals_semantic","semantic_sequence_notimeline","chronological","","","","","","",""
"","","","","","html-keyboard-response","44","339176","0.0-44.0","1E1EE73B383B45CCBE1C51C697D0B2BA","019d6b95-893a-78f8-a7f6-09d33cbb39c0","019d6b6d-d11f-7233-9b95-7a424dbf389f","","null","
                <div class=""stimulus-container"">
                    <img src=""semantic_sequence_notimeline/animals_semantic/animals_semantic_4.png"" class=""exp-image"">
                    <div class=""question-area""></div> 
                </div>","null","","","","","","","","","","","",""
"","","","","","html-button-response","45","340562","0.0-45.0","1E1EE73B383B45CCBE1C51C697D0B2BA","019d6b95-893a-78f8-a7f6-09d33cbb39c0","019d6b6d-d11f-7233-9b95-7a424dbf389f","","1385","
                <div class=""stimulus-container"">
                    <img src=""semantic_sequence_notimeline/animals_semantic/animals_semantic_4.png"" class=""exp-image"">
                    <div class=""question-area"">
                        <p style=""font-size: 20px; font-weight: bold; margin: 0;"">Is there a person in this image?</p>
                    </div>
                </div>","1","main_experiment_trial","4","animals_semantic","semantic_sequence_notimeline","chronological","","","","","","",""
"","","","","","html-keyboard-response","46","345570","0.0-46.0","1E1EE73B383B45CCBE1C51C697D0B2BA","019d6b95-893a-78f8-a7f6-09d33cbb39c0","019d6b6d-d11f-7233-9b95-7a424dbf389f","","null","
                <div class=""stimulus-container"">
                    <img src=""semantic_sequence_notimeline/animals_semantic/animals_semantic_5.png"" class=""exp-image"">
                    <div class=""question-area""></div> 
                </div>","null","","","","","","","","","","","",""
"","","","","","html-button-response","47","346806","0.0-47.0","1E1EE73B383B45CCBE1C51C697D0B2BA","019d6b95-893a-78f8-a7f6-09d33cbb39c0","019d6b6d-d11f-7233-9b95-7a424dbf389f","","1234","
                <div class=""stimulus-container"">
                    <img src=""semantic_sequence_notimeline/animals_semantic/animals_semantic_5.png"" class=""exp-image"">
                    <div class=""question-area"">
                        <p style=""font-size: 20px; font-weight: bold; margin: 0;"">Is there a person in this image?</p>
                    </div>
                </div>","1","main_experiment_trial","5","animals_semantic","semantic_sequence_notimeline","chronological","","","","","","",""
"","","","","","html-keyboard-response","48","351823","0.0-48.0","1E1EE73B383B45CCBE1C51C697D0B2BA","019d6b95-893a-78f8-a7f6-09d33cbb39c0","019d6b6d-d11f-7233-9b95-7a424dbf389f","","null","
                <div class=""stimulus-container"">
                    <img src=""semantic_sequence_notimeline/animals_semantic/animals_semantic_6.png"" class=""exp-image"">
                    <div class=""question-area""></div> 
                </div>","null","","","","","","","","","","","",""
"","","","","","html-button-response","49","353114","0.0-49.0","1E1EE73B383B45CCBE1C51C697D0B2BA","019d6b95-893a-78f8-a7f6-09d33cbb39c0","019d6b6d-d11f-7233-9b95-7a424dbf389f","","1289","
                <div class=""stimulus-container"">
                    <img src=""semantic_sequence_notimeline/animals_semantic/animals_semantic_6.png"" class=""exp-image"">
                    <div class=""question-area"">
                        <p style=""font-size: 20px; font-weight: bold; margin: 0;"">Is there a person in this image?</p>
                    </div>
                </div>","1","main_experiment_trial","6","animals_semantic","semantic_sequence_notimeline","chronological","","","","","","",""
"","","","","","html-keyboard-response","50","358117","0.0-50.0","1E1EE73B383B45CCBE1C51C697D0B2BA","019d6b95-893a-78f8-a7f6-09d33cbb39c0","019d6b6d-d11f-7233-9b95-7a424dbf389f","","null","
                <div class=""stimulus-container"">
                    <img src=""semantic_sequence_notimeline/animals_semantic/animals_semantic_7.png"" class=""exp-image"">
                    <div class=""question-area""></div> 
                </div>","null","","","","","","","","","","","",""
"","","","","","html-button-response","51","359493","0.0-51.0","1E1EE73B383B45CCBE1C51C697D0B2BA","019d6b95-893a-78f8-a7f6-09d33cbb39c0","019d6b6d-d11f-7233-9b95-7a424dbf389f","","1375","
                <div class=""stimulus-container"">
                    <img src=""semantic_sequence_notimeline/animals_semantic/animals_semantic_7.png"" class=""exp-image"">
                    <div class=""question-area"">
                        <p style=""font-size: 20px; font-weight: bold; margin: 0;"">Is there a person in this image?</p>
                    </div>
                </div>","1","main_experiment_trial","7","animals_semantic","semantic_sequence_notimeline","chronological","","","","","","",""
"","","","","","html-keyboard-response","52","364496","0.0-52.0","1E1EE73B383B45CCBE1C51C697D0B2BA","019d6b95-893a-78f8-a7f6-09d33cbb39c0","019d6b6d-d11f-7233-9b95-7a424dbf389f","","null","
                <div class=""stimulus-container"">
                    <img src=""semantic_sequence_notimeline/animals_semantic/animals_semantic_8.png"" class=""exp-image"">
                    <div class=""question-area""></div> 
                </div>","null","","","","","","","","","","","",""
"","","","","","html-button-response","53","365876","0.0-53.0","1E1EE73B383B45CCBE1C51C697D0B2BA","019d6b95-893a-78f8-a7f6-09d33cbb39c0","019d6b6d-d11f-7233-9b95-7a424dbf389f","","1378","
                <div class=""stimulus-container"">
                    <img src=""semantic_sequence_notimeline/animals_semantic/animals_semantic_8.png"" class=""exp-image"">
                    <div class=""question-area"">
                        <p style=""font-size: 20px; font-weight: bold; margin: 0;"">Is there a person in this image?</p>
                    </div>
                </div>","1","main_experiment_trial","8","animals_semantic","semantic_sequence_notimeline","chronological","","","","","","",""
"","","","","","html-keyboard-response","54","370887","0.0-54.0","1E1EE73B383B45CCBE1C51C697D0B2BA","019d6b95-893a-78f8-a7f6-09d33cbb39c0","019d6b6d-d11f-7233-9b95-7a424dbf389f","","null","
                <div class=""stimulus-container"">
                    <img src=""semantic_sequence_notimeline/animals_semantic/animals_semantic_9.png"" class=""exp-image"">
                    <div class=""question-area""></div> 
                </div>","null","","","","","","","","","","","",""
"","","","","","html-button-response","55","372311","0.0-55.0","1E1EE73B383B45CCBE1C51C697D0B2BA","019d6b95-893a-78f8-a7f6-09d33cbb39c0","019d6b6d-d11f-7233-9b95-7a424dbf389f","","1422","
                <div class=""stimulus-container"">
                    <img src=""semantic_sequence_notimeline/animals_semantic/animals_semantic_9.png"" class=""exp-image"">
                    <div class=""question-area"">
                        <p style=""font-size: 20px; font-weight: bold; margin: 0;"">Is there a person in this image?</p>
                    </div>
                </div>","1","main_experiment_trial","9","animals_semantic","semantic_sequence_notimeline","chronological","","","","","","",""
"","","","","","html-keyboard-response","56","377325","0.0-56.0","1E1EE73B383B45CCBE1C51C697D0B2BA","019d6b95-893a-78f8-a7f6-09d33cbb39c0","019d6b6d-d11f-7233-9b95-7a424dbf389f","","null","
                <div class=""stimulus-container"">
                    <img src=""semantic_sequence_notimeline/animals_semantic/animals_semantic_ten.png"" class=""exp-image"">
                    <div class=""question-area""></div> 
                </div>","null","","","","","","","","","","","",""
"","","","","","html-button-response","57","380328","0.0-57.0","1E1EE73B383B45CCBE1C51C697D0B2BA","019d6b95-893a-78f8-a7f6-09d33cbb39c0","019d6b6d-d11f-7233-9b95-7a424dbf389f","","null","
                <div class=""stimulus-container"">
                    <img src=""semantic_sequence_notimeline/animals_semantic/animals_semantic_ten.png"" class=""exp-image"">
                    <div class=""question-area"">
                        <p style=""font-size: 20px; font-weight: bold; margin: 0;"">Is there a person in this image?</p>
                    </div>
                </div>","null","main_experiment_trial","ten","animals_semantic","semantic_sequence_notimeline","chronological","","","","","","",""
"","","","","","html-keyboard-response","58","385335","0.0-58.0","1E1EE73B383B45CCBE1C51C697D0B2BA","019d6b95-893a-78f8-a7f6-09d33cbb39c0","019d6b6d-d11f-7233-9b95-7a424dbf389f","","null","<div style=""background-color: white; width: 100vw; height: 100vh;""></div>","null","","","","","","","","","","","",""
"","","","","","html-keyboard-response","59","390338","0.0-59.0","1E1EE73B383B45CCBE1C51C697D0B2BA","019d6b95-893a-78f8-a7f6-09d33cbb39c0","019d6b6d-d11f-7233-9b95-7a424dbf389f","","null","
                <div class=""stimulus-container"">
                    <img src=""images/causal_sequence/saving_a_cat_causal/saving_a_cat_causal_1.png"" class=""exp-image"">
                    <div class=""question-area""></div> 
                </div>","null","","","","","","","","","","","",""
"","","","","","html-button-response","60","391994","0.0-60.0","1E1EE73B383B45CCBE1C51C697D0B2BA","019d6b95-893a-78f8-a7f6-09d33cbb39c0","019d6b6d-d11f-7233-9b95-7a424dbf389f","","1655","
                <div class=""stimulus-container"">
                    <img src=""images/causal_sequence/saving_a_cat_causal/saving_a_cat_causal_1.png"" class=""exp-image"">
                    <div class=""question-area"">
                        <p style=""font-size: 20px; font-weight: bold; margin: 0;"">Is there a person in this image?</p>
                    </div>
                </div>","0","main_experiment_trial","1","saving_a_cat_causal","causal_sequence","chronological","","","","","","",""
"","","","","","html-keyboard-response","61","397009","0.0-61.0","1E1EE73B383B45CCBE1C51C697D0B2BA","019d6b95-893a-78f8-a7f6-09d33cbb39c0","019d6b6d-d11f-7233-9b95-7a424dbf389f","","null","
                <div class=""stimulus-container"">
                    <img src=""images/causal_sequence/saving_a_cat_causal/saving_a_cat_causal_2.png"" class=""exp-image"">
                    <div class=""question-area""></div> 
                </div>","null","","","","","","","","","","","",""
"","","","","","html-button-response","62","398364","0.0-62.0","1E1EE73B383B45CCBE1C51C697D0B2BA","019d6b95-893a-78f8-a7f6-09d33cbb39c0","019d6b6d-d11f-7233-9b95-7a424dbf389f","","1354","
                <div class=""stimulus-container"">
                    <img src=""images/causal_sequence/saving_a_cat_causal/saving_a_cat_causal_2.png"" class=""exp-image"">
                    <div class=""question-area"">
                        <p style=""font-size: 20px; font-weight: bold; margin: 0;"">Is there a person in this image?</p>
                    </div>
                </div>","1","main_experiment_trial","2","saving_a_cat_causal","causal_sequence","chronological","","","","","","",""
"","","","","","html-keyboard-response","63","403378","0.0-63.0","1E1EE73B383B45CCBE1C51C697D0B2BA","019d6b95-893a-78f8-a7f6-09d33cbb39c0","019d6b6d-d11f-7233-9b95-7a424dbf389f","","null","
                <div class=""stimulus-container"">
                    <img src=""images/causal_sequence/saving_a_cat_causal/saving_a_cat_causal_3.png"" class=""exp-image"">
                    <div class=""question-area""></div> 
                </div>","null","","","","","","","","","","","",""
"","","","","","html-button-response","64","404348","0.0-64.0","1E1EE73B383B45CCBE1C51C697D0B2BA","019d6b95-893a-78f8-a7f6-09d33cbb39c0","019d6b6d-d11f-7233-9b95-7a424dbf389f","","968","
                <div class=""stimulus-container"">
                    <img src=""images/causal_sequence/saving_a_cat_causal/saving_a_cat_causal_3.png"" class=""exp-image"">
                    <div class=""question-area"">
                        <p style=""font-size: 20px; font-weight: bold; margin: 0;"">Is there a person in this image?</p>
                    </div>
                </div>","1","main_experiment_trial","3","saving_a_cat_causal","causal_sequence","chronological","","","","","","",""
"","","","","","html-keyboard-response","65","409362","0.0-65.0","1E1EE73B383B45CCBE1C51C697D0B2BA","019d6b95-893a-78f8-a7f6-09d33cbb39c0","019d6b6d-d11f-7233-9b95-7a424dbf389f","","null","
                <div class=""stimulus-container"">
                    <img src=""images/causal_sequence/saving_a_cat_causal/saving_a_cat_causal_4.png"" class=""exp-image"">
                    <div class=""question-area""></div> 
                </div>","null","","","","","","","","","","","",""
"","","","","","html-button-response","66","412031","0.0-66.0","1E1EE73B383B45CCBE1C51C697D0B2BA","019d6b95-893a-78f8-a7f6-09d33cbb39c0","019d6b6d-d11f-7233-9b95-7a424dbf389f","","2668","
                <div class=""stimulus-container"">
                    <img src=""images/causal_sequence/saving_a_cat_causal/saving_a_cat_causal_4.png"" class=""exp-image"">
                    <div class=""question-area"">
                        <p style=""font-size: 20px; font-weight: bold; margin: 0;"">Is there a person in this image?</p>
                    </div>
                </div>","0","main_experiment_trial","4","saving_a_cat_causal","causal_sequence","chronological","","","","","","",""
"","","","","","html-keyboard-response","67","417037","0.0-67.0","1E1EE73B383B45CCBE1C51C697D0B2BA","019d6b95-893a-78f8-a7f6-09d33cbb39c0","019d6b6d-d11f-7233-9b95-7a424dbf389f","","null","
                <div class=""stimulus-container"">
                    <img src=""images/causal_sequence/saving_a_cat_causal/saving_a_cat_causal_5.png"" class=""exp-image"">
                    <div class=""question-area""></div> 
                </div>","null","","","","","","","","","","","",""
"","","","","","html-button-response","68","418815","0.0-68.0","1E1EE73B383B45CCBE1C51C697D0B2BA","019d6b95-893a-78f8-a7f6-09d33cbb39c0","019d6b6d-d11f-7233-9b95-7a424dbf389f","","1776","
                <div class=""stimulus-container"">
                    <img src=""images/causal_sequence/saving_a_cat_causal/saving_a_cat_causal_5.png"" class=""exp-image"">
                    <div class=""question-area"">
                        <p style=""font-size: 20px; font-weight: bold; margin: 0;"">Is there a person in this image?</p>
                    </div>
                </div>","0","main_experiment_trial","5","saving_a_cat_causal","causal_sequence","chronological","","","","","","",""
"","","","","","html-keyboard-response","69","423818","0.0-69.0","1E1EE73B383B45CCBE1C51C697D0B2BA","019d6b95-893a-78f8-a7f6-09d33cbb39c0","019d6b6d-d11f-7233-9b95-7a424dbf389f","","null","
                <div class=""stimulus-container"">
                    <img src=""images/causal_sequence/saving_a_cat_causal/saving_a_cat_causal_6.png"" class=""exp-image"">
                    <div class=""question-area""></div> 
                </div>","null","","","","","","","","","","","",""
"","","","","","html-button-response","70","425325","0.0-70.0","1E1EE73B383B45CCBE1C51C697D0B2BA","019d6b95-893a-78f8-a7f6-09d33cbb39c0","019d6b6d-d11f-7233-9b95-7a424dbf389f","","1506","
                <div class=""stimulus-container"">
                    <img src=""images/causal_sequence/saving_a_cat_causal/saving_a_cat_causal_6.png"" class=""exp-image"">
                    <div class=""question-area"">
                        <p style=""font-size: 20px; font-weight: bold; margin: 0;"">Is there a person in this image?</p>
                    </div>
                </div>","0","main_experiment_trial","6","saving_a_cat_causal","causal_sequence","chronological","","","","","","",""
"","","","","","html-keyboard-response","71","430325","0.0-71.0","1E1EE73B383B45CCBE1C51C697D0B2BA","019d6b95-893a-78f8-a7f6-09d33cbb39c0","019d6b6d-d11f-7233-9b95-7a424dbf389f","","null","
                <div class=""stimulus-container"">
                    <img src=""images/causal_sequence/saving_a_cat_causal/saving_a_cat_causal_7.png"" class=""exp-image"">
                    <div class=""question-area""></div> 
                </div>","null","","","","","","","","","","","",""
"","","","","","html-button-response","72","431269","0.0-72.0","1E1EE73B383B45CCBE1C51C697D0B2BA","019d6b95-893a-78f8-a7f6-09d33cbb39c0","019d6b6d-d11f-7233-9b95-7a424dbf389f","","943","
                <div class=""stimulus-container"">
                    <img src=""images/causal_sequence/saving_a_cat_causal/saving_a_cat_causal_7.png"" class=""exp-image"">
                    <div class=""question-area"">
                        <p style=""font-size: 20px; font-weight: bold; margin: 0;"">Is there a person in this image?</p>
                    </div>
                </div>","0","main_experiment_trial","7","saving_a_cat_causal","causal_sequence","chronological","","","","","","",""
"","","","","","html-keyboard-response","73","436277","0.0-73.0","1E1EE73B383B45CCBE1C51C697D0B2BA","019d6b95-893a-78f8-a7f6-09d33cbb39c0","019d6b6d-d11f-7233-9b95-7a424dbf389f","","null","
                <div class=""stimulus-container"">
                    <img src=""images/causal_sequence/saving_a_cat_causal/saving_a_cat_causal_8.png"" class=""exp-image"">
                    <div class=""question-area""></div> 
                </div>","null","","","","","","","","","","","",""
"","","","","","html-button-response","74","439279","0.0-74.0","1E1EE73B383B45CCBE1C51C697D0B2BA","019d6b95-893a-78f8-a7f6-09d33cbb39c0","019d6b6d-d11f-7233-9b95-7a424dbf389f","","null","
                <div class=""stimulus-container"">
                    <img src=""images/causal_sequence/saving_a_cat_causal/saving_a_cat_causal_8.png"" class=""exp-image"">
                    <div class=""question-area"">
                        <p style=""font-size: 20px; font-weight: bold; margin: 0;"">Is there a person in this image?</p>
                    </div>
                </div>","null","main_experiment_trial","8","saving_a_cat_causal","causal_sequence","chronological","","","","","","",""
"","","","","","html-keyboard-response","75","444292","0.0-75.0","1E1EE73B383B45CCBE1C51C697D0B2BA","019d6b95-893a-78f8-a7f6-09d33cbb39c0","019d6b6d-d11f-7233-9b95-7a424dbf389f","","null","
                <div class=""stimulus-container"">
                    <img src=""images/causal_sequence/saving_a_cat_causal/saving_a_cat_causal_9.png"" class=""exp-image"">
                    <div class=""question-area""></div> 
                </div>","null","","","","","","","","","","","",""
"","","","","","html-button-response","76","445093","0.0-76.0","1E1EE73B383B45CCBE1C51C697D0B2BA","019d6b95-893a-78f8-a7f6-09d33cbb39c0","019d6b6d-d11f-7233-9b95-7a424dbf389f","","800","
                <div class=""stimulus-container"">
                    <img src=""images/causal_sequence/saving_a_cat_causal/saving_a_cat_causal_9.png"" class=""exp-image"">
                    <div class=""question-area"">
                        <p style=""font-size: 20px; font-weight: bold; margin: 0;"">Is there a person in this image?</p>
                    </div>
                </div>","0","main_experiment_trial","9","saving_a_cat_causal","causal_sequence","chronological","","","","","","",""
"","","","","","html-keyboard-response","77","450102","0.0-77.0","1E1EE73B383B45CCBE1C51C697D0B2BA","019d6b95-893a-78f8-a7f6-09d33cbb39c0","019d6b6d-d11f-7233-9b95-7a424dbf389f","","null","
                <div class=""stimulus-container"">
                    <img src=""images/causal_sequence/saving_a_cat_causal/saving_a_cat_causal_ten.png"" class=""exp-image"">
                    <div class=""question-area""></div> 
                </div>","null","","","","","","","","","","","",""
"","","","","","html-button-response","78","450967","0.0-78.0","1E1EE73B383B45CCBE1C51C697D0B2BA","019d6b95-893a-78f8-a7f6-09d33cbb39c0","019d6b6d-d11f-7233-9b95-7a424dbf389f","","864","
                <div class=""stimulus-container"">
                    <img src=""images/causal_sequence/saving_a_cat_causal/saving_a_cat_causal_ten.png"" class=""exp-image"">
                    <div class=""question-area"">
                        <p style=""font-size: 20px; font-weight: bold; margin: 0;"">Is there a person in this image?</p>
                    </div>
                </div>","0","main_experiment_trial","ten","saving_a_cat_causal","causal_sequence","chronological","","","","","","",""
"","","","","","html-keyboard-response","79","455972","0.0-79.0","1E1EE73B383B45CCBE1C51C697D0B2BA","019d6b95-893a-78f8-a7f6-09d33cbb39c0","019d6b6d-d11f-7233-9b95-7a424dbf389f","","null","<div style=""background-color: white; width: 100vw; height: 100vh;""></div>","null","","","","","","","","","","","",""
"","","","","","html-keyboard-response","80","460979","0.0-80.0","1E1EE73B383B45CCBE1C51C697D0B2BA","019d6b95-893a-78f8-a7f6-09d33cbb39c0","019d6b6d-d11f-7233-9b95-7a424dbf389f","","null","
                <div class=""stimulus-container"">
                    <img src=""images/causal_sequence/coin_causal/coin_causal_1.png"" class=""exp-image"">
                    <div class=""question-area""></div> 
                </div>","null","","","","","","","","","","","",""
"","","","","","html-button-response","81","462413","0.0-81.0","1E1EE73B383B45CCBE1C51C697D0B2BA","019d6b95-893a-78f8-a7f6-09d33cbb39c0","019d6b6d-d11f-7233-9b95-7a424dbf389f","","1434","
                <div class=""stimulus-container"">
                    <img src=""images/causal_sequence/coin_causal/coin_causal_1.png"" class=""exp-image"">
                    <div class=""question-area"">
                        <p style=""font-size: 20px; font-weight: bold; margin: 0;"">Is there a person in this image?</p>
                    </div>
                </div>","0","main_experiment_trial","1","coin_causal","causal_sequence","chronological","","","","","","",""
"","","","","","html-keyboard-response","82","467423","0.0-82.0","1E1EE73B383B45CCBE1C51C697D0B2BA","019d6b95-893a-78f8-a7f6-09d33cbb39c0","019d6b6d-d11f-7233-9b95-7a424dbf389f","","null","
                <div class=""stimulus-container"">
                    <img src=""images/causal_sequence/coin_causal/coin_causal_2.png"" class=""exp-image"">
                    <div class=""question-area""></div> 
                </div>","null","","","","","","","","","","","",""
"","","","","","html-button-response","83","468591","0.0-83.0","1E1EE73B383B45CCBE1C51C697D0B2BA","019d6b95-893a-78f8-a7f6-09d33cbb39c0","019d6b6d-d11f-7233-9b95-7a424dbf389f","","1166","
                <div class=""stimulus-container"">
                    <img src=""images/causal_sequence/coin_causal/coin_causal_2.png"" class=""exp-image"">
                    <div class=""question-area"">
                        <p style=""font-size: 20px; font-weight: bold; margin: 0;"">Is there a person in this image?</p>
                    </div>
                </div>","0","main_experiment_trial","2","coin_causal","causal_sequence","chronological","","","","","","",""
"","","","","","html-keyboard-response","84","473606","0.0-84.0","1E1EE73B383B45CCBE1C51C697D0B2BA","019d6b95-893a-78f8-a7f6-09d33cbb39c0","019d6b6d-d11f-7233-9b95-7a424dbf389f","","null","
                <div class=""stimulus-container"">
                    <img src=""images/causal_sequence/coin_causal/coin_causal_3.png"" class=""exp-image"">
                    <div class=""question-area""></div> 
                </div>","null","","","","","","","","","","","",""
"","","","","","html-button-response","85","475203","0.0-85.0","1E1EE73B383B45CCBE1C51C697D0B2BA","019d6b95-893a-78f8-a7f6-09d33cbb39c0","019d6b6d-d11f-7233-9b95-7a424dbf389f","","1595","
                <div class=""stimulus-container"">
                    <img src=""images/causal_sequence/coin_causal/coin_causal_3.png"" class=""exp-image"">
                    <div class=""question-area"">
                        <p style=""font-size: 20px; font-weight: bold; margin: 0;"">Is there a person in this image?</p>
                    </div>
                </div>","0","main_experiment_trial","3","coin_causal","causal_sequence","chronological","","","","","","",""
"","","","","","html-keyboard-response","86","480219","0.0-86.0","1E1EE73B383B45CCBE1C51C697D0B2BA","019d6b95-893a-78f8-a7f6-09d33cbb39c0","019d6b6d-d11f-7233-9b95-7a424dbf389f","","null","
                <div class=""stimulus-container"">
                    <img src=""images/causal_sequence/coin_causal/coin_causal_4.png"" class=""exp-image"">
                    <div class=""question-area""></div> 
                </div>","null","","","","","","","","","","","",""
"","","","","","html-button-response","87","481472","0.0-87.0","1E1EE73B383B45CCBE1C51C697D0B2BA","019d6b95-893a-78f8-a7f6-09d33cbb39c0","019d6b6d-d11f-7233-9b95-7a424dbf389f","","1252","
                <div class=""stimulus-container"">
                    <img src=""images/causal_sequence/coin_causal/coin_causal_4.png"" class=""exp-image"">
                    <div class=""question-area"">
                        <p style=""font-size: 20px; font-weight: bold; margin: 0;"">Is there a person in this image?</p>
                    </div>
                </div>","0","main_experiment_trial","4","coin_causal","causal_sequence","chronological","","","","","","",""
"","","","","","html-keyboard-response","88","486486","0.0-88.0","1E1EE73B383B45CCBE1C51C697D0B2BA","019d6b95-893a-78f8-a7f6-09d33cbb39c0","019d6b6d-d11f-7233-9b95-7a424dbf389f","","null","
                <div class=""stimulus-container"">
                    <img src=""images/causal_sequence/coin_causal/coin_causal_5.png"" class=""exp-image"">
                    <div class=""question-area""></div> 
                </div>","null","","","","","","","","","","","",""
"","","","","","html-button-response","89","487710","0.0-89.0","1E1EE73B383B45CCBE1C51C697D0B2BA","019d6b95-893a-78f8-a7f6-09d33cbb39c0","019d6b6d-d11f-7233-9b95-7a424dbf389f","","1223","
                <div class=""stimulus-container"">
                    <img src=""images/causal_sequence/coin_causal/coin_causal_5.png"" class=""exp-image"">
                    <div class=""question-area"">
                        <p style=""font-size: 20px; font-weight: bold; margin: 0;"">Is there a person in this image?</p>
                    </div>
                </div>","0","main_experiment_trial","5","coin_causal","causal_sequence","chronological","","","","","","",""
"","","","","","html-keyboard-response","90","492715","0.0-90.0","1E1EE73B383B45CCBE1C51C697D0B2BA","019d6b95-893a-78f8-a7f6-09d33cbb39c0","019d6b6d-d11f-7233-9b95-7a424dbf389f","","null","
                <div class=""stimulus-container"">
                    <img src=""images/causal_sequence/coin_causal/coin_causal_6.png"" class=""exp-image"">
                    <div class=""question-area""></div> 
                </div>","null","","","","","","","","","","","",""
"","","","","","html-button-response","91","494982","0.0-91.0","1E1EE73B383B45CCBE1C51C697D0B2BA","019d6b95-893a-78f8-a7f6-09d33cbb39c0","019d6b6d-d11f-7233-9b95-7a424dbf389f","","2267","
                <div class=""stimulus-container"">
                    <img src=""images/causal_sequence/coin_causal/coin_causal_6.png"" class=""exp-image"">
                    <div class=""question-area"">
                        <p style=""font-size: 20px; font-weight: bold; margin: 0;"">Is there a person in this image?</p>
                    </div>
                </div>","0","main_experiment_trial","6","coin_causal","causal_sequence","chronological","","","","","","",""
"","","","","","html-keyboard-response","92","499990","0.0-92.0","1E1EE73B383B45CCBE1C51C697D0B2BA","019d6b95-893a-78f8-a7f6-09d33cbb39c0","019d6b6d-d11f-7233-9b95-7a424dbf389f","","null","
                <div class=""stimulus-container"">
                    <img src=""images/causal_sequence/coin_causal/coin_causal_7.png"" class=""exp-image"">
                    <div class=""question-area""></div> 
                </div>","null","","","","","","","","","","","",""
"","","","","","html-button-response","93","502605","0.0-93.0","1E1EE73B383B45CCBE1C51C697D0B2BA","019d6b95-893a-78f8-a7f6-09d33cbb39c0","019d6b6d-d11f-7233-9b95-7a424dbf389f","","2614","
                <div class=""stimulus-container"">
                    <img src=""images/causal_sequence/coin_causal/coin_causal_7.png"" class=""exp-image"">
                    <div class=""question-area"">
                        <p style=""font-size: 20px; font-weight: bold; margin: 0;"">Is there a person in this image?</p>
                    </div>
                </div>","1","main_experiment_trial","7","coin_causal","causal_sequence","chronological","","","","","","",""
"","","","","","html-keyboard-response","94","507620","0.0-94.0","1E1EE73B383B45CCBE1C51C697D0B2BA","019d6b95-893a-78f8-a7f6-09d33cbb39c0","019d6b6d-d11f-7233-9b95-7a424dbf389f","","null","
                <div class=""stimulus-container"">
                    <img src=""images/causal_sequence/coin_causal/coin_causal_8.png"" class=""exp-image"">
                    <div class=""question-area""></div> 
                </div>","null","","","","","","","","","","","",""
"","","","","","html-button-response","95","508671","0.0-95.0","1E1EE73B383B45CCBE1C51C697D0B2BA","019d6b95-893a-78f8-a7f6-09d33cbb39c0","019d6b6d-d11f-7233-9b95-7a424dbf389f","","1049","
                <div class=""stimulus-container"">
                    <img src=""images/causal_sequence/coin_causal/coin_causal_8.png"" class=""exp-image"">
                    <div class=""question-area"">
                        <p style=""font-size: 20px; font-weight: bold; margin: 0;"">Is there a person in this image?</p>
                    </div>
                </div>","0","main_experiment_trial","8","coin_causal","causal_sequence","chronological","","","","","","",""
"","","","","","html-keyboard-response","96","513683","0.0-96.0","1E1EE73B383B45CCBE1C51C697D0B2BA","019d6b95-893a-78f8-a7f6-09d33cbb39c0","019d6b6d-d11f-7233-9b95-7a424dbf389f","","null","
                <div class=""stimulus-container"">
                    <img src=""images/causal_sequence/coin_causal/coin_causal_9.png"" class=""exp-image"">
                    <div class=""question-area""></div> 
                </div>","null","","","","","","","","","","","",""
"","","","","","html-button-response","97","515026","0.0-97.0","1E1EE73B383B45CCBE1C51C697D0B2BA","019d6b95-893a-78f8-a7f6-09d33cbb39c0","019d6b6d-d11f-7233-9b95-7a424dbf389f","","1341","
                <div class=""stimulus-container"">
                    <img src=""images/causal_sequence/coin_causal/coin_causal_9.png"" class=""exp-image"">
                    <div class=""question-area"">
                        <p style=""font-size: 20px; font-weight: bold; margin: 0;"">Is there a person in this image?</p>
                    </div>
                </div>","0","main_experiment_trial","9","coin_causal","causal_sequence","chronological","","","","","","",""
"","","","","","html-keyboard-response","98","520028","0.0-98.0","1E1EE73B383B45CCBE1C51C697D0B2BA","019d6b95-893a-78f8-a7f6-09d33cbb39c0","019d6b6d-d11f-7233-9b95-7a424dbf389f","","null","
                <div class=""stimulus-container"">
                    <img src=""images/causal_sequence/coin_causal/coin_causal_ten.png"" class=""exp-image"">
                    <div class=""question-area""></div> 
                </div>","null","","","","","","","","","","","",""
"","","","","","html-button-response","99","520911","0.0-99.0","1E1EE73B383B45CCBE1C51C697D0B2BA","019d6b95-893a-78f8-a7f6-09d33cbb39c0","019d6b6d-d11f-7233-9b95-7a424dbf389f","","882","
                <div class=""stimulus-container"">
                    <img src=""images/causal_sequence/coin_causal/coin_causal_ten.png"" class=""exp-image"">
                    <div class=""question-area"">
                        <p style=""font-size: 20px; font-weight: bold; margin: 0;"">Is there a person in this image?</p>
                    </div>
                </div>","0","main_experiment_trial","ten","coin_causal","causal_sequence","chronological","","","","","","",""
"","","","","","html-keyboard-response","100","525920","0.0-100.0","1E1EE73B383B45CCBE1C51C697D0B2BA","019d6b95-893a-78f8-a7f6-09d33cbb39c0","019d6b6d-d11f-7233-9b95-7a424dbf389f","","null","<div style=""background-color: white; width: 100vw; height: 100vh;""></div>","null","","","","","","","","","","","",""
"","","","","","html-keyboard-response","101","530937","0.0-101.0","1E1EE73B383B45CCBE1C51C697D0B2BA","019d6b95-893a-78f8-a7f6-09d33cbb39c0","019d6b6d-d11f-7233-9b95-7a424dbf389f","","null","
                <div class=""stimulus-container"">
                    <img src=""images/causal_sequence/dog_causal/dog_causal_1.png"" class=""exp-image"">
                    <div class=""question-area""></div> 
                </div>","null","","","","","","","","","","","",""
"","","","","","html-button-response","102","532071","0.0-102.0","1E1EE73B383B45CCBE1C51C697D0B2BA","019d6b95-893a-78f8-a7f6-09d33cbb39c0","019d6b6d-d11f-7233-9b95-7a424dbf389f","","1133","
                <div class=""stimulus-container"">
                    <img src=""images/causal_sequence/dog_causal/dog_causal_1.png"" class=""exp-image"">
                    <div class=""question-area"">
                        <p style=""font-size: 20px; font-weight: bold; margin: 0;"">Is there a person in this image?</p>
                    </div>
                </div>","0","main_experiment_trial","1","dog_causal","causal_sequence","chronological","","","","","","",""
"","","","","","html-keyboard-response","103","537077","0.0-103.0","1E1EE73B383B45CCBE1C51C697D0B2BA","019d6b95-893a-78f8-a7f6-09d33cbb39c0","019d6b6d-d11f-7233-9b95-7a424dbf389f","","null","
                <div class=""stimulus-container"">
                    <img src=""images/causal_sequence/dog_causal/dog_causal_2.png"" class=""exp-image"">
                    <div class=""question-area""></div> 
                </div>","null","","","","","","","","","","","",""
"","","","","","html-button-response","104","537804","0.0-104.0","1E1EE73B383B45CCBE1C51C697D0B2BA","019d6b95-893a-78f8-a7f6-09d33cbb39c0","019d6b6d-d11f-7233-9b95-7a424dbf389f","","726","
                <div class=""stimulus-container"">
                    <img src=""images/causal_sequence/dog_causal/dog_causal_2.png"" class=""exp-image"">
                    <div class=""question-area"">
                        <p style=""font-size: 20px; font-weight: bold; margin: 0;"">Is there a person in this image?</p>
                    </div>
                </div>","0","main_experiment_trial","2","dog_causal","causal_sequence","chronological","","","","","","",""
"","","","","","html-keyboard-response","105","542819","0.0-105.0","1E1EE73B383B45CCBE1C51C697D0B2BA","019d6b95-893a-78f8-a7f6-09d33cbb39c0","019d6b6d-d11f-7233-9b95-7a424dbf389f","","null","
                <div class=""stimulus-container"">
                    <img src=""images/causal_sequence/dog_causal/dog_causal_3.png"" class=""exp-image"">
                    <div class=""question-area""></div> 
                </div>","null","","","","","","","","","","","",""
"","","","","","html-button-response","106","544132","0.0-106.0","1E1EE73B383B45CCBE1C51C697D0B2BA","019d6b95-893a-78f8-a7f6-09d33cbb39c0","019d6b6d-d11f-7233-9b95-7a424dbf389f","","1312","
                <div class=""stimulus-container"">
                    <img src=""images/causal_sequence/dog_causal/dog_causal_3.png"" class=""exp-image"">
                    <div class=""question-area"">
                        <p style=""font-size: 20px; font-weight: bold; margin: 0;"">Is there a person in this image?</p>
                    </div>
                </div>","0","main_experiment_trial","3","dog_causal","causal_sequence","chronological","","","","","","",""
"","","","","","html-keyboard-response","107","549142","0.0-107.0","1E1EE73B383B45CCBE1C51C697D0B2BA","019d6b95-893a-78f8-a7f6-09d33cbb39c0","019d6b6d-d11f-7233-9b95-7a424dbf389f","","null","
                <div class=""stimulus-container"">
                    <img src=""images/causal_sequence/dog_causal/dog_causal_4.png"" class=""exp-image"">
                    <div class=""question-area""></div> 
                </div>","null","","","","","","","","","","","",""
"","","","","","html-button-response","108","549999","0.0-108.0","1E1EE73B383B45CCBE1C51C697D0B2BA","019d6b95-893a-78f8-a7f6-09d33cbb39c0","019d6b6d-d11f-7233-9b95-7a424dbf389f","","856","
                <div class=""stimulus-container"">
                    <img src=""images/causal_sequence/dog_causal/dog_causal_4.png"" class=""exp-image"">
                    <div class=""question-area"">
                        <p style=""font-size: 20px; font-weight: bold; margin: 0;"">Is there a person in this image?</p>
                    </div>
                </div>","0","main_experiment_trial","4","dog_causal","causal_sequence","chronological","","","","","","",""
"","","","","","html-keyboard-response","109","555012","0.0-109.0","1E1EE73B383B45CCBE1C51C697D0B2BA","019d6b95-893a-78f8-a7f6-09d33cbb39c0","019d6b6d-d11f-7233-9b95-7a424dbf389f","","null","
                <div class=""stimulus-container"">
                    <img src=""images/causal_sequence/dog_causal/dog_causal_5.png"" class=""exp-image"">
                    <div class=""question-area""></div> 
                </div>","null","","","","","","","","","","","",""
"","","","","","html-button-response","110","556136","0.0-110.0","1E1EE73B383B45CCBE1C51C697D0B2BA","019d6b95-893a-78f8-a7f6-09d33cbb39c0","019d6b6d-d11f-7233-9b95-7a424dbf389f","","1123","
                <div class=""stimulus-container"">
                    <img src=""images/causal_sequence/dog_causal/dog_causal_5.png"" class=""exp-image"">
                    <div class=""question-area"">
                        <p style=""font-size: 20px; font-weight: bold; margin: 0;"">Is there a person in this image?</p>
                    </div>
                </div>","0","main_experiment_trial","5","dog_causal","causal_sequence","chronological","","","","","","",""
"","","","","","html-keyboard-response","111","561149","0.0-111.0","1E1EE73B383B45CCBE1C51C697D0B2BA","019d6b95-893a-78f8-a7f6-09d33cbb39c0","019d6b6d-d11f-7233-9b95-7a424dbf389f","","null","
                <div class=""stimulus-container"">
                    <img src=""images/causal_sequence/dog_causal/dog_causal_6.png"" class=""exp-image"">
                    <div class=""question-area""></div> 
                </div>","null","","","","","","","","","","","",""
"","","","","","html-button-response","112","562405","0.0-112.0","1E1EE73B383B45CCBE1C51C697D0B2BA","019d6b95-893a-78f8-a7f6-09d33cbb39c0","019d6b6d-d11f-7233-9b95-7a424dbf389f","","1255","
                <div class=""stimulus-container"">
                    <img src=""images/causal_sequence/dog_causal/dog_causal_6.png"" class=""exp-image"">
                    <div class=""question-area"">
                        <p style=""font-size: 20px; font-weight: bold; margin: 0;"">Is there a person in this image?</p>
                    </div>
                </div>","0","main_experiment_trial","6","dog_causal","causal_sequence","chronological","","","","","","",""
"","","","","","html-keyboard-response","113","567414","0.0-113.0","1E1EE73B383B45CCBE1C51C697D0B2BA","019d6b95-893a-78f8-a7f6-09d33cbb39c0","019d6b6d-d11f-7233-9b95-7a424dbf389f","","null","
                <div class=""stimulus-container"">
                    <img src=""images/causal_sequence/dog_causal/dog_causal_7.png"" class=""exp-image"">
                    <div class=""question-area""></div> 
                </div>","null","","","","","","","","","","","",""
"","","","","","html-button-response","114","570423","0.0-114.0","1E1EE73B383B45CCBE1C51C697D0B2BA","019d6b95-893a-78f8-a7f6-09d33cbb39c0","019d6b6d-d11f-7233-9b95-7a424dbf389f","","null","
                <div class=""stimulus-container"">
                    <img src=""images/causal_sequence/dog_causal/dog_causal_7.png"" class=""exp-image"">
                    <div class=""question-area"">
                        <p style=""font-size: 20px; font-weight: bold; margin: 0;"">Is there a person in this image?</p>
                    </div>
                </div>","null","main_experiment_trial","7","dog_causal","causal_sequence","chronological","","","","","","",""
"","","","","","html-keyboard-response","115","575425","0.0-115.0","1E1EE73B383B45CCBE1C51C697D0B2BA","019d6b95-893a-78f8-a7f6-09d33cbb39c0","019d6b6d-d11f-7233-9b95-7a424dbf389f","","null","
                <div class=""stimulus-container"">
                    <img src=""images/causal_sequence/dog_causal/dog_causal_8.png"" class=""exp-image"">
                    <div class=""question-area""></div> 
                </div>","null","","","","","","","","","","","",""
"","","","","","html-button-response","116","576300","0.0-116.0","1E1EE73B383B45CCBE1C51C697D0B2BA","019d6b95-893a-78f8-a7f6-09d33cbb39c0","019d6b6d-d11f-7233-9b95-7a424dbf389f","","875","
                <div class=""stimulus-container"">
                    <img src=""images/causal_sequence/dog_causal/dog_causal_8.png"" class=""exp-image"">
                    <div class=""question-area"">
                        <p style=""font-size: 20px; font-weight: bold; margin: 0;"">Is there a person in this image?</p>
                    </div>
                </div>","0","main_experiment_trial","8","dog_causal","causal_sequence","chronological","","","","","","",""
"","","","","","html-keyboard-response","117","581308","0.0-117.0","1E1EE73B383B45CCBE1C51C697D0B2BA","019d6b95-893a-78f8-a7f6-09d33cbb39c0","019d6b6d-d11f-7233-9b95-7a424dbf389f","","null","
                <div class=""stimulus-container"">
                    <img src=""images/causal_sequence/dog_causal/dog_causal_9.png"" class=""exp-image"">
                    <div class=""question-area""></div> 
                </div>","null","","","","","","","","","","","",""
"","","","","","html-button-response","118","582076","0.0-118.0","1E1EE73B383B45CCBE1C51C697D0B2BA","019d6b95-893a-78f8-a7f6-09d33cbb39c0","019d6b6d-d11f-7233-9b95-7a424dbf389f","","767","
                <div class=""stimulus-container"">
                    <img src=""images/causal_sequence/dog_causal/dog_causal_9.png"" class=""exp-image"">
                    <div class=""question-area"">
                        <p style=""font-size: 20px; font-weight: bold; margin: 0;"">Is there a person in this image?</p>
                    </div>
                </div>","0","main_experiment_trial","9","dog_causal","causal_sequence","chronological","","","","","","",""
"","","","","","html-keyboard-response","119","587089","0.0-119.0","1E1EE73B383B45CCBE1C51C697D0B2BA","019d6b95-893a-78f8-a7f6-09d33cbb39c0","019d6b6d-d11f-7233-9b95-7a424dbf389f","","null","
                <div class=""stimulus-container"">
                    <img src=""images/causal_sequence/dog_causal/dog_causal_ten.png"" class=""exp-image"">
                    <div class=""question-area""></div> 
                </div>","null","","","","","","","","","","","",""
"","","","","","html-button-response","120","587678","0.0-120.0","1E1EE73B383B45CCBE1C51C697D0B2BA","019d6b95-893a-78f8-a7f6-09d33cbb39c0","019d6b6d-d11f-7233-9b95-7a424dbf389f","","588","
                <div class=""stimulus-container"">
                    <img src=""images/causal_sequence/dog_causal/dog_causal_ten.png"" class=""exp-image"">
                    <div class=""question-area"">
                        <p style=""font-size: 20px; font-weight: bold; margin: 0;"">Is there a person in this image?</p>
                    </div>
                </div>","0","main_experiment_trial","ten","dog_causal","causal_sequence","chronological","","","","","","",""
"","","","","","html-keyboard-response","121","592682","0.0-121.0","1E1EE73B383B45CCBE1C51C697D0B2BA","019d6b95-893a-78f8-a7f6-09d33cbb39c0","019d6b6d-d11f-7233-9b95-7a424dbf389f","","null","<div style=""background-color: white; width: 100vw; height: 100vh;""></div>","null","","","","","","","","","","","",""
"","","","","","html-keyboard-response","122","597694","0.0-122.0","1E1EE73B383B45CCBE1C51C697D0B2BA","019d6b95-893a-78f8-a7f6-09d33cbb39c0","019d6b6d-d11f-7233-9b95-7a424dbf389f","","null","
                <div class=""stimulus-container"">
                    <img src=""images/causal_sequence/the_performance_causal/the_performance_causal_1.png"" class=""exp-image"">
                    <div class=""question-area""></div> 
                </div>","null","","","","","","","","","","","",""
"","","","","","html-button-response","123","598333","0.0-123.0","1E1EE73B383B45CCBE1C51C697D0B2BA","019d6b95-893a-78f8-a7f6-09d33cbb39c0","019d6b6d-d11f-7233-9b95-7a424dbf389f","","637","
                <div class=""stimulus-container"">
                    <img src=""images/causal_sequence/the_performance_causal/the_performance_causal_1.png"" class=""exp-image"">
                    <div class=""question-area"">
                        <p style=""font-size: 20px; font-weight: bold; margin: 0;"">Is there a person in this image?</p>
                    </div>
                </div>","0","main_experiment_trial","1","the_performance_causal","causal_sequence","chronological","","","","","","",""
"","","","","","html-keyboard-response","124","603346","0.0-124.0","1E1EE73B383B45CCBE1C51C697D0B2BA","019d6b95-893a-78f8-a7f6-09d33cbb39c0","019d6b6d-d11f-7233-9b95-7a424dbf389f","","null","
                <div class=""stimulus-container"">
                    <img src=""images/causal_sequence/the_performance_causal/the_performance_causal_2.png"" class=""exp-image"">
                    <div class=""question-area""></div> 
                </div>","null","","","","","","","","","","","",""
"","","","","","html-button-response","125","604007","0.0-125.0","1E1EE73B383B45CCBE1C51C697D0B2BA","019d6b95-893a-78f8-a7f6-09d33cbb39c0","019d6b6d-d11f-7233-9b95-7a424dbf389f","","660","
                <div class=""stimulus-container"">
                    <img src=""images/causal_sequence/the_performance_causal/the_performance_causal_2.png"" class=""exp-image"">
                    <div class=""question-area"">
                        <p style=""font-size: 20px; font-weight: bold; margin: 0;"">Is there a person in this image?</p>
                    </div>
                </div>","0","main_experiment_trial","2","the_performance_causal","causal_sequence","chronological","","","","","","",""
"","","","","","html-keyboard-response","126","609017","0.0-126.0","1E1EE73B383B45CCBE1C51C697D0B2BA","019d6b95-893a-78f8-a7f6-09d33cbb39c0","019d6b6d-d11f-7233-9b95-7a424dbf389f","","null","
                <div class=""stimulus-container"">
                    <img src=""images/causal_sequence/the_performance_causal/the_performance_causal_3.png"" class=""exp-image"">
                    <div class=""question-area""></div> 
                </div>","null","","","","","","","","","","","",""
"","","","","","html-button-response","127","609935","0.0-127.0","1E1EE73B383B45CCBE1C51C697D0B2BA","019d6b95-893a-78f8-a7f6-09d33cbb39c0","019d6b6d-d11f-7233-9b95-7a424dbf389f","","917","
                <div class=""stimulus-container"">
                    <img src=""images/causal_sequence/the_performance_causal/the_performance_causal_3.png"" class=""exp-image"">
                    <div class=""question-area"">
                        <p style=""font-size: 20px; font-weight: bold; margin: 0;"">Is there a person in this image?</p>
                    </div>
                </div>","0","main_experiment_trial","3","the_performance_causal","causal_sequence","chronological","","","","","","",""
"","","","","","html-keyboard-response","128","614950","0.0-128.0","1E1EE73B383B45CCBE1C51C697D0B2BA","019d6b95-893a-78f8-a7f6-09d33cbb39c0","019d6b6d-d11f-7233-9b95-7a424dbf389f","","null","
                <div class=""stimulus-container"">
                    <img src=""images/causal_sequence/the_performance_causal/the_performance_causal_4.png"" class=""exp-image"">
                    <div class=""question-area""></div> 
                </div>","null","","","","","","","","","","","",""
"","","","","","html-button-response","129","615770","0.0-129.0","1E1EE73B383B45CCBE1C51C697D0B2BA","019d6b95-893a-78f8-a7f6-09d33cbb39c0","019d6b6d-d11f-7233-9b95-7a424dbf389f","","818","
                <div class=""stimulus-container"">
                    <img src=""images/causal_sequence/the_performance_causal/the_performance_causal_4.png"" class=""exp-image"">
                    <div class=""question-area"">
                        <p style=""font-size: 20px; font-weight: bold; margin: 0;"">Is there a person in this image?</p>
                    </div>
                </div>","0","main_experiment_trial","4","the_performance_causal","causal_sequence","chronological","","","","","","",""
"","","","","","html-keyboard-response","130","620782","0.0-130.0","1E1EE73B383B45CCBE1C51C697D0B2BA","019d6b95-893a-78f8-a7f6-09d33cbb39c0","019d6b6d-d11f-7233-9b95-7a424dbf389f","","null","
                <div class=""stimulus-container"">
                    <img src=""images/causal_sequence/the_performance_causal/the_performance_causal_5.png"" class=""exp-image"">
                    <div class=""question-area""></div> 
                </div>","null","","","","","","","","","","","",""
"","","","","","html-button-response","131","621617","0.0-131.0","1E1EE73B383B45CCBE1C51C697D0B2BA","019d6b95-893a-78f8-a7f6-09d33cbb39c0","019d6b6d-d11f-7233-9b95-7a424dbf389f","","833","
                <div class=""stimulus-container"">
                    <img src=""images/causal_sequence/the_performance_causal/the_performance_causal_5.png"" class=""exp-image"">
                    <div class=""question-area"">
                        <p style=""font-size: 20px; font-weight: bold; margin: 0;"">Is there a person in this image?</p>
                    </div>
                </div>","0","main_experiment_trial","5","the_performance_causal","causal_sequence","chronological","","","","","","",""
"","","","","","html-keyboard-response","132","626626","0.0-132.0","1E1EE73B383B45CCBE1C51C697D0B2BA","019d6b95-893a-78f8-a7f6-09d33cbb39c0","019d6b6d-d11f-7233-9b95-7a424dbf389f","","null","
                <div class=""stimulus-container"">
                    <img src=""images/causal_sequence/the_performance_causal/the_performance_causal_6.png"" class=""exp-image"">
                    <div class=""question-area""></div> 
                </div>","null","","","","","","","","","","","",""
"","","","","","html-button-response","133","627431","0.0-133.0","1E1EE73B383B45CCBE1C51C697D0B2BA","019d6b95-893a-78f8-a7f6-09d33cbb39c0","019d6b6d-d11f-7233-9b95-7a424dbf389f","","804","
                <div class=""stimulus-container"">
                    <img src=""images/causal_sequence/the_performance_causal/the_performance_causal_6.png"" class=""exp-image"">
                    <div class=""question-area"">
                        <p style=""font-size: 20px; font-weight: bold; margin: 0;"">Is there a person in this image?</p>
                    </div>
                </div>","0","main_experiment_trial","6","the_performance_causal","causal_sequence","chronological","","","","","","",""
"","","","","","html-keyboard-response","134","632440","0.0-134.0","1E1EE73B383B45CCBE1C51C697D0B2BA","019d6b95-893a-78f8-a7f6-09d33cbb39c0","019d6b6d-d11f-7233-9b95-7a424dbf389f","","null","
                <div class=""stimulus-container"">
                    <img src=""images/causal_sequence/the_performance_causal/the_performance_causal_7.png"" class=""exp-image"">
                    <div class=""question-area""></div> 
                </div>","null","","","","","","","","","","","",""
"","","","","","html-button-response","135","633735","0.0-135.0","1E1EE73B383B45CCBE1C51C697D0B2BA","019d6b95-893a-78f8-a7f6-09d33cbb39c0","019d6b6d-d11f-7233-9b95-7a424dbf389f","","1294","
                <div class=""stimulus-container"">
                    <img src=""images/causal_sequence/the_performance_causal/the_performance_causal_7.png"" class=""exp-image"">
                    <div class=""question-area"">
                        <p style=""font-size: 20px; font-weight: bold; margin: 0;"">Is there a person in this image?</p>
                    </div>
                </div>","0","main_experiment_trial","7","the_performance_causal","causal_sequence","chronological","","","","","","",""
"","","","","","html-keyboard-response","136","638749","0.0-136.0","1E1EE73B383B45CCBE1C51C697D0B2BA","019d6b95-893a-78f8-a7f6-09d33cbb39c0","019d6b6d-d11f-7233-9b95-7a424dbf389f","","null","
                <div class=""stimulus-container"">
                    <img src=""images/causal_sequence/the_performance_causal/the_performance_causal_8.png"" class=""exp-image"">
                    <div class=""question-area""></div> 
                </div>","null","","","","","","","","","","","",""
"","","","","","html-button-response","137","639754","0.0-137.0","1E1EE73B383B45CCBE1C51C697D0B2BA","019d6b95-893a-78f8-a7f6-09d33cbb39c0","019d6b6d-d11f-7233-9b95-7a424dbf389f","","1003","
                <div class=""stimulus-container"">
                    <img src=""images/causal_sequence/the_performance_causal/the_performance_causal_8.png"" class=""exp-image"">
                    <div class=""question-area"">
                        <p style=""font-size: 20px; font-weight: bold; margin: 0;"">Is there a person in this image?</p>
                    </div>
                </div>","0","main_experiment_trial","8","the_performance_causal","causal_sequence","chronological","","","","","","",""
"","","","","","html-keyboard-response","138","644762","0.0-138.0","1E1EE73B383B45CCBE1C51C697D0B2BA","019d6b95-893a-78f8-a7f6-09d33cbb39c0","019d6b6d-d11f-7233-9b95-7a424dbf389f","","null","
                <div class=""stimulus-container"">
                    <img src=""images/causal_sequence/the_performance_causal/the_performance_causal_9.png"" class=""exp-image"">
                    <div class=""question-area""></div> 
                </div>","null","","","","","","","","","","","",""
"","","","","","html-button-response","139","645487","0.0-139.0","1E1EE73B383B45CCBE1C51C697D0B2BA","019d6b95-893a-78f8-a7f6-09d33cbb39c0","019d6b6d-d11f-7233-9b95-7a424dbf389f","","724","
                <div class=""stimulus-container"">
                    <img src=""images/causal_sequence/the_performance_causal/the_performance_causal_9.png"" class=""exp-image"">
                    <div class=""question-area"">
                        <p style=""font-size: 20px; font-weight: bold; margin: 0;"">Is there a person in this image?</p>
                    </div>
                </div>","0","main_experiment_trial","9","the_performance_causal","causal_sequence","chronological","","","","","","",""
"","","","","","html-keyboard-response","140","650503","0.0-140.0","1E1EE73B383B45CCBE1C51C697D0B2BA","019d6b95-893a-78f8-a7f6-09d33cbb39c0","019d6b6d-d11f-7233-9b95-7a424dbf389f","","null","
                <div class=""stimulus-container"">
                    <img src=""images/causal_sequence/the_performance_causal/the_performance_causal_ten.png"" class=""exp-image"">
                    <div class=""question-area""></div> 
                </div>","null","","","","","","","","","","","",""
"","","","","","html-button-response","141","651342","0.0-141.0","1E1EE73B383B45CCBE1C51C697D0B2BA","019d6b95-893a-78f8-a7f6-09d33cbb39c0","019d6b6d-d11f-7233-9b95-7a424dbf389f","","838","
                <div class=""stimulus-container"">
                    <img src=""images/causal_sequence/the_performance_causal/the_performance_causal_ten.png"" class=""exp-image"">
                    <div class=""question-area"">
                        <p style=""font-size: 20px; font-weight: bold; margin: 0;"">Is there a person in this image?</p>
                    </div>
                </div>","0","main_experiment_trial","ten","the_performance_causal","causal_sequence","chronological","","","","","","",""
"","","","","","html-keyboard-response","142","656356","0.0-142.0","1E1EE73B383B45CCBE1C51C697D0B2BA","019d6b95-893a-78f8-a7f6-09d33cbb39c0","019d6b6d-d11f-7233-9b95-7a424dbf389f","","null","<div style=""background-color: white; width: 100vw; height: 100vh;""></div>","null","","","","","","","","","","","",""
"","","","","","html-keyboard-response","143","661372","0.0-143.0","1E1EE73B383B45CCBE1C51C697D0B2BA","019d6b95-893a-78f8-a7f6-09d33cbb39c0","019d6b6d-d11f-7233-9b95-7a424dbf389f","","null","
                <div class=""stimulus-container"">
                    <img src=""images/causal_sequence/package_causal/package_causal_1.png"" class=""exp-image"">
                    <div class=""question-area""></div> 
                </div>","null","","","","","","","","","","","",""
"","","","","","html-button-response","144","662735","0.0-144.0","1E1EE73B383B45CCBE1C51C697D0B2BA","019d6b95-893a-78f8-a7f6-09d33cbb39c0","019d6b6d-d11f-7233-9b95-7a424dbf389f","","1361","
                <div class=""stimulus-container"">
                    <img src=""images/causal_sequence/package_causal/package_causal_1.png"" class=""exp-image"">
                    <div class=""question-area"">
                        <p style=""font-size: 20px; font-weight: bold; margin: 0;"">Is there a person in this image?</p>
                    </div>
                </div>","0","main_experiment_trial","1","package_causal","causal_sequence","chronological","","","","","","",""
"","","","","","html-keyboard-response","145","667741","0.0-145.0","1E1EE73B383B45CCBE1C51C697D0B2BA","019d6b95-893a-78f8-a7f6-09d33cbb39c0","019d6b6d-d11f-7233-9b95-7a424dbf389f","","null","
                <div class=""stimulus-container"">
                    <img src=""images/causal_sequence/package_causal/package_causal_2.png"" class=""exp-image"">
                    <div class=""question-area""></div> 
                </div>","null","","","","","","","","","","","",""
"","","","","","html-button-response","146","668669","0.0-146.0","1E1EE73B383B45CCBE1C51C697D0B2BA","019d6b95-893a-78f8-a7f6-09d33cbb39c0","019d6b6d-d11f-7233-9b95-7a424dbf389f","","928","
                <div class=""stimulus-container"">
                    <img src=""images/causal_sequence/package_causal/package_causal_2.png"" class=""exp-image"">
                    <div class=""question-area"">
                        <p style=""font-size: 20px; font-weight: bold; margin: 0;"">Is there a person in this image?</p>
                    </div>
                </div>","0","main_experiment_trial","2","package_causal","causal_sequence","chronological","","","","","","",""
"","","","","","html-keyboard-response","147","673671","0.0-147.0","1E1EE73B383B45CCBE1C51C697D0B2BA","019d6b95-893a-78f8-a7f6-09d33cbb39c0","019d6b6d-d11f-7233-9b95-7a424dbf389f","","null","
                <div class=""stimulus-container"">
                    <img src=""images/causal_sequence/package_causal/package_causal_3.png"" class=""exp-image"">
                    <div class=""question-area""></div> 
                </div>","null","","","","","","","","","","","",""
"","","","","","html-button-response","148","674687","0.0-148.0","1E1EE73B383B45CCBE1C51C697D0B2BA","019d6b95-893a-78f8-a7f6-09d33cbb39c0","019d6b6d-d11f-7233-9b95-7a424dbf389f","","1015","
                <div class=""stimulus-container"">
                    <img src=""images/causal_sequence/package_causal/package_causal_3.png"" class=""exp-image"">
                    <div class=""question-area"">
                        <p style=""font-size: 20px; font-weight: bold; margin: 0;"">Is there a person in this image?</p>
                    </div>
                </div>","0","main_experiment_trial","3","package_causal","causal_sequence","chronological","","","","","","",""
"","","","","","html-keyboard-response","149","679702","0.0-149.0","1E1EE73B383B45CCBE1C51C697D0B2BA","019d6b95-893a-78f8-a7f6-09d33cbb39c0","019d6b6d-d11f-7233-9b95-7a424dbf389f","","null","
                <div class=""stimulus-container"">
                    <img src=""images/causal_sequence/package_causal/package_causal_4.png"" class=""exp-image"">
                    <div class=""question-area""></div> 
                </div>","null","","","","","","","","","","","",""
"","","","","","html-button-response","150","681218","0.0-150.0","1E1EE73B383B45CCBE1C51C697D0B2BA","019d6b95-893a-78f8-a7f6-09d33cbb39c0","019d6b6d-d11f-7233-9b95-7a424dbf389f","","1515","
                <div class=""stimulus-container"">
                    <img src=""images/causal_sequence/package_causal/package_causal_4.png"" class=""exp-image"">
                    <div class=""question-area"">
                        <p style=""font-size: 20px; font-weight: bold; margin: 0;"">Is there a person in this image?</p>
                    </div>
                </div>","1","main_experiment_trial","4","package_causal","causal_sequence","chronological","","","","","","",""
"","","","","","html-keyboard-response","151","686222","0.0-151.0","1E1EE73B383B45CCBE1C51C697D0B2BA","019d6b95-893a-78f8-a7f6-09d33cbb39c0","019d6b6d-d11f-7233-9b95-7a424dbf389f","","null","
                <div class=""stimulus-container"">
                    <img src=""images/causal_sequence/package_causal/package_causal_5.png"" class=""exp-image"">
                    <div class=""question-area""></div> 
                </div>","null","","","","","","","","","","","",""
"","","","","","html-button-response","152","687714","0.0-152.0","1E1EE73B383B45CCBE1C51C697D0B2BA","019d6b95-893a-78f8-a7f6-09d33cbb39c0","019d6b6d-d11f-7233-9b95-7a424dbf389f","","1491","
                <div class=""stimulus-container"">
                    <img src=""images/causal_sequence/package_causal/package_causal_5.png"" class=""exp-image"">
                    <div class=""question-area"">
                        <p style=""font-size: 20px; font-weight: bold; margin: 0;"">Is there a person in this image?</p>
                    </div>
                </div>","0","main_experiment_trial","5","package_causal","causal_sequence","chronological","","","","","","",""
"","","","","","html-keyboard-response","153","692730","0.0-153.0","1E1EE73B383B45CCBE1C51C697D0B2BA","019d6b95-893a-78f8-a7f6-09d33cbb39c0","019d6b6d-d11f-7233-9b95-7a424dbf389f","","null","
                <div class=""stimulus-container"">
                    <img src=""images/causal_sequence/package_causal/package_causal_6.png"" class=""exp-image"">
                    <div class=""question-area""></div> 
                </div>","null","","","","","","","","","","","",""
"","","","","","html-button-response","154","693521","0.0-154.0","1E1EE73B383B45CCBE1C51C697D0B2BA","019d6b95-893a-78f8-a7f6-09d33cbb39c0","019d6b6d-d11f-7233-9b95-7a424dbf389f","","790","
                <div class=""stimulus-container"">
                    <img src=""images/causal_sequence/package_causal/package_causal_6.png"" class=""exp-image"">
                    <div class=""question-area"">
                        <p style=""font-size: 20px; font-weight: bold; margin: 0;"">Is there a person in this image?</p>
                    </div>
                </div>","0","main_experiment_trial","6","package_causal","causal_sequence","chronological","","","","","","",""
"","","","","","html-keyboard-response","155","698533","0.0-155.0","1E1EE73B383B45CCBE1C51C697D0B2BA","019d6b95-893a-78f8-a7f6-09d33cbb39c0","019d6b6d-d11f-7233-9b95-7a424dbf389f","","null","
                <div class=""stimulus-container"">
                    <img src=""images/causal_sequence/package_causal/package_causal_7.png"" class=""exp-image"">
                    <div class=""question-area""></div> 
                </div>","null","","","","","","","","","","","",""
"","","","","","html-button-response","156","699386","0.0-156.0","1E1EE73B383B45CCBE1C51C697D0B2BA","019d6b95-893a-78f8-a7f6-09d33cbb39c0","019d6b6d-d11f-7233-9b95-7a424dbf389f","","852","
                <div class=""stimulus-container"">
                    <img src=""images/causal_sequence/package_causal/package_causal_7.png"" class=""exp-image"">
                    <div class=""question-area"">
                        <p style=""font-size: 20px; font-weight: bold; margin: 0;"">Is there a person in this image?</p>
                    </div>
                </div>","0","main_experiment_trial","7","package_causal","causal_sequence","chronological","","","","","","",""
"","","","","","html-keyboard-response","157","704401","0.0-157.0","1E1EE73B383B45CCBE1C51C697D0B2BA","019d6b95-893a-78f8-a7f6-09d33cbb39c0","019d6b6d-d11f-7233-9b95-7a424dbf389f","","null","
                <div class=""stimulus-container"">
                    <img src=""images/causal_sequence/package_causal/package_causal_8.png"" class=""exp-image"">
                    <div class=""question-area""></div> 
                </div>","null","","","","","","","","","","","",""
"","","","","","html-button-response","158","705119","0.0-158.0","1E1EE73B383B45CCBE1C51C697D0B2BA","019d6b95-893a-78f8-a7f6-09d33cbb39c0","019d6b6d-d11f-7233-9b95-7a424dbf389f","","717","
                <div class=""stimulus-container"">
                    <img src=""images/causal_sequence/package_causal/package_causal_8.png"" class=""exp-image"">
                    <div class=""question-area"">
                        <p style=""font-size: 20px; font-weight: bold; margin: 0;"">Is there a person in this image?</p>
                    </div>
                </div>","0","main_experiment_trial","8","package_causal","causal_sequence","chronological","","","","","","",""
"","","","","","html-keyboard-response","159","710134","0.0-159.0","1E1EE73B383B45CCBE1C51C697D0B2BA","019d6b95-893a-78f8-a7f6-09d33cbb39c0","019d6b6d-d11f-7233-9b95-7a424dbf389f","","null","
                <div class=""stimulus-container"">
                    <img src=""images/causal_sequence/package_causal/package_causal_9.png"" class=""exp-image"">
                    <div class=""question-area""></div> 
                </div>","null","","","","","","","","","","","",""
"","","","","","html-button-response","160","712687","0.0-160.0","1E1EE73B383B45CCBE1C51C697D0B2BA","019d6b95-893a-78f8-a7f6-09d33cbb39c0","019d6b6d-d11f-7233-9b95-7a424dbf389f","","2552","
                <div class=""stimulus-container"">
                    <img src=""images/causal_sequence/package_causal/package_causal_9.png"" class=""exp-image"">
                    <div class=""question-area"">
                        <p style=""font-size: 20px; font-weight: bold; margin: 0;"">Is there a person in this image?</p>
                    </div>
                </div>","0","main_experiment_trial","9","package_causal","causal_sequence","chronological","","","","","","",""
"","","","","","html-keyboard-response","161","717698","0.0-161.0","1E1EE73B383B45CCBE1C51C697D0B2BA","019d6b95-893a-78f8-a7f6-09d33cbb39c0","019d6b6d-d11f-7233-9b95-7a424dbf389f","","null","
                <div class=""stimulus-container"">
                    <img src=""images/causal_sequence/package_causal/package_causal_ten.png"" class=""exp-image"">
                    <div class=""question-area""></div> 
                </div>","null","","","","","","","","","","","",""
"","","","","","html-button-response","162","718178","0.0-162.0","1E1EE73B383B45CCBE1C51C697D0B2BA","019d6b95-893a-78f8-a7f6-09d33cbb39c0","019d6b6d-d11f-7233-9b95-7a424dbf389f","","478","
                <div class=""stimulus-container"">
                    <img src=""images/causal_sequence/package_causal/package_causal_ten.png"" class=""exp-image"">
                    <div class=""question-area"">
                        <p style=""font-size: 20px; font-weight: bold; margin: 0;"">Is there a person in this image?</p>
                    </div>
                </div>","0","main_experiment_trial","ten","package_causal","causal_sequence","chronological","","","","","","",""
"","","","","","html-keyboard-response","163","723194","0.0-163.0","1E1EE73B383B45CCBE1C51C697D0B2BA","019d6b95-893a-78f8-a7f6-09d33cbb39c0","019d6b6d-d11f-7233-9b95-7a424dbf389f","","null","<div style=""background-color: white; width: 100vw; height: 100vh;""></div>","null","","","","","","","","","","","",""
"","","","","","html-keyboard-response","164","728209","0.0-164.0","1E1EE73B383B45CCBE1C51C697D0B2BA","019d6b95-893a-78f8-a7f6-09d33cbb39c0","019d6b6d-d11f-7233-9b95-7a424dbf389f","","null","
                <div class=""stimulus-container"">
                    <img src=""images/causal_sequence/museum_causal/museum_causal_1.png"" class=""exp-image"">
                    <div class=""question-area""></div> 
                </div>","null","","","","","","","","","","","",""
"","","","","","html-button-response","165","729117","0.0-165.0","1E1EE73B383B45CCBE1C51C697D0B2BA","019d6b95-893a-78f8-a7f6-09d33cbb39c0","019d6b6d-d11f-7233-9b95-7a424dbf389f","","906","
                <div class=""stimulus-container"">
                    <img src=""images/causal_sequence/museum_causal/museum_causal_1.png"" class=""exp-image"">
                    <div class=""question-area"">
                        <p style=""font-size: 20px; font-weight: bold; margin: 0;"">Is there a person in this image?</p>
                    </div>
                </div>","0","main_experiment_trial","1","museum_causal","causal_sequence","chronological","","","","","","",""
"","","","","","html-keyboard-response","166","734118","0.0-166.0","1E1EE73B383B45CCBE1C51C697D0B2BA","019d6b95-893a-78f8-a7f6-09d33cbb39c0","019d6b6d-d11f-7233-9b95-7a424dbf389f","","null","
                <div class=""stimulus-container"">
                    <img src=""images/causal_sequence/museum_causal/museum_causal_2.png"" class=""exp-image"">
                    <div class=""question-area""></div> 
                </div>","null","","","","","","","","","","","",""
"","","","","","html-button-response","167","735726","0.0-167.0","1E1EE73B383B45CCBE1C51C697D0B2BA","019d6b95-893a-78f8-a7f6-09d33cbb39c0","019d6b6d-d11f-7233-9b95-7a424dbf389f","","1606","
                <div class=""stimulus-container"">
                    <img src=""images/causal_sequence/museum_causal/museum_causal_2.png"" class=""exp-image"">
                    <div class=""question-area"">
                        <p style=""font-size: 20px; font-weight: bold; margin: 0;"">Is there a person in this image?</p>
                    </div>
                </div>","0","main_experiment_trial","2","museum_causal","causal_sequence","chronological","","","","","","",""
"","","","","","html-keyboard-response","168","740740","0.0-168.0","1E1EE73B383B45CCBE1C51C697D0B2BA","019d6b95-893a-78f8-a7f6-09d33cbb39c0","019d6b6d-d11f-7233-9b95-7a424dbf389f","","null","
                <div class=""stimulus-container"">
                    <img src=""images/causal_sequence/museum_causal/museum_causal_3.png"" class=""exp-image"">
                    <div class=""question-area""></div> 
                </div>","null","","","","","","","","","","","",""
"","","","","","html-button-response","169","741389","0.0-169.0","1E1EE73B383B45CCBE1C51C697D0B2BA","019d6b95-893a-78f8-a7f6-09d33cbb39c0","019d6b6d-d11f-7233-9b95-7a424dbf389f","","648","
                <div class=""stimulus-container"">
                    <img src=""images/causal_sequence/museum_causal/museum_causal_3.png"" class=""exp-image"">
                    <div class=""question-area"">
                        <p style=""font-size: 20px; font-weight: bold; margin: 0;"">Is there a person in this image?</p>
                    </div>
                </div>","0","main_experiment_trial","3","museum_causal","causal_sequence","chronological","","","","","","",""
"","","","","","html-keyboard-response","170","746400","0.0-170.0","1E1EE73B383B45CCBE1C51C697D0B2BA","019d6b95-893a-78f8-a7f6-09d33cbb39c0","019d6b6d-d11f-7233-9b95-7a424dbf389f","","null","
                <div class=""stimulus-container"">
                    <img src=""images/causal_sequence/museum_causal/museum_causal_4.png"" class=""exp-image"">
                    <div class=""question-area""></div> 
                </div>","null","","","","","","","","","","","",""
"","","","","","html-button-response","171","748315","0.0-171.0","1E1EE73B383B45CCBE1C51C697D0B2BA","019d6b95-893a-78f8-a7f6-09d33cbb39c0","019d6b6d-d11f-7233-9b95-7a424dbf389f","","1914","
                <div class=""stimulus-container"">
                    <img src=""images/causal_sequence/museum_causal/museum_causal_4.png"" class=""exp-image"">
                    <div class=""question-area"">
                        <p style=""font-size: 20px; font-weight: bold; margin: 0;"">Is there a person in this image?</p>
                    </div>
                </div>","1","main_experiment_trial","4","museum_causal","causal_sequence","chronological","","","","","","",""
"","","","","","html-keyboard-response","172","753324","0.0-172.0","1E1EE73B383B45CCBE1C51C697D0B2BA","019d6b95-893a-78f8-a7f6-09d33cbb39c0","019d6b6d-d11f-7233-9b95-7a424dbf389f","","null","
                <div class=""stimulus-container"">
                    <img src=""images/causal_sequence/museum_causal/museum_causal_5.png"" class=""exp-image"">
                    <div class=""question-area""></div> 
                </div>","null","","","","","","","","","","","",""
"","","","","","html-button-response","173","754403","0.0-173.0","1E1EE73B383B45CCBE1C51C697D0B2BA","019d6b95-893a-78f8-a7f6-09d33cbb39c0","019d6b6d-d11f-7233-9b95-7a424dbf389f","","1078","
                <div class=""stimulus-container"">
                    <img src=""images/causal_sequence/museum_causal/museum_causal_5.png"" class=""exp-image"">
                    <div class=""question-area"">
                        <p style=""font-size: 20px; font-weight: bold; margin: 0;"">Is there a person in this image?</p>
                    </div>
                </div>","0","main_experiment_trial","5","museum_causal","causal_sequence","chronological","","","","","","",""
"","","","","","html-keyboard-response","174","759406","0.0-174.0","1E1EE73B383B45CCBE1C51C697D0B2BA","019d6b95-893a-78f8-a7f6-09d33cbb39c0","019d6b6d-d11f-7233-9b95-7a424dbf389f","","null","
                <div class=""stimulus-container"">
                    <img src=""images/causal_sequence/museum_causal/museum_causal_6.png"" class=""exp-image"">
                    <div class=""question-area""></div> 
                </div>","null","","","","","","","","","","","",""
"","","","","","html-button-response","175","759917","0.0-175.0","1E1EE73B383B45CCBE1C51C697D0B2BA","019d6b95-893a-78f8-a7f6-09d33cbb39c0","019d6b6d-d11f-7233-9b95-7a424dbf389f","","509","
                <div class=""stimulus-container"">
                    <img src=""images/causal_sequence/museum_causal/museum_causal_6.png"" class=""exp-image"">
                    <div class=""question-area"">
                        <p style=""font-size: 20px; font-weight: bold; margin: 0;"">Is there a person in this image?</p>
                    </div>
                </div>","0","main_experiment_trial","6","museum_causal","causal_sequence","chronological","","","","","","",""
"","","","","","html-keyboard-response","176","764928","0.0-176.0","1E1EE73B383B45CCBE1C51C697D0B2BA","019d6b95-893a-78f8-a7f6-09d33cbb39c0","019d6b6d-d11f-7233-9b95-7a424dbf389f","","null","
                <div class=""stimulus-container"">
                    <img src=""images/causal_sequence/museum_causal/museum_causal_7.png"" class=""exp-image"">
                    <div class=""question-area""></div> 
                </div>","null","","","","","","","","","","","",""
"","","","","","html-button-response","177","765774","0.0-177.0","1E1EE73B383B45CCBE1C51C697D0B2BA","019d6b95-893a-78f8-a7f6-09d33cbb39c0","019d6b6d-d11f-7233-9b95-7a424dbf389f","","844","
                <div class=""stimulus-container"">
                    <img src=""images/causal_sequence/museum_causal/museum_causal_7.png"" class=""exp-image"">
                    <div class=""question-area"">
                        <p style=""font-size: 20px; font-weight: bold; margin: 0;"">Is there a person in this image?</p>
                    </div>
                </div>","1","main_experiment_trial","7","museum_causal","causal_sequence","chronological","","","","","","",""
"","","","","","html-keyboard-response","178","770782","0.0-178.0","1E1EE73B383B45CCBE1C51C697D0B2BA","019d6b95-893a-78f8-a7f6-09d33cbb39c0","019d6b6d-d11f-7233-9b95-7a424dbf389f","","null","
                <div class=""stimulus-container"">
                    <img src=""images/causal_sequence/museum_causal/museum_causal_8.png"" class=""exp-image"">
