"success","timeout","failed_images","failed_audio","failed_video","trial_type","trial_index","time_elapsed","internal_node_id","subject_id","study_id","session_id","view_history","rt","stimulus","response","task","image_index","folder","sequence_type","valuable_image_index","reward_type","chosen_image_index","target_X","correct_choice"
"true","false","[]","[]","[]","preload","0","4606","0.0-0.0","062AFDF2A90B43A28C083AC777B922E2","019cf4b8-85a4-7319-9083-acad32e85241","019cf498-06e0-702e-b525-9cde1ad77653","","","","","","","","","","","","",""
"","","","","","instructions","1","7690","0.0-1.0","062AFDF2A90B43A28C083AC777B922E2","019cf4b8-85a4-7319-9083-acad32e85241","019cf498-06e0-702e-b525-9cde1ad77653","[{""page_index"":0,""viewing_time"":3083}]","3083","","","","","","","","","","",""
"","","","","","instructions","2","93585","0.0-2.0","062AFDF2A90B43A28C083AC777B922E2","019cf4b8-85a4-7319-9083-acad32e85241","019cf498-06e0-702e-b525-9cde1ad77653","[{""page_index"":0,""viewing_time"":85894}]","85894","","","","","","","","","","",""
"true","","","","","fullscreen","3","96287","0.0-3.0","062AFDF2A90B43A28C083AC777B922E2","019cf4b8-85a4-7319-9083-acad32e85241","019cf498-06e0-702e-b525-9cde1ad77653","","1698","","","","","","","","","","",""
"","","","","","instructions","4","119931","0.0-4.0","062AFDF2A90B43A28C083AC777B922E2","019cf4b8-85a4-7319-9083-acad32e85241","019cf498-06e0-702e-b525-9cde1ad77653","[{""page_index"":0,""viewing_time"":23643}]","23644","","","","","","","","","","",""
"","","","","","instructions","5","132384","0.0-5.0","062AFDF2A90B43A28C083AC777B922E2","019cf4b8-85a4-7319-9083-acad32e85241","019cf498-06e0-702e-b525-9cde1ad77653","[{""page_index"":0,""viewing_time"":12449}]","12449","","","","","","","","","","",""
"","","","","","html-keyboard-response","6","136400","0.0-6.0","062AFDF2A90B43A28C083AC777B922E2","019cf4b8-85a4-7319-9083-acad32e85241","019cf498-06e0-702e-b525-9cde1ad77653","","null","
                <div class=""stimulus-container"">
                    <img src=""images/instructions/movie_1.png"" class=""exp-image"">
                    <div class=""question-area""></div> 
                </div>","null","","","","","","","","",""
"","","","","","html-button-response","7","139420","0.0-7.0","062AFDF2A90B43A28C083AC777B922E2","019cf4b8-85a4-7319-9083-acad32e85241","019cf498-06e0-702e-b525-9cde1ad77653","","null","
                <div class=""stimulus-container"">
                    <img src=""images/instructions/movie_1.png"" class=""exp-image"">
                    <div class=""question-area"">
                        <p style=""font-size: 20px; font-weight: bold; margin: 0;"">Was there a person in this image?</p>
                    </div>
                </div>","null","example_question","1","","","","","","",""
"","","","","","html-keyboard-response","8","143431","0.0-8.0","062AFDF2A90B43A28C083AC777B922E2","019cf4b8-85a4-7319-9083-acad32e85241","019cf498-06e0-702e-b525-9cde1ad77653","","null","
                <div class=""stimulus-container"">
                    <img src=""images/instructions/movie_2.png"" class=""exp-image"">
                    <div class=""question-area""></div> 
                </div>","null","","","","","","","","",""
"","","","","","html-button-response","9","145052","0.0-9.0","062AFDF2A90B43A28C083AC777B922E2","019cf4b8-85a4-7319-9083-acad32e85241","019cf498-06e0-702e-b525-9cde1ad77653","","1620","
                <div class=""stimulus-container"">
                    <img src=""images/instructions/movie_2.png"" class=""exp-image"">
                    <div class=""question-area"">
                        <p style=""font-size: 20px; font-weight: bold; margin: 0;"">Was there a person in this image?</p>
                    </div>
                </div>","0","example_question","2","","","","","","",""
"","","","","","html-keyboard-response","10","149071","0.0-10.0","062AFDF2A90B43A28C083AC777B922E2","019cf4b8-85a4-7319-9083-acad32e85241","019cf498-06e0-702e-b525-9cde1ad77653","","null","
                <div class=""stimulus-container"">
                    <img src=""images/instructions/movie_3.png"" class=""exp-image"">
                    <div class=""question-area""></div> 
                </div>","null","","","","","","","","",""
"","","","","","html-button-response","11","150212","0.0-11.0","062AFDF2A90B43A28C083AC777B922E2","019cf4b8-85a4-7319-9083-acad32e85241","019cf498-06e0-702e-b525-9cde1ad77653","","1137","
                <div class=""stimulus-container"">
                    <img src=""images/instructions/movie_3.png"" class=""exp-image"">
                    <div class=""question-area"">
                        <p style=""font-size: 20px; font-weight: bold; margin: 0;"">Was there a person in this image?</p>
                    </div>
                </div>","0","example_question","3","","","","","","",""
"","","","","","html-keyboard-response","12","154235","0.0-12.0","062AFDF2A90B43A28C083AC777B922E2","019cf4b8-85a4-7319-9083-acad32e85241","019cf498-06e0-702e-b525-9cde1ad77653","","null","
                <div class=""stimulus-container"">
                    <img src=""images/instructions/movie_4.png"" class=""exp-image"">
                    <div class=""question-area""></div> 
                </div>","null","","","","","","","","",""
"","","","","","html-button-response","13","154994","0.0-13.0","062AFDF2A90B43A28C083AC777B922E2","019cf4b8-85a4-7319-9083-acad32e85241","019cf498-06e0-702e-b525-9cde1ad77653","","755","
                <div class=""stimulus-container"">
                    <img src=""images/instructions/movie_4.png"" class=""exp-image"">
                    <div class=""question-area"">
                        <p style=""font-size: 20px; font-weight: bold; margin: 0;"">Was there a person in this image?</p>
                    </div>
                </div>","0","example_question","4","","","","","","",""
"","","","","","instructions","14","184403","0.0-14.0","062AFDF2A90B43A28C083AC777B922E2","019cf4b8-85a4-7319-9083-acad32e85241","019cf498-06e0-702e-b525-9cde1ad77653","[{""page_index"":0,""viewing_time"":29408}]","29409","","","","","","","","","","",""
"","","","","","instructions","15","189104","0.0-15.0","062AFDF2A90B43A28C083AC777B922E2","019cf4b8-85a4-7319-9083-acad32e85241","019cf498-06e0-702e-b525-9cde1ad77653","[{""page_index"":0,""viewing_time"":4696}]","4696","","","","","","","","","","",""
"","","","","","html-keyboard-response","16","190117","0.0-16.0","062AFDF2A90B43A28C083AC777B922E2","019cf4b8-85a4-7319-9083-acad32e85241","019cf498-06e0-702e-b525-9cde1ad77653","","null","<div style=""background-color: white; width: 100vw; height: 100vh;""></div>","null","","","","","","","","",""
"","","","","","html-keyboard-response","17","195134","0.0-17.0","062AFDF2A90B43A28C083AC777B922E2","019cf4b8-85a4-7319-9083-acad32e85241","019cf498-06e0-702e-b525-9cde1ad77653","","null","
                <div class=""stimulus-container"">
                    <img src=""images/causal_sequence/package_causal/package_causal_1.png"" class=""exp-image"">
                    <div class=""question-area""></div> 
                </div>","null","","","","","","","","",""
"","","","","","html-button-response","18","196191","0.0-18.0","062AFDF2A90B43A28C083AC777B922E2","019cf4b8-85a4-7319-9083-acad32e85241","019cf498-06e0-702e-b525-9cde1ad77653","","1054","
                <div class=""stimulus-container"">
                    <img src=""images/causal_sequence/package_causal/package_causal_1.png"" class=""exp-image"">
                    <div class=""question-area"">
                        <p style=""font-size: 20px; font-weight: bold; margin: 0;"">Is there a person in this image?</p>
                    </div>
                </div>","0","main_experiment_trial","1","package_causal","causal_sequence","","","","",""
"","","","","","html-keyboard-response","19","201197","0.0-19.0","062AFDF2A90B43A28C083AC777B922E2","019cf4b8-85a4-7319-9083-acad32e85241","019cf498-06e0-702e-b525-9cde1ad77653","","null","
                <div class=""stimulus-container"">
                    <img src=""images/causal_sequence/package_causal/package_causal_2.png"" class=""exp-image"">
                    <div class=""question-area""></div> 
                </div>","null","","","","","","","","",""
"","","","","","html-button-response","20","202600","0.0-20.0","062AFDF2A90B43A28C083AC777B922E2","019cf4b8-85a4-7319-9083-acad32e85241","019cf498-06e0-702e-b525-9cde1ad77653","","1400","
                <div class=""stimulus-container"">
                    <img src=""images/causal_sequence/package_causal/package_causal_2.png"" class=""exp-image"">
                    <div class=""question-area"">
                        <p style=""font-size: 20px; font-weight: bold; margin: 0;"">Is there a person in this image?</p>
                    </div>
                </div>","0","main_experiment_trial","2","package_causal","causal_sequence","","","","",""
"","","","","","html-keyboard-response","21","207609","0.0-21.0","062AFDF2A90B43A28C083AC777B922E2","019cf4b8-85a4-7319-9083-acad32e85241","019cf498-06e0-702e-b525-9cde1ad77653","","null","
                <div class=""stimulus-container"">
                    <img src=""images/causal_sequence/package_causal/package_causal_3.png"" class=""exp-image"">
                    <div class=""question-area""></div> 
                </div>","null","","","","","","","","",""
"","","","","","html-button-response","22","208971","0.0-22.0","062AFDF2A90B43A28C083AC777B922E2","019cf4b8-85a4-7319-9083-acad32e85241","019cf498-06e0-702e-b525-9cde1ad77653","","1361","
                <div class=""stimulus-container"">
                    <img src=""images/causal_sequence/package_causal/package_causal_3.png"" class=""exp-image"">
                    <div class=""question-area"">
                        <p style=""font-size: 20px; font-weight: bold; margin: 0;"">Is there a person in this image?</p>
                    </div>
                </div>","0","main_experiment_trial","3","package_causal","causal_sequence","","","","",""
"","","","","","html-keyboard-response","23","213981","0.0-23.0","062AFDF2A90B43A28C083AC777B922E2","019cf4b8-85a4-7319-9083-acad32e85241","019cf498-06e0-702e-b525-9cde1ad77653","","null","
                <div class=""stimulus-container"">
                    <img src=""images/causal_sequence/package_causal/package_causal_4.png"" class=""exp-image"">
                    <div class=""question-area""></div> 
                </div>","null","","","","","","","","",""
"","","","","","html-button-response","24","214923","0.0-24.0","062AFDF2A90B43A28C083AC777B922E2","019cf4b8-85a4-7319-9083-acad32e85241","019cf498-06e0-702e-b525-9cde1ad77653","","937","
                <div class=""stimulus-container"">
                    <img src=""images/causal_sequence/package_causal/package_causal_4.png"" class=""exp-image"">
                    <div class=""question-area"">
                        <p style=""font-size: 20px; font-weight: bold; margin: 0;"">Is there a person in this image?</p>
                    </div>
                </div>","1","main_experiment_trial","4","package_causal","causal_sequence","","","","",""
"","","","","","html-keyboard-response","25","219931","0.0-25.0","062AFDF2A90B43A28C083AC777B922E2","019cf4b8-85a4-7319-9083-acad32e85241","019cf498-06e0-702e-b525-9cde1ad77653","","null","
                <div class=""stimulus-container"">
                    <img src=""images/causal_sequence/package_causal/package_causal_5.png"" class=""exp-image"">
                    <div class=""question-area""></div> 
                </div>","null","","","","","","","","",""
"","","","","","html-button-response","26","220970","0.0-26.0","062AFDF2A90B43A28C083AC777B922E2","019cf4b8-85a4-7319-9083-acad32e85241","019cf498-06e0-702e-b525-9cde1ad77653","","1037","
                <div class=""stimulus-container"">
                    <img src=""images/causal_sequence/package_causal/package_causal_5.png"" class=""exp-image"">
                    <div class=""question-area"">
                        <p style=""font-size: 20px; font-weight: bold; margin: 0;"">Is there a person in this image?</p>
                    </div>
                </div>","0","main_experiment_trial","5","package_causal","causal_sequence","","","","",""
"","","","","","html-keyboard-response","27","225984","0.0-27.0","062AFDF2A90B43A28C083AC777B922E2","019cf4b8-85a4-7319-9083-acad32e85241","019cf498-06e0-702e-b525-9cde1ad77653","","null","
                <div class=""stimulus-container"">
                    <img src=""images/causal_sequence/package_causal/package_causal_6.png"" class=""exp-image"">
                    <div class=""question-area""></div> 
                </div>","null","","","","","","","","",""
"","","","","","html-button-response","28","227150","0.0-28.0","062AFDF2A90B43A28C083AC777B922E2","019cf4b8-85a4-7319-9083-acad32e85241","019cf498-06e0-702e-b525-9cde1ad77653","","1165","
                <div class=""stimulus-container"">
                    <img src=""images/causal_sequence/package_causal/package_causal_6.png"" class=""exp-image"">
                    <div class=""question-area"">
                        <p style=""font-size: 20px; font-weight: bold; margin: 0;"">Is there a person in this image?</p>
                    </div>
                </div>","0","main_experiment_trial","6","package_causal","causal_sequence","","","","",""
"","","","","","html-keyboard-response","29","232155","0.0-29.0","062AFDF2A90B43A28C083AC777B922E2","019cf4b8-85a4-7319-9083-acad32e85241","019cf498-06e0-702e-b525-9cde1ad77653","","null","
                <div class=""stimulus-container"">
                    <img src=""images/causal_sequence/package_causal/package_causal_7.png"" class=""exp-image"">
                    <div class=""question-area""></div> 
                </div>","null","","","","","","","","",""
"","","","","","html-button-response","30","233056","0.0-30.0","062AFDF2A90B43A28C083AC777B922E2","019cf4b8-85a4-7319-9083-acad32e85241","019cf498-06e0-702e-b525-9cde1ad77653","","899","
                <div class=""stimulus-container"">
                    <img src=""images/causal_sequence/package_causal/package_causal_7.png"" class=""exp-image"">
                    <div class=""question-area"">
                        <p style=""font-size: 20px; font-weight: bold; margin: 0;"">Is there a person in this image?</p>
                    </div>
                </div>","0","main_experiment_trial","7","package_causal","causal_sequence","","","","",""
"","","","","","html-keyboard-response","31","238070","0.0-31.0","062AFDF2A90B43A28C083AC777B922E2","019cf4b8-85a4-7319-9083-acad32e85241","019cf498-06e0-702e-b525-9cde1ad77653","","null","
                <div class=""stimulus-container"">
                    <img src=""images/causal_sequence/package_causal/package_causal_8.png"" class=""exp-image"">
                    <div class=""question-area""></div> 
                </div>","null","","","","","","","","",""
"","","","","","html-button-response","32","239330","0.0-32.0","062AFDF2A90B43A28C083AC777B922E2","019cf4b8-85a4-7319-9083-acad32e85241","019cf498-06e0-702e-b525-9cde1ad77653","","1258","
                <div class=""stimulus-container"">
                    <img src=""images/causal_sequence/package_causal/package_causal_8.png"" class=""exp-image"">
                    <div class=""question-area"">
                        <p style=""font-size: 20px; font-weight: bold; margin: 0;"">Is there a person in this image?</p>
                    </div>
                </div>","0","main_experiment_trial","8","package_causal","causal_sequence","","","","",""
"","","","","","html-keyboard-response","33","244358","0.0-33.0","062AFDF2A90B43A28C083AC777B922E2","019cf4b8-85a4-7319-9083-acad32e85241","019cf498-06e0-702e-b525-9cde1ad77653","","null","
                <div class=""stimulus-container"">
                    <img src=""images/causal_sequence/package_causal/package_causal_9.png"" class=""exp-image"">
                    <div class=""question-area""></div> 
                </div>","null","","","","","","","","",""
"","","","","","html-button-response","34","245788","0.0-34.0","062AFDF2A90B43A28C083AC777B922E2","019cf4b8-85a4-7319-9083-acad32e85241","019cf498-06e0-702e-b525-9cde1ad77653","","1428","
                <div class=""stimulus-container"">
                    <img src=""images/causal_sequence/package_causal/package_causal_9.png"" class=""exp-image"">
                    <div class=""question-area"">
                        <p style=""font-size: 20px; font-weight: bold; margin: 0;"">Is there a person in this image?</p>
                    </div>
                </div>","0","main_experiment_trial","9","package_causal","causal_sequence","","","","",""
"","","","","","html-keyboard-response","35","250807","0.0-35.0","062AFDF2A90B43A28C083AC777B922E2","019cf4b8-85a4-7319-9083-acad32e85241","019cf498-06e0-702e-b525-9cde1ad77653","","null","
                <div class=""stimulus-container"">
                    <img src=""images/causal_sequence/package_causal/package_causal_ten.png"" class=""exp-image"">
                    <div class=""question-area""></div> 
                </div>","null","","","","","","","","",""
"","","","","","html-button-response","36","252015","0.0-36.0","062AFDF2A90B43A28C083AC777B922E2","019cf4b8-85a4-7319-9083-acad32e85241","019cf498-06e0-702e-b525-9cde1ad77653","","1206","
                <div class=""stimulus-container"">
                    <img src=""images/causal_sequence/package_causal/package_causal_ten.png"" class=""exp-image"">
                    <div class=""question-area"">
                        <p style=""font-size: 20px; font-weight: bold; margin: 0;"">Is there a person in this image?</p>
                    </div>
                </div>","0","main_experiment_trial","ten","package_causal","causal_sequence","","","","",""
"","","","","","html-keyboard-response","37","253035","0.0-37.0","062AFDF2A90B43A28C083AC777B922E2","019cf4b8-85a4-7319-9083-acad32e85241","019cf498-06e0-702e-b525-9cde1ad77653","","null","<div style=""background-color: white; width: 100vw; height: 100vh;""></div>","null","","","","","","","","",""
"","","","","","html-keyboard-response","38","258047","0.0-38.0","062AFDF2A90B43A28C083AC777B922E2","019cf4b8-85a4-7319-9083-acad32e85241","019cf498-06e0-702e-b525-9cde1ad77653","","null","
                <div class=""stimulus-container"">
                    <img src=""images/causal_sequence/saving_a_cat_causal/saving_a_cat_causal_1.png"" class=""exp-image"">
                    <div class=""question-area""></div> 
                </div>","null","","","","","","","","",""
"","","","","","html-button-response","39","258594","0.0-39.0","062AFDF2A90B43A28C083AC777B922E2","019cf4b8-85a4-7319-9083-acad32e85241","019cf498-06e0-702e-b525-9cde1ad77653","","544","
                <div class=""stimulus-container"">
                    <img src=""images/causal_sequence/saving_a_cat_causal/saving_a_cat_causal_1.png"" class=""exp-image"">
                    <div class=""question-area"">
                        <p style=""font-size: 20px; font-weight: bold; margin: 0;"">Is there a person in this image?</p>
                    </div>
                </div>","0","main_experiment_trial","1","saving_a_cat_causal","causal_sequence","","","","",""
"","","","","","html-keyboard-response","40","263611","0.0-40.0","062AFDF2A90B43A28C083AC777B922E2","019cf4b8-85a4-7319-9083-acad32e85241","019cf498-06e0-702e-b525-9cde1ad77653","","null","
                <div class=""stimulus-container"">
                    <img src=""images/causal_sequence/saving_a_cat_causal/saving_a_cat_causal_2.png"" class=""exp-image"">
                    <div class=""question-area""></div> 
                </div>","null","","","","","","","","",""
"","","","","","html-button-response","41","264421","0.0-41.0","062AFDF2A90B43A28C083AC777B922E2","019cf4b8-85a4-7319-9083-acad32e85241","019cf498-06e0-702e-b525-9cde1ad77653","","808","
                <div class=""stimulus-container"">
                    <img src=""images/causal_sequence/saving_a_cat_causal/saving_a_cat_causal_2.png"" class=""exp-image"">
                    <div class=""question-area"">
                        <p style=""font-size: 20px; font-weight: bold; margin: 0;"">Is there a person in this image?</p>
                    </div>
                </div>","1","main_experiment_trial","2","saving_a_cat_causal","causal_sequence","","","","",""
"","","","","","html-keyboard-response","42","269436","0.0-42.0","062AFDF2A90B43A28C083AC777B922E2","019cf4b8-85a4-7319-9083-acad32e85241","019cf498-06e0-702e-b525-9cde1ad77653","","null","
                <div class=""stimulus-container"">
                    <img src=""images/causal_sequence/saving_a_cat_causal/saving_a_cat_causal_3.png"" class=""exp-image"">
                    <div class=""question-area""></div> 
                </div>","null","","","","","","","","",""
"","","","","","html-button-response","43","270148","0.0-43.0","062AFDF2A90B43A28C083AC777B922E2","019cf4b8-85a4-7319-9083-acad32e85241","019cf498-06e0-702e-b525-9cde1ad77653","","710","
                <div class=""stimulus-container"">
                    <img src=""images/causal_sequence/saving_a_cat_causal/saving_a_cat_causal_3.png"" class=""exp-image"">
                    <div class=""question-area"">
                        <p style=""font-size: 20px; font-weight: bold; margin: 0;"">Is there a person in this image?</p>
                    </div>
                </div>","1","main_experiment_trial","3","saving_a_cat_causal","causal_sequence","","","","",""
"","","","","","html-keyboard-response","44","275163","0.0-44.0","062AFDF2A90B43A28C083AC777B922E2","019cf4b8-85a4-7319-9083-acad32e85241","019cf498-06e0-702e-b525-9cde1ad77653","","null","
                <div class=""stimulus-container"">
                    <img src=""images/causal_sequence/saving_a_cat_causal/saving_a_cat_causal_4.png"" class=""exp-image"">
                    <div class=""question-area""></div> 
                </div>","null","","","","","","","","",""
"","","","","","html-button-response","45","275713","0.0-45.0","062AFDF2A90B43A28C083AC777B922E2","019cf4b8-85a4-7319-9083-acad32e85241","019cf498-06e0-702e-b525-9cde1ad77653","","549","
                <div class=""stimulus-container"">
                    <img src=""images/causal_sequence/saving_a_cat_causal/saving_a_cat_causal_4.png"" class=""exp-image"">
                    <div class=""question-area"">
                        <p style=""font-size: 20px; font-weight: bold; margin: 0;"">Is there a person in this image?</p>
                    </div>
                </div>","0","main_experiment_trial","4","saving_a_cat_causal","causal_sequence","","","","",""
"","","","","","html-keyboard-response","46","280728","0.0-46.0","062AFDF2A90B43A28C083AC777B922E2","019cf4b8-85a4-7319-9083-acad32e85241","019cf498-06e0-702e-b525-9cde1ad77653","","null","
                <div class=""stimulus-container"">
                    <img src=""images/causal_sequence/saving_a_cat_causal/saving_a_cat_causal_5.png"" class=""exp-image"">
                    <div class=""question-area""></div> 
                </div>","null","","","","","","","","",""
"","","","","","html-button-response","47","282813","0.0-47.0","062AFDF2A90B43A28C083AC777B922E2","019cf4b8-85a4-7319-9083-acad32e85241","019cf498-06e0-702e-b525-9cde1ad77653","","2085","
                <div class=""stimulus-container"">
                    <img src=""images/causal_sequence/saving_a_cat_causal/saving_a_cat_causal_5.png"" class=""exp-image"">
                    <div class=""question-area"">
                        <p style=""font-size: 20px; font-weight: bold; margin: 0;"">Is there a person in this image?</p>
                    </div>
                </div>","0","main_experiment_trial","5","saving_a_cat_causal","causal_sequence","","","","",""
"","","","","","html-keyboard-response","48","287837","0.0-48.0","062AFDF2A90B43A28C083AC777B922E2","019cf4b8-85a4-7319-9083-acad32e85241","019cf498-06e0-702e-b525-9cde1ad77653","","null","
                <div class=""stimulus-container"">
                    <img src=""images/causal_sequence/saving_a_cat_causal/saving_a_cat_causal_6.png"" class=""exp-image"">
                    <div class=""question-area""></div> 
                </div>","null","","","","","","","","",""
"","","","","","html-button-response","49","288427","0.0-49.0","062AFDF2A90B43A28C083AC777B922E2","019cf4b8-85a4-7319-9083-acad32e85241","019cf498-06e0-702e-b525-9cde1ad77653","","589","
                <div class=""stimulus-container"">
                    <img src=""images/causal_sequence/saving_a_cat_causal/saving_a_cat_causal_6.png"" class=""exp-image"">
                    <div class=""question-area"">
                        <p style=""font-size: 20px; font-weight: bold; margin: 0;"">Is there a person in this image?</p>
                    </div>
                </div>","0","main_experiment_trial","6","saving_a_cat_causal","causal_sequence","","","","",""
"","","","","","html-keyboard-response","50","293445","0.0-50.0","062AFDF2A90B43A28C083AC777B922E2","019cf4b8-85a4-7319-9083-acad32e85241","019cf498-06e0-702e-b525-9cde1ad77653","","null","
                <div class=""stimulus-container"">
                    <img src=""images/causal_sequence/saving_a_cat_causal/saving_a_cat_causal_7.png"" class=""exp-image"">
                    <div class=""question-area""></div> 
                </div>","null","","","","","","","","",""
"","","","","","html-button-response","51","294595","0.0-51.0","062AFDF2A90B43A28C083AC777B922E2","019cf4b8-85a4-7319-9083-acad32e85241","019cf498-06e0-702e-b525-9cde1ad77653","","1148","
                <div class=""stimulus-container"">
                    <img src=""images/causal_sequence/saving_a_cat_causal/saving_a_cat_causal_7.png"" class=""exp-image"">
                    <div class=""question-area"">
                        <p style=""font-size: 20px; font-weight: bold; margin: 0;"">Is there a person in this image?</p>
                    </div>
                </div>","0","main_experiment_trial","7","saving_a_cat_causal","causal_sequence","","","","",""
"","","","","","html-keyboard-response","52","299597","0.0-52.0","062AFDF2A90B43A28C083AC777B922E2","019cf4b8-85a4-7319-9083-acad32e85241","019cf498-06e0-702e-b525-9cde1ad77653","","null","
                <div class=""stimulus-container"">
                    <img src=""images/causal_sequence/saving_a_cat_causal/saving_a_cat_causal_8.png"" class=""exp-image"">
                    <div class=""question-area""></div> 
                </div>","null","","","","","","","","",""
"","","","","","html-button-response","53","300966","0.0-53.0","062AFDF2A90B43A28C083AC777B922E2","019cf4b8-85a4-7319-9083-acad32e85241","019cf498-06e0-702e-b525-9cde1ad77653","","1367","
                <div class=""stimulus-container"">
                    <img src=""images/causal_sequence/saving_a_cat_causal/saving_a_cat_causal_8.png"" class=""exp-image"">
                    <div class=""question-area"">
                        <p style=""font-size: 20px; font-weight: bold; margin: 0;"">Is there a person in this image?</p>
                    </div>
                </div>","0","main_experiment_trial","8","saving_a_cat_causal","causal_sequence","","","","",""
"","","","","","html-keyboard-response","54","305968","0.0-54.0","062AFDF2A90B43A28C083AC777B922E2","019cf4b8-85a4-7319-9083-acad32e85241","019cf498-06e0-702e-b525-9cde1ad77653","","null","
                <div class=""stimulus-container"">
                    <img src=""images/causal_sequence/saving_a_cat_causal/saving_a_cat_causal_9.png"" class=""exp-image"">
                    <div class=""question-area""></div> 
                </div>","null","","","","","","","","",""
"","","","","","html-button-response","55","306557","0.0-55.0","062AFDF2A90B43A28C083AC777B922E2","019cf4b8-85a4-7319-9083-acad32e85241","019cf498-06e0-702e-b525-9cde1ad77653","","587","
                <div class=""stimulus-container"">
                    <img src=""images/causal_sequence/saving_a_cat_causal/saving_a_cat_causal_9.png"" class=""exp-image"">
                    <div class=""question-area"">
                        <p style=""font-size: 20px; font-weight: bold; margin: 0;"">Is there a person in this image?</p>
                    </div>
                </div>","0","main_experiment_trial","9","saving_a_cat_causal","causal_sequence","","","","",""
"","","","","","html-keyboard-response","56","311583","0.0-56.0","062AFDF2A90B43A28C083AC777B922E2","019cf4b8-85a4-7319-9083-acad32e85241","019cf498-06e0-702e-b525-9cde1ad77653","","null","
                <div class=""stimulus-container"">
                    <img src=""images/causal_sequence/saving_a_cat_causal/saving_a_cat_causal_ten.png"" class=""exp-image"">
                    <div class=""question-area""></div> 
                </div>","null","","","","","","","","",""
"","","","","","html-button-response","57","312163","0.0-57.0","062AFDF2A90B43A28C083AC777B922E2","019cf4b8-85a4-7319-9083-acad32e85241","019cf498-06e0-702e-b525-9cde1ad77653","","579","
                <div class=""stimulus-container"">
                    <img src=""images/causal_sequence/saving_a_cat_causal/saving_a_cat_causal_ten.png"" class=""exp-image"">
                    <div class=""question-area"">
                        <p style=""font-size: 20px; font-weight: bold; margin: 0;"">Is there a person in this image?</p>
                    </div>
                </div>","0","main_experiment_trial","ten","saving_a_cat_causal","causal_sequence","","","","",""
"","","","","","html-keyboard-response","58","313180","0.0-58.0","062AFDF2A90B43A28C083AC777B922E2","019cf4b8-85a4-7319-9083-acad32e85241","019cf498-06e0-702e-b525-9cde1ad77653","","null","<div style=""background-color: white; width: 100vw; height: 100vh;""></div>","null","","","","","","","","",""
"","","","","","html-keyboard-response","59","318184","0.0-59.0","062AFDF2A90B43A28C083AC777B922E2","019cf4b8-85a4-7319-9083-acad32e85241","019cf498-06e0-702e-b525-9cde1ad77653","","null","
                <div class=""stimulus-container"">
                    <img src=""images/causal_sequence/dog_causal/dog_causal_1.png"" class=""exp-image"">
                    <div class=""question-area""></div> 
                </div>","null","","","","","","","","",""
"","","","","","html-button-response","60","319463","0.0-60.0","062AFDF2A90B43A28C083AC777B922E2","019cf4b8-85a4-7319-9083-acad32e85241","019cf498-06e0-702e-b525-9cde1ad77653","","1275","
                <div class=""stimulus-container"">
                    <img src=""images/causal_sequence/dog_causal/dog_causal_1.png"" class=""exp-image"">
                    <div class=""question-area"">
                        <p style=""font-size: 20px; font-weight: bold; margin: 0;"">Is there a person in this image?</p>
                    </div>
                </div>","0","main_experiment_trial","1","dog_causal","causal_sequence","","","","",""
"","","","","","html-keyboard-response","61","324482","0.0-61.0","062AFDF2A90B43A28C083AC777B922E2","019cf4b8-85a4-7319-9083-acad32e85241","019cf498-06e0-702e-b525-9cde1ad77653","","null","
                <div class=""stimulus-container"">
                    <img src=""images/causal_sequence/dog_causal/dog_causal_2.png"" class=""exp-image"">
                    <div class=""question-area""></div> 
                </div>","null","","","","","","","","",""
"","","","","","html-button-response","62","325057","0.0-62.0","062AFDF2A90B43A28C083AC777B922E2","019cf4b8-85a4-7319-9083-acad32e85241","019cf498-06e0-702e-b525-9cde1ad77653","","574","
                <div class=""stimulus-container"">
                    <img src=""images/causal_sequence/dog_causal/dog_causal_2.png"" class=""exp-image"">
                    <div class=""question-area"">
                        <p style=""font-size: 20px; font-weight: bold; margin: 0;"">Is there a person in this image?</p>
                    </div>
                </div>","0","main_experiment_trial","2","dog_causal","causal_sequence","","","","",""
"","","","","","html-keyboard-response","63","330069","0.0-63.0","062AFDF2A90B43A28C083AC777B922E2","019cf4b8-85a4-7319-9083-acad32e85241","019cf498-06e0-702e-b525-9cde1ad77653","","null","
                <div class=""stimulus-container"">
                    <img src=""images/causal_sequence/dog_causal/dog_causal_3.png"" class=""exp-image"">
                    <div class=""question-area""></div> 
                </div>","null","","","","","","","","",""
"","","","","","html-button-response","64","330650","0.0-64.0","062AFDF2A90B43A28C083AC777B922E2","019cf4b8-85a4-7319-9083-acad32e85241","019cf498-06e0-702e-b525-9cde1ad77653","","579","
                <div class=""stimulus-container"">
                    <img src=""images/causal_sequence/dog_causal/dog_causal_3.png"" class=""exp-image"">
                    <div class=""question-area"">
                        <p style=""font-size: 20px; font-weight: bold; margin: 0;"">Is there a person in this image?</p>
                    </div>
                </div>","0","main_experiment_trial","3","dog_causal","causal_sequence","","","","",""
"","","","","","html-keyboard-response","65","335656","0.0-65.0","062AFDF2A90B43A28C083AC777B922E2","019cf4b8-85a4-7319-9083-acad32e85241","019cf498-06e0-702e-b525-9cde1ad77653","","null","
                <div class=""stimulus-container"">
                    <img src=""images/causal_sequence/dog_causal/dog_causal_4.png"" class=""exp-image"">
                    <div class=""question-area""></div> 
                </div>","null","","","","","","","","",""
"","","","","","html-button-response","66","336193","0.0-66.0","062AFDF2A90B43A28C083AC777B922E2","019cf4b8-85a4-7319-9083-acad32e85241","019cf498-06e0-702e-b525-9cde1ad77653","","535","
                <div class=""stimulus-container"">
                    <img src=""images/causal_sequence/dog_causal/dog_causal_4.png"" class=""exp-image"">
                    <div class=""question-area"">
                        <p style=""font-size: 20px; font-weight: bold; margin: 0;"">Is there a person in this image?</p>
                    </div>
                </div>","0","main_experiment_trial","4","dog_causal","causal_sequence","","","","",""
"","","","","","html-keyboard-response","67","341218","0.0-67.0","062AFDF2A90B43A28C083AC777B922E2","019cf4b8-85a4-7319-9083-acad32e85241","019cf498-06e0-702e-b525-9cde1ad77653","","null","
                <div class=""stimulus-container"">
                    <img src=""images/causal_sequence/dog_causal/dog_causal_5.png"" class=""exp-image"">
                    <div class=""question-area""></div> 
                </div>","null","","","","","","","","",""
"","","","","","html-button-response","68","341824","0.0-68.0","062AFDF2A90B43A28C083AC777B922E2","019cf4b8-85a4-7319-9083-acad32e85241","019cf498-06e0-702e-b525-9cde1ad77653","","606","
                <div class=""stimulus-container"">
                    <img src=""images/causal_sequence/dog_causal/dog_causal_5.png"" class=""exp-image"">
                    <div class=""question-area"">
                        <p style=""font-size: 20px; font-weight: bold; margin: 0;"">Is there a person in this image?</p>
                    </div>
                </div>","0","main_experiment_trial","5","dog_causal","causal_sequence","","","","",""
"","","","","","html-keyboard-response","69","346921","0.0-69.0","062AFDF2A90B43A28C083AC777B922E2","019cf4b8-85a4-7319-9083-acad32e85241","019cf498-06e0-702e-b525-9cde1ad77653","","null","
                <div class=""stimulus-container"">
                    <img src=""images/causal_sequence/dog_causal/dog_causal_6.png"" class=""exp-image"">
                    <div class=""question-area""></div> 
                </div>","null","","","","","","","","",""
"","","","","","html-button-response","70","347517","0.0-70.0","062AFDF2A90B43A28C083AC777B922E2","019cf4b8-85a4-7319-9083-acad32e85241","019cf498-06e0-702e-b525-9cde1ad77653","","596","
                <div class=""stimulus-container"">
                    <img src=""images/causal_sequence/dog_causal/dog_causal_6.png"" class=""exp-image"">
                    <div class=""question-area"">
                        <p style=""font-size: 20px; font-weight: bold; margin: 0;"">Is there a person in this image?</p>
                    </div>
                </div>","0","main_experiment_trial","6","dog_causal","causal_sequence","","","","",""
"","","","","","html-keyboard-response","71","352546","0.0-71.0","062AFDF2A90B43A28C083AC777B922E2","019cf4b8-85a4-7319-9083-acad32e85241","019cf498-06e0-702e-b525-9cde1ad77653","","null","
                <div class=""stimulus-container"">
                    <img src=""images/causal_sequence/dog_causal/dog_causal_7.png"" class=""exp-image"">
                    <div class=""question-area""></div> 
                </div>","null","","","","","","","","",""
"","","","","","html-button-response","72","353106","0.0-72.0","062AFDF2A90B43A28C083AC777B922E2","019cf4b8-85a4-7319-9083-acad32e85241","019cf498-06e0-702e-b525-9cde1ad77653","","559","
                <div class=""stimulus-container"">
                    <img src=""images/causal_sequence/dog_causal/dog_causal_7.png"" class=""exp-image"">
                    <div class=""question-area"">
                        <p style=""font-size: 20px; font-weight: bold; margin: 0;"">Is there a person in this image?</p>
                    </div>
                </div>","0","main_experiment_trial","7","dog_causal","causal_sequence","","","","",""
"","","","","","html-keyboard-response","73","358145","0.0-73.0","062AFDF2A90B43A28C083AC777B922E2","019cf4b8-85a4-7319-9083-acad32e85241","019cf498-06e0-702e-b525-9cde1ad77653","","null","
                <div class=""stimulus-container"">
                    <img src=""images/causal_sequence/dog_causal/dog_causal_8.png"" class=""exp-image"">
                    <div class=""question-area""></div> 
                </div>","null","","","","","","","","",""
"","","","","","html-button-response","74","358707","0.0-74.0","062AFDF2A90B43A28C083AC777B922E2","019cf4b8-85a4-7319-9083-acad32e85241","019cf498-06e0-702e-b525-9cde1ad77653","","560","
                <div class=""stimulus-container"">
                    <img src=""images/causal_sequence/dog_causal/dog_causal_8.png"" class=""exp-image"">
                    <div class=""question-area"">
                        <p style=""font-size: 20px; font-weight: bold; margin: 0;"">Is there a person in this image?</p>
                    </div>
                </div>","0","main_experiment_trial","8","dog_causal","causal_sequence","","","","",""
"","","","","","html-keyboard-response","75","363739","0.0-75.0","062AFDF2A90B43A28C083AC777B922E2","019cf4b8-85a4-7319-9083-acad32e85241","019cf498-06e0-702e-b525-9cde1ad77653","","null","
                <div class=""stimulus-container"">
                    <img src=""images/causal_sequence/dog_causal/dog_causal_9.png"" class=""exp-image"">
                    <div class=""question-area""></div> 
                </div>","null","","","","","","","","",""
"","","","","","html-button-response","76","364277","0.0-76.0","062AFDF2A90B43A28C083AC777B922E2","019cf4b8-85a4-7319-9083-acad32e85241","019cf498-06e0-702e-b525-9cde1ad77653","","537","
                <div class=""stimulus-container"">
                    <img src=""images/causal_sequence/dog_causal/dog_causal_9.png"" class=""exp-image"">
                    <div class=""question-area"">
                        <p style=""font-size: 20px; font-weight: bold; margin: 0;"">Is there a person in this image?</p>
                    </div>
                </div>","0","main_experiment_trial","9","dog_causal","causal_sequence","","","","",""
"","","","","","html-keyboard-response","77","369312","0.0-77.0","062AFDF2A90B43A28C083AC777B922E2","019cf4b8-85a4-7319-9083-acad32e85241","019cf498-06e0-702e-b525-9cde1ad77653","","null","
                <div class=""stimulus-container"">
                    <img src=""images/causal_sequence/dog_causal/dog_causal_ten.png"" class=""exp-image"">
                    <div class=""question-area""></div> 
                </div>","null","","","","","","","","",""
"","","","","","html-button-response","78","369845","0.0-78.0","062AFDF2A90B43A28C083AC777B922E2","019cf4b8-85a4-7319-9083-acad32e85241","019cf498-06e0-702e-b525-9cde1ad77653","","532","
                <div class=""stimulus-container"">
                    <img src=""images/causal_sequence/dog_causal/dog_causal_ten.png"" class=""exp-image"">
                    <div class=""question-area"">
                        <p style=""font-size: 20px; font-weight: bold; margin: 0;"">Is there a person in this image?</p>
                    </div>
                </div>","0","main_experiment_trial","ten","dog_causal","causal_sequence","","","","",""
"","","","","","html-keyboard-response","79","370872","0.0-79.0","062AFDF2A90B43A28C083AC777B922E2","019cf4b8-85a4-7319-9083-acad32e85241","019cf498-06e0-702e-b525-9cde1ad77653","","null","<div style=""background-color: white; width: 100vw; height: 100vh;""></div>","null","","","","","","","","",""
"","","","","","html-keyboard-response","80","375889","0.0-80.0","062AFDF2A90B43A28C083AC777B922E2","019cf4b8-85a4-7319-9083-acad32e85241","019cf498-06e0-702e-b525-9cde1ad77653","","null","
                <div class=""stimulus-container"">
                    <img src=""images/schematic_sequence/interview_scheme/interview_scheme_1.png"" class=""exp-image"">
                    <div class=""question-area""></div> 
                </div>","null","","","","","","","","",""
"","","","","","html-button-response","81","376468","0.0-81.0","062AFDF2A90B43A28C083AC777B922E2","019cf4b8-85a4-7319-9083-acad32e85241","019cf498-06e0-702e-b525-9cde1ad77653","","577","
                <div class=""stimulus-container"">
                    <img src=""images/schematic_sequence/interview_scheme/interview_scheme_1.png"" class=""exp-image"">
                    <div class=""question-area"">
                        <p style=""font-size: 20px; font-weight: bold; margin: 0;"">Is there a person in this image?</p>
                    </div>
                </div>","1","main_experiment_trial","1","interview_scheme","schematic_sequence","","","","",""
"","","","","","html-keyboard-response","82","381480","0.0-82.0","062AFDF2A90B43A28C083AC777B922E2","019cf4b8-85a4-7319-9083-acad32e85241","019cf498-06e0-702e-b525-9cde1ad77653","","null","
                <div class=""stimulus-container"">
                    <img src=""images/schematic_sequence/interview_scheme/interview_scheme_2.png"" class=""exp-image"">
                    <div class=""question-area""></div> 
                </div>","null","","","","","","","","",""
"","","","","","html-button-response","83","382125","0.0-83.0","062AFDF2A90B43A28C083AC777B922E2","019cf4b8-85a4-7319-9083-acad32e85241","019cf498-06e0-702e-b525-9cde1ad77653","","644","
                <div class=""stimulus-container"">
                    <img src=""images/schematic_sequence/interview_scheme/interview_scheme_2.png"" class=""exp-image"">
                    <div class=""question-area"">
                        <p style=""font-size: 20px; font-weight: bold; margin: 0;"">Is there a person in this image?</p>
                    </div>
                </div>","1","main_experiment_trial","2","interview_scheme","schematic_sequence","","","","",""
"","","","","","html-keyboard-response","84","387144","0.0-84.0","062AFDF2A90B43A28C083AC777B922E2","019cf4b8-85a4-7319-9083-acad32e85241","019cf498-06e0-702e-b525-9cde1ad77653","","null","
                <div class=""stimulus-container"">
                    <img src=""images/schematic_sequence/interview_scheme/interview_scheme_3.png"" class=""exp-image"">
                    <div class=""question-area""></div> 
                </div>","null","","","","","","","","",""
"","","","","","html-button-response","85","387712","0.0-85.0","062AFDF2A90B43A28C083AC777B922E2","019cf4b8-85a4-7319-9083-acad32e85241","019cf498-06e0-702e-b525-9cde1ad77653","","566","
                <div class=""stimulus-container"">
                    <img src=""images/schematic_sequence/interview_scheme/interview_scheme_3.png"" class=""exp-image"">
                    <div class=""question-area"">
                        <p style=""font-size: 20px; font-weight: bold; margin: 0;"">Is there a person in this image?</p>
                    </div>
                </div>","1","main_experiment_trial","3","interview_scheme","schematic_sequence","","","","",""
"","","","","","html-keyboard-response","86","392721","0.0-86.0","062AFDF2A90B43A28C083AC777B922E2","019cf4b8-85a4-7319-9083-acad32e85241","019cf498-06e0-702e-b525-9cde1ad77653","","null","
                <div class=""stimulus-container"">
                    <img src=""images/schematic_sequence/interview_scheme/interview_scheme_4.png"" class=""exp-image"">
                    <div class=""question-area""></div> 
                </div>","null","","","","","","","","",""
"","","","","","html-button-response","87","393350","0.0-87.0","062AFDF2A90B43A28C083AC777B922E2","019cf4b8-85a4-7319-9083-acad32e85241","019cf498-06e0-702e-b525-9cde1ad77653","","628","
                <div class=""stimulus-container"">
                    <img src=""images/schematic_sequence/interview_scheme/interview_scheme_4.png"" class=""exp-image"">
                    <div class=""question-area"">
                        <p style=""font-size: 20px; font-weight: bold; margin: 0;"">Is there a person in this image?</p>
                    </div>
                </div>","1","main_experiment_trial","4","interview_scheme","schematic_sequence","","","","",""
"","","","","","html-keyboard-response","88","398369","0.0-88.0","062AFDF2A90B43A28C083AC777B922E2","019cf4b8-85a4-7319-9083-acad32e85241","019cf498-06e0-702e-b525-9cde1ad77653","","null","
                <div class=""stimulus-container"">
                    <img src=""images/schematic_sequence/interview_scheme/interview_scheme_5.png"" class=""exp-image"">
                    <div class=""question-area""></div> 
                </div>","null","","","","","","","","",""
"","","","","","html-button-response","89","398919","0.0-89.0","062AFDF2A90B43A28C083AC777B922E2","019cf4b8-85a4-7319-9083-acad32e85241","019cf498-06e0-702e-b525-9cde1ad77653","","549","
                <div class=""stimulus-container"">
                    <img src=""images/schematic_sequence/interview_scheme/interview_scheme_5.png"" class=""exp-image"">
                    <div class=""question-area"">
                        <p style=""font-size: 20px; font-weight: bold; margin: 0;"">Is there a person in this image?</p>
                    </div>
                </div>","0","main_experiment_trial","5","interview_scheme","schematic_sequence","","","","",""
"","","","","","html-keyboard-response","90","403936","0.0-90.0","062AFDF2A90B43A28C083AC777B922E2","019cf4b8-85a4-7319-9083-acad32e85241","019cf498-06e0-702e-b525-9cde1ad77653","","null","
                <div class=""stimulus-container"">
                    <img src=""images/schematic_sequence/interview_scheme/interview_scheme_6.png"" class=""exp-image"">
                    <div class=""question-area""></div> 
                </div>","null","","","","","","","","",""
"","","","","","html-button-response","91","404443","0.0-91.0","062AFDF2A90B43A28C083AC777B922E2","019cf4b8-85a4-7319-9083-acad32e85241","019cf498-06e0-702e-b525-9cde1ad77653","","506","
                <div class=""stimulus-container"">
                    <img src=""images/schematic_sequence/interview_scheme/interview_scheme_6.png"" class=""exp-image"">
                    <div class=""question-area"">
                        <p style=""font-size: 20px; font-weight: bold; margin: 0;"">Is there a person in this image?</p>
                    </div>
                </div>","0","main_experiment_trial","6","interview_scheme","schematic_sequence","","","","",""
"","","","","","html-keyboard-response","92","409474","0.0-92.0","062AFDF2A90B43A28C083AC777B922E2","019cf4b8-85a4-7319-9083-acad32e85241","019cf498-06e0-702e-b525-9cde1ad77653","","null","
                <div class=""stimulus-container"">
                    <img src=""images/schematic_sequence/interview_scheme/interview_scheme_7.png"" class=""exp-image"">
                    <div class=""question-area""></div> 
                </div>","null","","","","","","","","",""
"","","","","","html-button-response","93","409963","0.0-93.0","062AFDF2A90B43A28C083AC777B922E2","019cf4b8-85a4-7319-9083-acad32e85241","019cf498-06e0-702e-b525-9cde1ad77653","","487","
                <div class=""stimulus-container"">
                    <img src=""images/schematic_sequence/interview_scheme/interview_scheme_7.png"" class=""exp-image"">
                    <div class=""question-area"">
                        <p style=""font-size: 20px; font-weight: bold; margin: 0;"">Is there a person in this image?</p>
                    </div>
                </div>","0","main_experiment_trial","7","interview_scheme","schematic_sequence","","","","",""
"","","","","","html-keyboard-response","94","414978","0.0-94.0","062AFDF2A90B43A28C083AC777B922E2","019cf4b8-85a4-7319-9083-acad32e85241","019cf498-06e0-702e-b525-9cde1ad77653","","null","
                <div class=""stimulus-container"">
                    <img src=""images/schematic_sequence/interview_scheme/interview_scheme_8.png"" class=""exp-image"">
                    <div class=""question-area""></div> 
                </div>","null","","","","","","","","",""
"","","","","","html-button-response","95","415477","0.0-95.0","062AFDF2A90B43A28C083AC777B922E2","019cf4b8-85a4-7319-9083-acad32e85241","019cf498-06e0-702e-b525-9cde1ad77653","","498","
                <div class=""stimulus-container"">
                    <img src=""images/schematic_sequence/interview_scheme/interview_scheme_8.png"" class=""exp-image"">
                    <div class=""question-area"">
                        <p style=""font-size: 20px; font-weight: bold; margin: 0;"">Is there a person in this image?</p>
                    </div>
                </div>","0","main_experiment_trial","8","interview_scheme","schematic_sequence","","","","",""
"","","","","","html-keyboard-response","96","420498","0.0-96.0","062AFDF2A90B43A28C083AC777B922E2","019cf4b8-85a4-7319-9083-acad32e85241","019cf498-06e0-702e-b525-9cde1ad77653","","null","
                <div class=""stimulus-container"">
                    <img src=""images/schematic_sequence/interview_scheme/interview_scheme_9.png"" class=""exp-image"">
                    <div class=""question-area""></div> 
                </div>","null","","","","","","","","",""
"","","","","","html-button-response","97","421032","0.0-97.0","062AFDF2A90B43A28C083AC777B922E2","019cf4b8-85a4-7319-9083-acad32e85241","019cf498-06e0-702e-b525-9cde1ad77653","","532","
                <div class=""stimulus-container"">
                    <img src=""images/schematic_sequence/interview_scheme/interview_scheme_9.png"" class=""exp-image"">
                    <div class=""question-area"">
                        <p style=""font-size: 20px; font-weight: bold; margin: 0;"">Is there a person in this image?</p>
                    </div>
                </div>","0","main_experiment_trial","9","interview_scheme","schematic_sequence","","","","",""
"","","","","","html-keyboard-response","98","426065","0.0-98.0","062AFDF2A90B43A28C083AC777B922E2","019cf4b8-85a4-7319-9083-acad32e85241","019cf498-06e0-702e-b525-9cde1ad77653","","null","
                <div class=""stimulus-container"">
                    <img src=""images/schematic_sequence/interview_scheme/interview_scheme_ten.png"" class=""exp-image"">
                    <div class=""question-area""></div> 
                </div>","null","","","","","","","","",""
"","","","","","html-button-response","99","427075","0.0-99.0","062AFDF2A90B43A28C083AC777B922E2","019cf4b8-85a4-7319-9083-acad32e85241","019cf498-06e0-702e-b525-9cde1ad77653","","1008","
                <div class=""stimulus-container"">
                    <img src=""images/schematic_sequence/interview_scheme/interview_scheme_ten.png"" class=""exp-image"">
                    <div class=""question-area"">
                        <p style=""font-size: 20px; font-weight: bold; margin: 0;"">Is there a person in this image?</p>
                    </div>
                </div>","0","main_experiment_trial","ten","interview_scheme","schematic_sequence","","","","",""
"","","","","","html-keyboard-response","100","428096","0.0-100.0","062AFDF2A90B43A28C083AC777B922E2","019cf4b8-85a4-7319-9083-acad32e85241","019cf498-06e0-702e-b525-9cde1ad77653","","null","<div style=""background-color: white; width: 100vw; height: 100vh;""></div>","null","","","","","","","","",""
"","","","","","html-keyboard-response","101","433099","0.0-101.0","062AFDF2A90B43A28C083AC777B922E2","019cf4b8-85a4-7319-9083-acad32e85241","019cf498-06e0-702e-b525-9cde1ad77653","","null","
                <div class=""stimulus-container"">
                    <img src=""images/schematic_sequence/dinner_party_scheme/dinner_party_scheme_1.png"" class=""exp-image"">
                    <div class=""question-area""></div> 
                </div>","null","","","","","","","","",""
"","","","","","html-button-response","102","434357","0.0-102.0","062AFDF2A90B43A28C083AC777B922E2","019cf4b8-85a4-7319-9083-acad32e85241","019cf498-06e0-702e-b525-9cde1ad77653","","1257","
                <div class=""stimulus-container"">
                    <img src=""images/schematic_sequence/dinner_party_scheme/dinner_party_scheme_1.png"" class=""exp-image"">
                    <div class=""question-area"">
                        <p style=""font-size: 20px; font-weight: bold; margin: 0;"">Is there a person in this image?</p>
                    </div>
                </div>","0","main_experiment_trial","1","dinner_party_scheme","schematic_sequence","","","","",""
"","","","","","html-keyboard-response","103","439374","0.0-103.0","062AFDF2A90B43A28C083AC777B922E2","019cf4b8-85a4-7319-9083-acad32e85241","019cf498-06e0-702e-b525-9cde1ad77653","","null","
                <div class=""stimulus-container"">
                    <img src=""images/schematic_sequence/dinner_party_scheme/dinner_party_scheme_2.png"" class=""exp-image"">
                    <div class=""question-area""></div> 
                </div>","null","","","","","","","","",""
"","","","","","html-button-response","104","441323","0.0-104.0","062AFDF2A90B43A28C083AC777B922E2","019cf4b8-85a4-7319-9083-acad32e85241","019cf498-06e0-702e-b525-9cde1ad77653","","1948","
                <div class=""stimulus-container"">
                    <img src=""images/schematic_sequence/dinner_party_scheme/dinner_party_scheme_2.png"" class=""exp-image"">
                    <div class=""question-area"">
                        <p style=""font-size: 20px; font-weight: bold; margin: 0;"">Is there a person in this image?</p>
                    </div>
                </div>","1","main_experiment_trial","2","dinner_party_scheme","schematic_sequence","","","","",""
"","","","","","html-keyboard-response","105","446338","0.0-105.0","062AFDF2A90B43A28C083AC777B922E2","019cf4b8-85a4-7319-9083-acad32e85241","019cf498-06e0-702e-b525-9cde1ad77653","","null","
                <div class=""stimulus-container"">
                    <img src=""images/schematic_sequence/dinner_party_scheme/dinner_party_scheme_3.png"" class=""exp-image"">
                    <div class=""question-area""></div> 
                </div>","null","","","","","","","","",""
"","","","","","html-button-response","106","446852","0.0-106.0","062AFDF2A90B43A28C083AC777B922E2","019cf4b8-85a4-7319-9083-acad32e85241","019cf498-06e0-702e-b525-9cde1ad77653","","512","
                <div class=""stimulus-container"">
                    <img src=""images/schematic_sequence/dinner_party_scheme/dinner_party_scheme_3.png"" class=""exp-image"">
                    <div class=""question-area"">
                        <p style=""font-size: 20px; font-weight: bold; margin: 0;"">Is there a person in this image?</p>
                    </div>
                </div>","0","main_experiment_trial","3","dinner_party_scheme","schematic_sequence","","","","",""
"","","","","","html-keyboard-response","107","451862","0.0-107.0","062AFDF2A90B43A28C083AC777B922E2","019cf4b8-85a4-7319-9083-acad32e85241","019cf498-06e0-702e-b525-9cde1ad77653","","null","
                <div class=""stimulus-container"">
                    <img src=""images/schematic_sequence/dinner_party_scheme/dinner_party_scheme_4.png"" class=""exp-image"">
                    <div class=""question-area""></div> 
                </div>","null","","","","","","","","",""
"","","","","","html-button-response","108","452429","0.0-108.0","062AFDF2A90B43A28C083AC777B922E2","019cf4b8-85a4-7319-9083-acad32e85241","019cf498-06e0-702e-b525-9cde1ad77653","","568","
                <div class=""stimulus-container"">
                    <img src=""images/schematic_sequence/dinner_party_scheme/dinner_party_scheme_4.png"" class=""exp-image"">
                    <div class=""question-area"">
                        <p style=""font-size: 20px; font-weight: bold; margin: 0;"">Is there a person in this image?</p>
                    </div>
                </div>","0","main_experiment_trial","4","dinner_party_scheme","schematic_sequence","","","","",""
"","","","","","html-keyboard-response","109","457433","0.0-109.0","062AFDF2A90B43A28C083AC777B922E2","019cf4b8-85a4-7319-9083-acad32e85241","019cf498-06e0-702e-b525-9cde1ad77653","","null","
                <div class=""stimulus-container"">
                    <img src=""images/schematic_sequence/dinner_party_scheme/dinner_party_scheme_5.png"" class=""exp-image"">
                    <div class=""question-area""></div> 
                </div>","null","","","","","","","","",""
"","","","","","html-button-response","110","458055","0.0-110.0","062AFDF2A90B43A28C083AC777B922E2","019cf4b8-85a4-7319-9083-acad32e85241","019cf498-06e0-702e-b525-9cde1ad77653","","620","
                <div class=""stimulus-container"">
                    <img src=""images/schematic_sequence/dinner_party_scheme/dinner_party_scheme_5.png"" class=""exp-image"">
                    <div class=""question-area"">
                        <p style=""font-size: 20px; font-weight: bold; margin: 0;"">Is there a person in this image?</p>
                    </div>
                </div>","1","main_experiment_trial","5","dinner_party_scheme","schematic_sequence","","","","",""
"","","","","","html-keyboard-response","111","463083","0.0-111.0","062AFDF2A90B43A28C083AC777B922E2","019cf4b8-85a4-7319-9083-acad32e85241","019cf498-06e0-702e-b525-9cde1ad77653","","null","
                <div class=""stimulus-container"">
                    <img src=""images/schematic_sequence/dinner_party_scheme/dinner_party_scheme_6.png"" class=""exp-image"">
                    <div class=""question-area""></div> 
                </div>","null","","","","","","","","",""
"","","","","","html-button-response","112","463846","0.0-112.0","062AFDF2A90B43A28C083AC777B922E2","019cf4b8-85a4-7319-9083-acad32e85241","019cf498-06e0-702e-b525-9cde1ad77653","","760","
                <div class=""stimulus-container"">
                    <img src=""images/schematic_sequence/dinner_party_scheme/dinner_party_scheme_6.png"" class=""exp-image"">
                    <div class=""question-area"">
                        <p style=""font-size: 20px; font-weight: bold; margin: 0;"">Is there a person in this image?</p>
                    </div>
                </div>","0","main_experiment_trial","6","dinner_party_scheme","schematic_sequence","","","","",""
"","","","","","html-keyboard-response","113","468863","0.0-113.0","062AFDF2A90B43A28C083AC777B922E2","019cf4b8-85a4-7319-9083-acad32e85241","019cf498-06e0-702e-b525-9cde1ad77653","","null","
                <div class=""stimulus-container"">
                    <img src=""images/schematic_sequence/dinner_party_scheme/dinner_party_scheme_7.png"" class=""exp-image"">
                    <div class=""question-area""></div> 
                </div>","null","","","","","","","","",""
"","","","","","html-button-response","114","470582","0.0-114.0","062AFDF2A90B43A28C083AC777B922E2","019cf4b8-85a4-7319-9083-acad32e85241","019cf498-06e0-702e-b525-9cde1ad77653","","1716","
                <div class=""stimulus-container"">
                    <img src=""images/schematic_sequence/dinner_party_scheme/dinner_party_scheme_7.png"" class=""exp-image"">
                    <div class=""question-area"">
                        <p style=""font-size: 20px; font-weight: bold; margin: 0;"">Is there a person in this image?</p>
                    </div>
                </div>","0","main_experiment_trial","7","dinner_party_scheme","schematic_sequence","","","","",""
"","","","","","html-keyboard-response","115","475603","0.0-115.0","062AFDF2A90B43A28C083AC777B922E2","019cf4b8-85a4-7319-9083-acad32e85241","019cf498-06e0-702e-b525-9cde1ad77653","","null","
                <div class=""stimulus-container"">
                    <img src=""images/schematic_sequence/dinner_party_scheme/dinner_party_scheme_8.png"" class=""exp-image"">
                    <div class=""question-area""></div> 
                </div>","null","","","","","","","","",""
"","","","","","html-button-response","116","476543","0.0-116.0","062AFDF2A90B43A28C083AC777B922E2","019cf4b8-85a4-7319-9083-acad32e85241","019cf498-06e0-702e-b525-9cde1ad77653","","937","
                <div class=""stimulus-container"">
                    <img src=""images/schematic_sequence/dinner_party_scheme/dinner_party_scheme_8.png"" class=""exp-image"">
                    <div class=""question-area"">
                        <p style=""font-size: 20px; font-weight: bold; margin: 0;"">Is there a person in this image?</p>
                    </div>
                </div>","0","main_experiment_trial","8","dinner_party_scheme","schematic_sequence","","","","",""
"","","","","","html-keyboard-response","117","481549","0.0-117.0","062AFDF2A90B43A28C083AC777B922E2","019cf4b8-85a4-7319-9083-acad32e85241","019cf498-06e0-702e-b525-9cde1ad77653","","null","
                <div class=""stimulus-container"">
                    <img src=""images/schematic_sequence/dinner_party_scheme/dinner_party_scheme_9.png"" class=""exp-image"">
                    <div class=""question-area""></div> 
                </div>","null","","","","","","","","",""
"","","","","","html-button-response","118","482400","0.0-118.0","062AFDF2A90B43A28C083AC777B922E2","019cf4b8-85a4-7319-9083-acad32e85241","019cf498-06e0-702e-b525-9cde1ad77653","","849","
                <div class=""stimulus-container"">
                    <img src=""images/schematic_sequence/dinner_party_scheme/dinner_party_scheme_9.png"" class=""exp-image"">
                    <div class=""question-area"">
                        <p style=""font-size: 20px; font-weight: bold; margin: 0;"">Is there a person in this image?</p>
                    </div>
                </div>","0","main_experiment_trial","9","dinner_party_scheme","schematic_sequence","","","","",""
"","","","","","html-keyboard-response","119","487410","0.0-119.0","062AFDF2A90B43A28C083AC777B922E2","019cf4b8-85a4-7319-9083-acad32e85241","019cf498-06e0-702e-b525-9cde1ad77653","","null","
                <div class=""stimulus-container"">
                    <img src=""images/schematic_sequence/dinner_party_scheme/dinner_party_scheme_ten.png"" class=""exp-image"">
                    <div class=""question-area""></div> 
                </div>","null","","","","","","","","",""
"","","","","","html-button-response","120","488036","0.0-120.0","062AFDF2A90B43A28C083AC777B922E2","019cf4b8-85a4-7319-9083-acad32e85241","019cf498-06e0-702e-b525-9cde1ad77653","","622","
                <div class=""stimulus-container"">
                    <img src=""images/schematic_sequence/dinner_party_scheme/dinner_party_scheme_ten.png"" class=""exp-image"">
                    <div class=""question-area"">
                        <p style=""font-size: 20px; font-weight: bold; margin: 0;"">Is there a person in this image?</p>
                    </div>
                </div>","0","main_experiment_trial","ten","dinner_party_scheme","schematic_sequence","","","","",""
"","","","","","html-keyboard-response","121","489050","0.0-121.0","062AFDF2A90B43A28C083AC777B922E2","019cf4b8-85a4-7319-9083-acad32e85241","019cf498-06e0-702e-b525-9cde1ad77653","","null","<div style=""background-color: white; width: 100vw; height: 100vh;""></div>","null","","","","","","","","",""
"","","","","","html-keyboard-response","122","494062","0.0-122.0","062AFDF2A90B43A28C083AC777B922E2","019cf4b8-85a4-7319-9083-acad32e85241","019cf498-06e0-702e-b525-9cde1ad77653","","null","
                <div class=""stimulus-container"">
                    <img src=""images/schematic_sequence/supermarket_scheme/supermarket_scheme_1.png"" class=""exp-image"">
                    <div class=""question-area""></div> 
                </div>","null","","","","","","","","",""
"","","","","","html-button-response","123","497071","0.0-123.0","062AFDF2A90B43A28C083AC777B922E2","019cf4b8-85a4-7319-9083-acad32e85241","019cf498-06e0-702e-b525-9cde1ad77653","","null","
                <div class=""stimulus-container"">
                    <img src=""images/schematic_sequence/supermarket_scheme/supermarket_scheme_1.png"" class=""exp-image"">
                    <div class=""question-area"">
                        <p style=""font-size: 20px; font-weight: bold; margin: 0;"">Is there a person in this image?</p>
                    </div>
                </div>","null","main_experiment_trial","1","supermarket_scheme","schematic_sequence","","","","",""
"","","","","","html-keyboard-response","124","502083","0.0-124.0","062AFDF2A90B43A28C083AC777B922E2","019cf4b8-85a4-7319-9083-acad32e85241","019cf498-06e0-702e-b525-9cde1ad77653","","null","
                <div class=""stimulus-container"">
                    <img src=""images/schematic_sequence/supermarket_scheme/supermarket_scheme_2.png"" class=""exp-image"">
                    <div class=""question-area""></div> 
                </div>","null","","","","","","","","",""
"","","","","","html-button-response","125","502652","0.0-125.0","062AFDF2A90B43A28C083AC777B922E2","019cf4b8-85a4-7319-9083-acad32e85241","019cf498-06e0-702e-b525-9cde1ad77653","","567","
                <div class=""stimulus-container"">
                    <img src=""images/schematic_sequence/supermarket_scheme/supermarket_scheme_2.png"" class=""exp-image"">
                    <div class=""question-area"">
                        <p style=""font-size: 20px; font-weight: bold; margin: 0;"">Is there a person in this image?</p>
                    </div>
                </div>","1","main_experiment_trial","2","supermarket_scheme","schematic_sequence","","","","",""
"","","","","","html-keyboard-response","126","507667","0.0-126.0","062AFDF2A90B43A28C083AC777B922E2","019cf4b8-85a4-7319-9083-acad32e85241","019cf498-06e0-702e-b525-9cde1ad77653","","null","
                <div class=""stimulus-container"">
                    <img src=""images/schematic_sequence/supermarket_scheme/supermarket_scheme_3.png"" class=""exp-image"">
                    <div class=""question-area""></div> 
                </div>","null","","","","","","","","",""
"","","","","","html-button-response","127","508224","0.0-127.0","062AFDF2A90B43A28C083AC777B922E2","019cf4b8-85a4-7319-9083-acad32e85241","019cf498-06e0-702e-b525-9cde1ad77653","","557","
                <div class=""stimulus-container"">
                    <img src=""images/schematic_sequence/supermarket_scheme/supermarket_scheme_3.png"" class=""exp-image"">
                    <div class=""question-area"">
                        <p style=""font-size: 20px; font-weight: bold; margin: 0;"">Is there a person in this image?</p>
                    </div>
                </div>","1","main_experiment_trial","3","supermarket_scheme","schematic_sequence","","","","",""
"","","","","","html-keyboard-response","128","513228","0.0-128.0","062AFDF2A90B43A28C083AC777B922E2","019cf4b8-85a4-7319-9083-acad32e85241","019cf498-06e0-702e-b525-9cde1ad77653","","null","
                <div class=""stimulus-container"">
                    <img src=""images/schematic_sequence/supermarket_scheme/supermarket_scheme_4.png"" class=""exp-image"">
                    <div class=""question-area""></div> 
                </div>","null","","","","","","","","",""
"","","","","","html-button-response","129","515184","0.0-129.0","062AFDF2A90B43A28C083AC777B922E2","019cf4b8-85a4-7319-9083-acad32e85241","019cf498-06e0-702e-b525-9cde1ad77653","","1954","
                <div class=""stimulus-container"">
                    <img src=""images/schematic_sequence/supermarket_scheme/supermarket_scheme_4.png"" class=""exp-image"">
                    <div class=""question-area"">
                        <p style=""font-size: 20px; font-weight: bold; margin: 0;"">Is there a person in this image?</p>
                    </div>
                </div>","0","main_experiment_trial","4","supermarket_scheme","schematic_sequence","","","","",""
"","","","","","html-keyboard-response","130","520201","0.0-130.0","062AFDF2A90B43A28C083AC777B922E2","019cf4b8-85a4-7319-9083-acad32e85241","019cf498-06e0-702e-b525-9cde1ad77653","","null","
                <div class=""stimulus-container"">
                    <img src=""images/schematic_sequence/supermarket_scheme/supermarket_scheme_5.png"" class=""exp-image"">
                    <div class=""question-area""></div> 
                </div>","null","","","","","","","","",""
"","","","","","html-button-response","131","521344","0.0-131.0","062AFDF2A90B43A28C083AC777B922E2","019cf4b8-85a4-7319-9083-acad32e85241","019cf498-06e0-702e-b525-9cde1ad77653","","1142","
                <div class=""stimulus-container"">
                    <img src=""images/schematic_sequence/supermarket_scheme/supermarket_scheme_5.png"" class=""exp-image"">
                    <div class=""question-area"">
                        <p style=""font-size: 20px; font-weight: bold; margin: 0;"">Is there a person in this image?</p>
                    </div>
                </div>","1","main_experiment_trial","5","supermarket_scheme","schematic_sequence","","","","",""
"","","","","","html-keyboard-response","132","526358","0.0-132.0","062AFDF2A90B43A28C083AC777B922E2","019cf4b8-85a4-7319-9083-acad32e85241","019cf498-06e0-702e-b525-9cde1ad77653","","null","
                <div class=""stimulus-container"">
                    <img src=""images/schematic_sequence/supermarket_scheme/supermarket_scheme_6.png"" class=""exp-image"">
                    <div class=""question-area""></div> 
                </div>","null","","","","","","","","",""
"","","","","","html-button-response","133","527509","0.0-133.0","062AFDF2A90B43A28C083AC777B922E2","019cf4b8-85a4-7319-9083-acad32e85241","019cf498-06e0-702e-b525-9cde1ad77653","","1150","
                <div class=""stimulus-container"">
                    <img src=""images/schematic_sequence/supermarket_scheme/supermarket_scheme_6.png"" class=""exp-image"">
                    <div class=""question-area"">
                        <p style=""font-size: 20px; font-weight: bold; margin: 0;"">Is there a person in this image?</p>
                    </div>
                </div>","0","main_experiment_trial","6","supermarket_scheme","schematic_sequence","","","","",""
"","","","","","html-keyboard-response","134","532521","0.0-134.0","062AFDF2A90B43A28C083AC777B922E2","019cf4b8-85a4-7319-9083-acad32e85241","019cf498-06e0-702e-b525-9cde1ad77653","","null","
                <div class=""stimulus-container"">
                    <img src=""images/schematic_sequence/supermarket_scheme/supermarket_scheme_7.png"" class=""exp-image"">
                    <div class=""question-area""></div> 
                </div>","null","","","","","","","","",""
"","","","","","html-button-response","135","533438","0.0-135.0","062AFDF2A90B43A28C083AC777B922E2","019cf4b8-85a4-7319-9083-acad32e85241","019cf498-06e0-702e-b525-9cde1ad77653","","915","
                <div class=""stimulus-container"">
                    <img src=""images/schematic_sequence/supermarket_scheme/supermarket_scheme_7.png"" class=""exp-image"">
                    <div class=""question-area"">
                        <p style=""font-size: 20px; font-weight: bold; margin: 0;"">Is there a person in this image?</p>
                    </div>
                </div>","0","main_experiment_trial","7","supermarket_scheme","schematic_sequence","","","","",""
"","","","","","html-keyboard-response","136","538448","0.0-136.0","062AFDF2A90B43A28C083AC777B922E2","019cf4b8-85a4-7319-9083-acad32e85241","019cf498-06e0-702e-b525-9cde1ad77653","","null","
                <div class=""stimulus-container"">
                    <img src=""images/schematic_sequence/supermarket_scheme/supermarket_scheme_8.png"" class=""exp-image"">
                    <div class=""question-area""></div> 
                </div>","null","","","","","","","","",""
"","","","","","html-button-response","137","539023","0.0-137.0","062AFDF2A90B43A28C083AC777B922E2","019cf4b8-85a4-7319-9083-acad32e85241","019cf498-06e0-702e-b525-9cde1ad77653","","573","
                <div class=""stimulus-container"">
                    <img src=""images/schematic_sequence/supermarket_scheme/supermarket_scheme_8.png"" class=""exp-image"">
                    <div class=""question-area"">
                        <p style=""font-size: 20px; font-weight: bold; margin: 0;"">Is there a person in this image?</p>
                    </div>
                </div>","0","main_experiment_trial","8","supermarket_scheme","schematic_sequence","","","","",""
"","","","","","html-keyboard-response","138","544047","0.0-138.0","062AFDF2A90B43A28C083AC777B922E2","019cf4b8-85a4-7319-9083-acad32e85241","019cf498-06e0-702e-b525-9cde1ad77653","","null","
                <div class=""stimulus-container"">
                    <img src=""images/schematic_sequence/supermarket_scheme/supermarket_scheme_9.png"" class=""exp-image"">
                    <div class=""question-area""></div> 
                </div>","null","","","","","","","","",""
"","","","","","html-button-response","139","544885","0.0-139.0","062AFDF2A90B43A28C083AC777B922E2","019cf4b8-85a4-7319-9083-acad32e85241","019cf498-06e0-702e-b525-9cde1ad77653","","836","
                <div class=""stimulus-container"">
                    <img src=""images/schematic_sequence/supermarket_scheme/supermarket_scheme_9.png"" class=""exp-image"">
                    <div class=""question-area"">
                        <p style=""font-size: 20px; font-weight: bold; margin: 0;"">Is there a person in this image?</p>
                    </div>
                </div>","0","main_experiment_trial","9","supermarket_scheme","schematic_sequence","","","","",""
"","","","","","html-keyboard-response","140","549893","0.0-140.0","062AFDF2A90B43A28C083AC777B922E2","019cf4b8-85a4-7319-9083-acad32e85241","019cf498-06e0-702e-b525-9cde1ad77653","","null","
                <div class=""stimulus-container"">
                    <img src=""images/schematic_sequence/supermarket_scheme/supermarket_scheme_ten.png"" class=""exp-image"">
                    <div class=""question-area""></div> 
                </div>","null","","","","","","","","",""
"","","","","","html-button-response","141","552345","0.0-141.0","062AFDF2A90B43A28C083AC777B922E2","019cf4b8-85a4-7319-9083-acad32e85241","019cf498-06e0-702e-b525-9cde1ad77653","","2450","
                <div class=""stimulus-container"">
                    <img src=""images/schematic_sequence/supermarket_scheme/supermarket_scheme_ten.png"" class=""exp-image"">
                    <div class=""question-area"">
                        <p style=""font-size: 20px; font-weight: bold; margin: 0;"">Is there a person in this image?</p>
                    </div>
                </div>","1","main_experiment_trial","ten","supermarket_scheme","schematic_sequence","","","","",""
"","","","","","html-keyboard-response","142","553356","0.0-142.0","062AFDF2A90B43A28C083AC777B922E2","019cf4b8-85a4-7319-9083-acad32e85241","019cf498-06e0-702e-b525-9cde1ad77653","","null","<div style=""background-color: white; width: 100vw; height: 100vh;""></div>","null","","","","","","","","",""
"","","","","","html-keyboard-response","143","558384","0.0-143.0","062AFDF2A90B43A28C083AC777B922E2","019cf4b8-85a4-7319-9083-acad32e85241","019cf498-06e0-702e-b525-9cde1ad77653","","null","
                <div class=""stimulus-container"">
                    <img src=""images/causal_sequence/the_performance_causal/the_performance_causal_1.png"" class=""exp-image"">
                    <div class=""question-area""></div> 
                </div>","null","","","","","","","","",""
"","","","","","html-button-response","144","561375","0.0-144.0","062AFDF2A90B43A28C083AC777B922E2","019cf4b8-85a4-7319-9083-acad32e85241","019cf498-06e0-702e-b525-9cde1ad77653","","2989","
                <div class=""stimulus-container"">
                    <img src=""images/causal_sequence/the_performance_causal/the_performance_causal_1.png"" class=""exp-image"">
                    <div class=""question-area"">
                        <p style=""font-size: 20px; font-weight: bold; margin: 0;"">Is there a person in this image?</p>
                    </div>
                </div>","0","main_experiment_trial","1","the_performance_causal","causal_sequence","","","","",""
"","","","","","html-keyboard-response","145","566387","0.0-145.0","062AFDF2A90B43A28C083AC777B922E2","019cf4b8-85a4-7319-9083-acad32e85241","019cf498-06e0-702e-b525-9cde1ad77653","","null","
                <div class=""stimulus-container"">
                    <img src=""images/causal_sequence/the_performance_causal/the_performance_causal_2.png"" class=""exp-image"">
                    <div class=""question-area""></div> 
                </div>","null","","","","","","","","",""
"","","","","","html-button-response","146","567420","0.0-146.0","062AFDF2A90B43A28C083AC777B922E2","019cf4b8-85a4-7319-9083-acad32e85241","019cf498-06e0-702e-b525-9cde1ad77653","","1032","
                <div class=""stimulus-container"">
                    <img src=""images/causal_sequence/the_performance_causal/the_performance_causal_2.png"" class=""exp-image"">
                    <div class=""question-area"">
                        <p style=""font-size: 20px; font-weight: bold; margin: 0;"">Is there a person in this image?</p>
                    </div>
                </div>","0","main_experiment_trial","2","the_performance_causal","causal_sequence","","","","",""
"","","","","","html-keyboard-response","147","572451","0.0-147.0","062AFDF2A90B43A28C083AC777B922E2","019cf4b8-85a4-7319-9083-acad32e85241","019cf498-06e0-702e-b525-9cde1ad77653","","null","
                <div class=""stimulus-container"">
                    <img src=""images/causal_sequence/the_performance_causal/the_performance_causal_3.png"" class=""exp-image"">
                    <div class=""question-area""></div> 
                </div>","null","","","","","","","","",""
"","","","","","html-button-response","148","573689","0.0-148.0","062AFDF2A90B43A28C083AC777B922E2","019cf4b8-85a4-7319-9083-acad32e85241","019cf498-06e0-702e-b525-9cde1ad77653","","1236","
                <div class=""stimulus-container"">
                    <img src=""images/causal_sequence/the_performance_causal/the_performance_causal_3.png"" class=""exp-image"">
                    <div class=""question-area"">
                        <p style=""font-size: 20px; font-weight: bold; margin: 0;"">Is there a person in this image?</p>
                    </div>
                </div>","0","main_experiment_trial","3","the_performance_causal","causal_sequence","","","","",""
"","","","","","html-keyboard-response","149","578694","0.0-149.0","062AFDF2A90B43A28C083AC777B922E2","019cf4b8-85a4-7319-9083-acad32e85241","019cf498-06e0-702e-b525-9cde1ad77653","","null","
                <div class=""stimulus-container"">
                    <img src=""images/causal_sequence/the_performance_causal/the_performance_causal_4.png"" class=""exp-image"">
                    <div class=""question-area""></div> 
                </div>","null","","","","","","","","",""
"","","","","","html-button-response","150","579318","0.0-150.0","062AFDF2A90B43A28C083AC777B922E2","019cf4b8-85a4-7319-9083-acad32e85241","019cf498-06e0-702e-b525-9cde1ad77653","","620","
                <div class=""stimulus-container"">
                    <img src=""images/causal_sequence/the_performance_causal/the_performance_causal_4.png"" class=""exp-image"">
                    <div class=""question-area"">
                        <p style=""font-size: 20px; font-weight: bold; margin: 0;"">Is there a person in this image?</p>
                    </div>
                </div>","0","main_experiment_trial","4","the_performance_causal","causal_sequence","","","","",""
"","","","","","html-keyboard-response","151","584334","0.0-151.0","062AFDF2A90B43A28C083AC777B922E2","019cf4b8-85a4-7319-9083-acad32e85241","019cf498-06e0-702e-b525-9cde1ad77653","","null","
                <div class=""stimulus-container"">
                    <img src=""images/causal_sequence/the_performance_causal/the_performance_causal_5.png"" class=""exp-image"">
                    <div class=""question-area""></div> 
                </div>","null","","","","","","","","",""
"","","","","","html-button-response","152","585172","0.0-152.0","062AFDF2A90B43A28C083AC777B922E2","019cf4b8-85a4-7319-9083-acad32e85241","019cf498-06e0-702e-b525-9cde1ad77653","","835","
                <div class=""stimulus-container"">
                    <img src=""images/causal_sequence/the_performance_causal/the_performance_causal_5.png"" class=""exp-image"">
                    <div class=""question-area"">
                        <p style=""font-size: 20px; font-weight: bold; margin: 0;"">Is there a person in this image?</p>
                    </div>
                </div>","0","main_experiment_trial","5","the_performance_causal","causal_sequence","","","","",""
"","","","","","html-keyboard-response","153","590192","0.0-153.0","062AFDF2A90B43A28C083AC777B922E2","019cf4b8-85a4-7319-9083-acad32e85241","019cf498-06e0-702e-b525-9cde1ad77653","","null","
                <div class=""stimulus-container"">
                    <img src=""images/causal_sequence/the_performance_causal/the_performance_causal_6.png"" class=""exp-image"">
                    <div class=""question-area""></div> 
                </div>","null","","","","","","","","",""
"","","","","","html-button-response","154","590816","0.0-154.0","062AFDF2A90B43A28C083AC777B922E2","019cf4b8-85a4-7319-9083-acad32e85241","019cf498-06e0-702e-b525-9cde1ad77653","","624","
                <div class=""stimulus-container"">
                    <img src=""images/causal_sequence/the_performance_causal/the_performance_causal_6.png"" class=""exp-image"">
                    <div class=""question-area"">
                        <p style=""font-size: 20px; font-weight: bold; margin: 0;"">Is there a person in this image?</p>
                    </div>
                </div>","0","main_experiment_trial","6","the_performance_causal","causal_sequence","","","","",""
"","","","","","html-keyboard-response","155","595820","0.0-155.0","062AFDF2A90B43A28C083AC777B922E2","019cf4b8-85a4-7319-9083-acad32e85241","019cf498-06e0-702e-b525-9cde1ad77653","","null","
                <div class=""stimulus-container"">
                    <img src=""images/causal_sequence/the_performance_causal/the_performance_causal_7.png"" class=""exp-image"">
                    <div class=""question-area""></div> 
                </div>","null","","","","","","","","",""
"","","","","","html-button-response","156","597361","0.0-156.0","062AFDF2A90B43A28C083AC777B922E2","019cf4b8-85a4-7319-9083-acad32e85241","019cf498-06e0-702e-b525-9cde1ad77653","","1539","
                <div class=""stimulus-container"">
                    <img src=""images/causal_sequence/the_performance_causal/the_performance_causal_7.png"" class=""exp-image"">
                    <div class=""question-area"">
                        <p style=""font-size: 20px; font-weight: bold; margin: 0;"">Is there a person in this image?</p>
                    </div>
                </div>","0","main_experiment_trial","7","the_performance_causal","causal_sequence","","","","",""
"","","","","","html-keyboard-response","157","602387","0.0-157.0","062AFDF2A90B43A28C083AC777B922E2","019cf4b8-85a4-7319-9083-acad32e85241","019cf498-06e0-702e-b525-9cde1ad77653","","null","
                <div class=""stimulus-container"">
                    <img src=""images/causal_sequence/the_performance_causal/the_performance_causal_8.png"" class=""exp-image"">
                    <div class=""question-area""></div> 
                </div>","null","","","","","","","","",""
"","","","","","html-button-response","158","605401","0.0-158.0","062AFDF2A90B43A28C083AC777B922E2","019cf4b8-85a4-7319-9083-acad32e85241","019cf498-06e0-702e-b525-9cde1ad77653","","null","
                <div class=""stimulus-container"">
                    <img src=""images/causal_sequence/the_performance_causal/the_performance_causal_8.png"" class=""exp-image"">
                    <div class=""question-area"">
                        <p style=""font-size: 20px; font-weight: bold; margin: 0;"">Is there a person in this image?</p>
                    </div>
                </div>","null","main_experiment_trial","8","the_performance_causal","causal_sequence","","","","",""
"","","","","","html-keyboard-response","159","610412","0.0-159.0","062AFDF2A90B43A28C083AC777B922E2","019cf4b8-85a4-7319-9083-acad32e85241","019cf498-06e0-702e-b525-9cde1ad77653","","null","
                <div class=""stimulus-container"">
                    <img src=""images/causal_sequence/the_performance_causal/the_performance_causal_9.png"" class=""exp-image"">
                    <div class=""question-area""></div> 
                </div>","null","","","","","","","","",""
"","","","","","html-button-response","160","611117","0.0-160.0","062AFDF2A90B43A28C083AC777B922E2","019cf4b8-85a4-7319-9083-acad32e85241","019cf498-06e0-702e-b525-9cde1ad77653","","703","
                <div class=""stimulus-container"">
                    <img src=""images/causal_sequence/the_performance_causal/the_performance_causal_9.png"" class=""exp-image"">
                    <div class=""question-area"">
                        <p style=""font-size: 20px; font-weight: bold; margin: 0;"">Is there a person in this image?</p>
                    </div>
                </div>","0","main_experiment_trial","9","the_performance_causal","causal_sequence","","","","",""
"","","","","","html-keyboard-response","161","616147","0.0-161.0","062AFDF2A90B43A28C083AC777B922E2","019cf4b8-85a4-7319-9083-acad32e85241","019cf498-06e0-702e-b525-9cde1ad77653","","null","
                <div class=""stimulus-container"">
                    <img src=""images/causal_sequence/the_performance_causal/the_performance_causal_ten.png"" class=""exp-image"">
                    <div class=""question-area""></div> 
                </div>","null","","","","","","","","",""
"","","","","","html-button-response","162","616679","0.0-162.0","062AFDF2A90B43A28C083AC777B922E2","019cf4b8-85a4-7319-9083-acad32e85241","019cf498-06e0-702e-b525-9cde1ad77653","","530","
                <div class=""stimulus-container"">
                    <img src=""images/causal_sequence/the_performance_causal/the_performance_causal_ten.png"" class=""exp-image"">
                    <div class=""question-area"">
                        <p style=""font-size: 20px; font-weight: bold; margin: 0;"">Is there a person in this image?</p>
                    </div>
                </div>","0","main_experiment_trial","ten","the_performance_causal","causal_sequence","","","","",""
"","","","","","html-keyboard-response","163","617688","0.0-163.0","062AFDF2A90B43A28C083AC777B922E2","019cf4b8-85a4-7319-9083-acad32e85241","019cf498-06e0-702e-b525-9cde1ad77653","","null","<div style=""background-color: white; width: 100vw; height: 100vh;""></div>","null","","","","","","","","",""
"","","","","","html-keyboard-response","164","622708","0.0-164.0","062AFDF2A90B43A28C083AC777B922E2","019cf4b8-85a4-7319-9083-acad32e85241","019cf498-06e0-702e-b525-9cde1ad77653","","null","
                <div class=""stimulus-container"">
                    <img src=""images/schematic_sequence/restaurant_scheme/restaurant_scheme_1.png"" class=""exp-image"">
                    <div class=""question-area""></div> 
                </div>","null","","","","","","","","",""
"","","","","","html-button-response","165","623264","0.0-165.0","062AFDF2A90B43A28C083AC777B922E2","019cf4b8-85a4-7319-9083-acad32e85241","019cf498-06e0-702e-b525-9cde1ad77653","","553","
                <div class=""stimulus-container"">
                    <img src=""images/schematic_sequence/restaurant_scheme/restaurant_scheme_1.png"" class=""exp-image"">
                    <div class=""question-area"">
                        <p style=""font-size: 20px; font-weight: bold; margin: 0;"">Is there a person in this image?</p>
                    </div>
                </div>","0","main_experiment_trial","1","restaurant_scheme","schematic_sequence","","","","",""
"","","","","","html-keyboard-response","166","628272","0.0-166.0","062AFDF2A90B43A28C083AC777B922E2","019cf4b8-85a4-7319-9083-acad32e85241","019cf498-06e0-702e-b525-9cde1ad77653","","null","
                <div class=""stimulus-container"">
                    <img src=""images/schematic_sequence/restaurant_scheme/restaurant_scheme_2.png"" class=""exp-image"">
                    <div class=""question-area""></div> 
                </div>","null","","","","","","","","",""
"","","","","","html-button-response","167","628862","0.0-167.0","062AFDF2A90B43A28C083AC777B922E2","019cf4b8-85a4-7319-9083-acad32e85241","019cf498-06e0-702e-b525-9cde1ad77653","","590","
                <div class=""stimulus-container"">
                    <img src=""images/schematic_sequence/restaurant_scheme/restaurant_scheme_2.png"" class=""exp-image"">
                    <div class=""question-area"">
                        <p style=""font-size: 20px; font-weight: bold; margin: 0;"">Is there a person in this image?</p>
                    </div>
                </div>","1","main_experiment_trial","2","restaurant_scheme","schematic_sequence","","","","",""
"","","","","","html-keyboard-response","168","633865","0.0-168.0","062AFDF2A90B43A28C083AC777B922E2","019cf4b8-85a4-7319-9083-acad32e85241","019cf498-06e0-702e-b525-9cde1ad77653","","null","
                <div class=""stimulus-container"">
                    <img src=""images/schematic_sequence/restaurant_scheme/restaurant_scheme_3.png"" class=""exp-image"">
                    <div class=""question-area""></div> 
                </div>","null","","","","","","","","",""
"","","","","","html-button-response","169","636660","0.0-169.0","062AFDF2A90B43A28C083AC777B922E2","019cf4b8-85a4-7319-9083-acad32e85241","019cf498-06e0-702e-b525-9cde1ad77653","","2793","
                <div class=""stimulus-container"">
                    <img src=""images/schematic_sequence/restaurant_scheme/restaurant_scheme_3.png"" class=""exp-image"">
                    <div class=""question-area"">
                        <p style=""font-size: 20px; font-weight: bold; margin: 0;"">Is there a person in this image?</p>
                    </div>
                </div>","1","main_experiment_trial","3","restaurant_scheme","schematic_sequence","","","","",""
"","","","","","html-keyboard-response","170","641678","0.0-170.0","062AFDF2A90B43A28C083AC777B922E2","019cf4b8-85a4-7319-9083-acad32e85241","019cf498-06e0-702e-b525-9cde1ad77653","","null","
                <div class=""stimulus-container"">
                    <img src=""images/schematic_sequence/restaurant_scheme/restaurant_scheme_4.png"" class=""exp-image"">
                    <div class=""question-area""></div> 
                </div>","null","","","","","","","","",""
"","","","","","html-button-response","171","642226","0.0-171.0","062AFDF2A90B43A28C083AC777B922E2","019cf4b8-85a4-7319-9083-acad32e85241","019cf498-06e0-702e-b525-9cde1ad77653","","546","
                <div class=""stimulus-container"">
                    <img src=""images/schematic_sequence/restaurant_scheme/restaurant_scheme_4.png"" class=""exp-image"">
                    <div class=""question-area"">
                        <p style=""font-size: 20px; font-weight: bold; margin: 0;"">Is there a person in this image?</p>
                    </div>
                </div>","0","main_experiment_trial","4","restaurant_scheme","schematic_sequence","","","","",""
"","","","","","html-keyboard-response","172","647232","0.0-172.0","062AFDF2A90B43A28C083AC777B922E2","019cf4b8-85a4-7319-9083-acad32e85241","019cf498-06e0-702e-b525-9cde1ad77653","","null","
                <div class=""stimulus-container"">
                    <img src=""images/schematic_sequence/restaurant_scheme/restaurant_scheme_5.png"" class=""exp-image"">
                    <div class=""question-area""></div> 
                </div>","null","","","","","","","","",""
"","","","","","html-button-response","173","647857","0.0-173.0","062AFDF2A90B43A28C083AC777B922E2","019cf4b8-85a4-7319-9083-acad32e85241","019cf498-06e0-702e-b525-9cde1ad77653","","623","
                <div class=""stimulus-container"">
                    <img src=""images/schematic_sequence/restaurant_scheme/restaurant_scheme_5.png"" class=""exp-image"">
                    <div class=""question-area"">
                        <p style=""font-size: 20px; font-weight: bold; margin: 0;"">Is there a person in this image?</p>
                    </div>
                </div>","0","main_experiment_trial","5","restaurant_scheme","schematic_sequence","","","","",""
"","","","","","html-keyboard-response","174","652881","0.0-174.0","062AFDF2A90B43A28C083AC777B922E2","019cf4b8-85a4-7319-9083-acad32e85241","019cf498-06e0-702e-b525-9cde1ad77653","","null","
                <div class=""stimulus-container"">
                    <img src=""images/schematic_sequence/restaurant_scheme/restaurant_scheme_6.png"" class=""exp-image"">
                    <div class=""question-area""></div> 
                </div>","null","","","","","","","","",""
"","","","","","html-button-response","175","653424","0.0-175.0","062AFDF2A90B43A28C083AC777B922E2","019cf4b8-85a4-7319-9083-acad32e85241","019cf498-06e0-702e-b525-9cde1ad77653","","543","
                <div class=""stimulus-container"">
                    <img src=""images/schematic_sequence/restaurant_scheme/restaurant_scheme_6.png"" class=""exp-image"">
                    <div class=""question-area"">
                        <p style=""font-size: 20px; font-weight: bold; margin: 0;"">Is there a person in this image?</p>
                    </div>
                </div>","1","main_experiment_trial","6","restaurant_scheme","schematic_sequence","","","","",""
"","","","","","html-keyboard-response","176","658435","0.0-176.0","062AFDF2A90B43A28C083AC777B922E2","019cf4b8-85a4-7319-9083-acad32e85241","019cf498-06e0-702e-b525-9cde1ad77653","","null","
                <div class=""stimulus-container"">
                    <img src=""images/schematic_sequence/restaurant_scheme/restaurant_scheme_7.png"" class=""exp-image"">
                    <div class=""question-area""></div> 
                </div>","null","","","","","","","","",""
"","","","","","html-button-response","177","658928","0.0-177.0","062AFDF2A90B43A28C083AC777B922E2","019cf4b8-85a4-7319-9083-acad32e85241","019cf498-06e0-702e-b525-9cde1ad77653","","492","
                <div class=""stimulus-container"">
                    <img src=""images/schematic_sequence/restaurant_scheme/restaurant_scheme_7.png"" class=""exp-image"">
                    <div class=""question-area"">
                        <p style=""font-size: 20px; font-weight: bold; margin: 0;"">Is there a person in this image?</p>
                    </div>
                </div>","1","main_experiment_trial","7","restaurant_scheme","schematic_sequence","","","","",""
"","","","","","html-keyboard-response","178","663936","0.0-178.0","062AFDF2A90B43A28C083AC777B922E2","019cf4b8-85a4-7319-9083-acad32e85241","019cf498-06e0-702e-b525-9cde1ad77653","","null","
                <div class=""stimulus-container"">
                    <img src=""images/schematic_sequence/restaurant_scheme/restaurant_scheme_8.png"" class=""exp-image"">
                    <div class=""question-area""></div> 
                </div>","null","","","","","","","","",""
"","","","","","html-button-response","179","664565","0.0-179.0","062AFDF2A90B43A28C083AC777B922E2","019cf4b8-85a4-7319-9083-acad32e85241","019cf498-06e0-702e-b525-9cde1ad77653","","627","
                <div class=""stimulus-container"">
                    <img src=""images/schematic_sequence/restaurant_scheme/restaurant_scheme_8.png"" class=""exp-image"">
                    <div class=""question-area"">
                        <p style=""font-size: 20px; font-weight: bold; margin: 0;"">Is there a person in this image?</p>
                    </div>
                </div>","1","main_experiment_trial","8","restaurant_scheme","schematic_sequence","","","","",""
"","","","","","html-keyboard-response","180","669577","0.0-180.0","062AFDF2A90B43A28C083AC777B922E2","019cf4b8-85a4-7319-9083-acad32e85241","019cf498-06e0-702e-b525-9cde1ad77653","","null","
                <div class=""stimulus-container"">
                    <img src=""images/schematic_sequence/restaurant_scheme/restaurant_scheme_9.png"" class=""exp-image"">
                    <div class=""question-area""></div> 
                </div>","null","","","","","","","","",""
"","","","","","html-button-response","181","670068","0.0-181.0","062AFDF2A90B43A28C083AC777B922E2","019cf4b8-85a4-7319-9083-acad32e85241","019cf498-06e0-702e-b525-9cde1ad77653","","488","
                <div class=""stimulus-container"">
                    <img src=""images/schematic_sequence/restaurant_scheme/restaurant_scheme_9.png"" class=""exp-image"">
                    <div class=""question-area"">
                        <p style=""font-size: 20px; font-weight: bold; margin: 0;"">Is there a person in this image?</p>
                    </div>
                </div>","0","main_experiment_trial","9","restaurant_scheme","schematic_sequence","","","","",""
"","","","","","html-keyboard-response","182","675084","0.0-182.0","062AFDF2A90B43A28C083AC777B922E2","019cf4b8-85a4-7319-9083-acad32e85241","019cf498-06e0-702e-b525-9cde1ad77653","","null","
                <div class=""stimulus-container"">
                    <img src=""images/schematic_sequence/restaurant_scheme/restaurant_scheme_ten.png"" class=""exp-image"">
                    <div class=""question-area""></div> 
