"success","timeout","failed_images","failed_audio","failed_video","trial_type","trial_index","time_elapsed","internal_node_id","subject_id","study_id","session_id","view_history","rt","stimulus","response","task","image_index","folder","sequence_type","valuable_image_index","reward_type","chosen_image_index","target_X","correct_choice"
"true","false","[]","[]","[]","preload","0","27841","0.0-0.0","EBAF633044DF451FAC3501003CDB526C","019cf78d-4b34-7cf4-a308-982a4511594e","019cf78c-cfcf-769c-9016-9b96552b5e33","","","","","","","","","","","","",""
"","","","","","instructions","1","39939","0.0-1.0","EBAF633044DF451FAC3501003CDB526C","019cf78d-4b34-7cf4-a308-982a4511594e","019cf78c-cfcf-769c-9016-9b96552b5e33","[{""page_index"":0,""viewing_time"":12097}]","12097","","","","","","","","","","",""
"","","","","","instructions","2","42557","0.0-2.0","EBAF633044DF451FAC3501003CDB526C","019cf78d-4b34-7cf4-a308-982a4511594e","019cf78c-cfcf-769c-9016-9b96552b5e33","[{""page_index"":0,""viewing_time"":2618}]","2618","","","","","","","","","","",""
"true","","","","","fullscreen","3","44655","0.0-3.0","EBAF633044DF451FAC3501003CDB526C","019cf78d-4b34-7cf4-a308-982a4511594e","019cf78c-cfcf-769c-9016-9b96552b5e33","","1092","","","","","","","","","","",""
"","","","","","instructions","4","52392","0.0-4.0","EBAF633044DF451FAC3501003CDB526C","019cf78d-4b34-7cf4-a308-982a4511594e","019cf78c-cfcf-769c-9016-9b96552b5e33","[{""page_index"":0,""viewing_time"":7737}]","7737","","","","","","","","","","",""
"","","","","","instructions","5","59648","0.0-5.0","EBAF633044DF451FAC3501003CDB526C","019cf78d-4b34-7cf4-a308-982a4511594e","019cf78c-cfcf-769c-9016-9b96552b5e33","[{""page_index"":0,""viewing_time"":7255}]","7256","","","","","","","","","","",""
"","","","","","html-keyboard-response","6","63653","0.0-6.0","EBAF633044DF451FAC3501003CDB526C","019cf78d-4b34-7cf4-a308-982a4511594e","019cf78c-cfcf-769c-9016-9b96552b5e33","","null","
                <div class=""stimulus-container"">
                    <img src=""images/instructions/movie_1.png"" class=""exp-image"">
                    <div class=""question-area""></div> 
                </div>","null","","","","","","","","",""
"","","","","","html-button-response","7","66629","0.0-7.0","EBAF633044DF451FAC3501003CDB526C","019cf78d-4b34-7cf4-a308-982a4511594e","019cf78c-cfcf-769c-9016-9b96552b5e33","","2975","
                <div class=""stimulus-container"">
                    <img src=""images/instructions/movie_1.png"" class=""exp-image"">
                    <div class=""question-area"">
                        <p style=""font-size: 20px; font-weight: bold; margin: 0;"">Was there a person in this image?</p>
                    </div>
                </div>","0","example_question","1","","","","","","",""
"","","","","","html-keyboard-response","8","70634","0.0-8.0","EBAF633044DF451FAC3501003CDB526C","019cf78d-4b34-7cf4-a308-982a4511594e","019cf78c-cfcf-769c-9016-9b96552b5e33","","null","
                <div class=""stimulus-container"">
                    <img src=""images/instructions/movie_2.png"" class=""exp-image"">
                    <div class=""question-area""></div> 
                </div>","null","","","","","","","","",""
"","","","","","html-button-response","9","72499","0.0-9.0","EBAF633044DF451FAC3501003CDB526C","019cf78d-4b34-7cf4-a308-982a4511594e","019cf78c-cfcf-769c-9016-9b96552b5e33","","1864","
                <div class=""stimulus-container"">
                    <img src=""images/instructions/movie_2.png"" class=""exp-image"">
                    <div class=""question-area"">
                        <p style=""font-size: 20px; font-weight: bold; margin: 0;"">Was there a person in this image?</p>
                    </div>
                </div>","0","example_question","2","","","","","","",""
"","","","","","html-keyboard-response","10","76503","0.0-10.0","EBAF633044DF451FAC3501003CDB526C","019cf78d-4b34-7cf4-a308-982a4511594e","019cf78c-cfcf-769c-9016-9b96552b5e33","","null","
                <div class=""stimulus-container"">
                    <img src=""images/instructions/movie_3.png"" class=""exp-image"">
                    <div class=""question-area""></div> 
                </div>","null","","","","","","","","",""
"","","","","","html-button-response","11","77454","0.0-11.0","EBAF633044DF451FAC3501003CDB526C","019cf78d-4b34-7cf4-a308-982a4511594e","019cf78c-cfcf-769c-9016-9b96552b5e33","","951","
                <div class=""stimulus-container"">
                    <img src=""images/instructions/movie_3.png"" class=""exp-image"">
                    <div class=""question-area"">
                        <p style=""font-size: 20px; font-weight: bold; margin: 0;"">Was there a person in this image?</p>
                    </div>
                </div>","0","example_question","3","","","","","","",""
"","","","","","html-keyboard-response","12","81470","0.0-12.0","EBAF633044DF451FAC3501003CDB526C","019cf78d-4b34-7cf4-a308-982a4511594e","019cf78c-cfcf-769c-9016-9b96552b5e33","","null","
                <div class=""stimulus-container"">
                    <img src=""images/instructions/movie_4.png"" class=""exp-image"">
                    <div class=""question-area""></div> 
                </div>","null","","","","","","","","",""
"","","","","","html-button-response","13","82072","0.0-13.0","EBAF633044DF451FAC3501003CDB526C","019cf78d-4b34-7cf4-a308-982a4511594e","019cf78c-cfcf-769c-9016-9b96552b5e33","","602","
                <div class=""stimulus-container"">
                    <img src=""images/instructions/movie_4.png"" class=""exp-image"">
                    <div class=""question-area"">
                        <p style=""font-size: 20px; font-weight: bold; margin: 0;"">Was there a person in this image?</p>
                    </div>
                </div>","0","example_question","4","","","","","","",""
"","","","","","instructions","14","84232","0.0-14.0","EBAF633044DF451FAC3501003CDB526C","019cf78d-4b34-7cf4-a308-982a4511594e","019cf78c-cfcf-769c-9016-9b96552b5e33","[{""page_index"":0,""viewing_time"":2160}]","2160","","","","","","","","","","",""
"","","","","","instructions","15","91264","0.0-15.0","EBAF633044DF451FAC3501003CDB526C","019cf78d-4b34-7cf4-a308-982a4511594e","019cf78c-cfcf-769c-9016-9b96552b5e33","[{""page_index"":0,""viewing_time"":7031}]","7032","","","","","","","","","","",""
"","","","","","html-keyboard-response","16","92271","0.0-16.0","EBAF633044DF451FAC3501003CDB526C","019cf78d-4b34-7cf4-a308-982a4511594e","019cf78c-cfcf-769c-9016-9b96552b5e33","","null","<div style=""background-color: white; width: 100vw; height: 100vh;""></div>","null","","","","","","","","",""
"","","","","","html-keyboard-response","17","97279","0.0-17.0","EBAF633044DF451FAC3501003CDB526C","019cf78d-4b34-7cf4-a308-982a4511594e","019cf78c-cfcf-769c-9016-9b96552b5e33","","null","
                <div class=""stimulus-container"">
                    <img src=""images/schematic_sequence/supermarket_scheme/supermarket_scheme_1.png"" class=""exp-image"">
                    <div class=""question-area""></div> 
                </div>","null","","","","","","","","",""
"","","","","","html-button-response","18","98956","0.0-18.0","EBAF633044DF451FAC3501003CDB526C","019cf78d-4b34-7cf4-a308-982a4511594e","019cf78c-cfcf-769c-9016-9b96552b5e33","","1677","
                <div class=""stimulus-container"">
                    <img src=""images/schematic_sequence/supermarket_scheme/supermarket_scheme_1.png"" class=""exp-image"">
                    <div class=""question-area"">
                        <p style=""font-size: 20px; font-weight: bold; margin: 0;"">Is there a person in this image?</p>
                    </div>
                </div>","1","main_experiment_trial","1","supermarket_scheme","schematic_sequence","","","","",""
"","","","","","html-keyboard-response","19","103968","0.0-19.0","EBAF633044DF451FAC3501003CDB526C","019cf78d-4b34-7cf4-a308-982a4511594e","019cf78c-cfcf-769c-9016-9b96552b5e33","","null","
                <div class=""stimulus-container"">
                    <img src=""images/schematic_sequence/supermarket_scheme/supermarket_scheme_2.png"" class=""exp-image"">
                    <div class=""question-area""></div> 
                </div>","null","","","","","","","","",""
"","","","","","html-button-response","20","104586","0.0-20.0","EBAF633044DF451FAC3501003CDB526C","019cf78d-4b34-7cf4-a308-982a4511594e","019cf78c-cfcf-769c-9016-9b96552b5e33","","617","
                <div class=""stimulus-container"">
                    <img src=""images/schematic_sequence/supermarket_scheme/supermarket_scheme_2.png"" class=""exp-image"">
                    <div class=""question-area"">
                        <p style=""font-size: 20px; font-weight: bold; margin: 0;"">Is there a person in this image?</p>
                    </div>
                </div>","1","main_experiment_trial","2","supermarket_scheme","schematic_sequence","","","","",""
"","","","","","html-keyboard-response","21","109598","0.0-21.0","EBAF633044DF451FAC3501003CDB526C","019cf78d-4b34-7cf4-a308-982a4511594e","019cf78c-cfcf-769c-9016-9b96552b5e33","","null","
                <div class=""stimulus-container"">
                    <img src=""images/schematic_sequence/supermarket_scheme/supermarket_scheme_3.png"" class=""exp-image"">
                    <div class=""question-area""></div> 
                </div>","null","","","","","","","","",""
"","","","","","html-button-response","22","109910","0.0-22.0","EBAF633044DF451FAC3501003CDB526C","019cf78d-4b34-7cf4-a308-982a4511594e","019cf78c-cfcf-769c-9016-9b96552b5e33","","311","
                <div class=""stimulus-container"">
                    <img src=""images/schematic_sequence/supermarket_scheme/supermarket_scheme_3.png"" class=""exp-image"">
                    <div class=""question-area"">
                        <p style=""font-size: 20px; font-weight: bold; margin: 0;"">Is there a person in this image?</p>
                    </div>
                </div>","1","main_experiment_trial","3","supermarket_scheme","schematic_sequence","","","","",""
"","","","","","html-keyboard-response","23","114914","0.0-23.0","EBAF633044DF451FAC3501003CDB526C","019cf78d-4b34-7cf4-a308-982a4511594e","019cf78c-cfcf-769c-9016-9b96552b5e33","","null","
                <div class=""stimulus-container"">
                    <img src=""images/schematic_sequence/supermarket_scheme/supermarket_scheme_4.png"" class=""exp-image"">
                    <div class=""question-area""></div> 
                </div>","null","","","","","","","","",""
"","","","","","html-button-response","24","115712","0.0-24.0","EBAF633044DF451FAC3501003CDB526C","019cf78d-4b34-7cf4-a308-982a4511594e","019cf78c-cfcf-769c-9016-9b96552b5e33","","797","
                <div class=""stimulus-container"">
                    <img src=""images/schematic_sequence/supermarket_scheme/supermarket_scheme_4.png"" class=""exp-image"">
                    <div class=""question-area"">
                        <p style=""font-size: 20px; font-weight: bold; margin: 0;"">Is there a person in this image?</p>
                    </div>
                </div>","0","main_experiment_trial","4","supermarket_scheme","schematic_sequence","","","","",""
"","","","","","html-keyboard-response","25","120722","0.0-25.0","EBAF633044DF451FAC3501003CDB526C","019cf78d-4b34-7cf4-a308-982a4511594e","019cf78c-cfcf-769c-9016-9b96552b5e33","","null","
                <div class=""stimulus-container"">
                    <img src=""images/schematic_sequence/supermarket_scheme/supermarket_scheme_5.png"" class=""exp-image"">
                    <div class=""question-area""></div> 
                </div>","null","","","","","","","","",""
"","","","","","html-button-response","26","121231","0.0-26.0","EBAF633044DF451FAC3501003CDB526C","019cf78d-4b34-7cf4-a308-982a4511594e","019cf78c-cfcf-769c-9016-9b96552b5e33","","508","
                <div class=""stimulus-container"">
                    <img src=""images/schematic_sequence/supermarket_scheme/supermarket_scheme_5.png"" class=""exp-image"">
                    <div class=""question-area"">
                        <p style=""font-size: 20px; font-weight: bold; margin: 0;"">Is there a person in this image?</p>
                    </div>
                </div>","1","main_experiment_trial","5","supermarket_scheme","schematic_sequence","","","","",""
"","","","","","html-keyboard-response","27","126239","0.0-27.0","EBAF633044DF451FAC3501003CDB526C","019cf78d-4b34-7cf4-a308-982a4511594e","019cf78c-cfcf-769c-9016-9b96552b5e33","","null","
                <div class=""stimulus-container"">
                    <img src=""images/schematic_sequence/supermarket_scheme/supermarket_scheme_6.png"" class=""exp-image"">
                    <div class=""question-area""></div> 
                </div>","null","","","","","","","","",""
"","","","","","html-button-response","28","127371","0.0-28.0","EBAF633044DF451FAC3501003CDB526C","019cf78d-4b34-7cf4-a308-982a4511594e","019cf78c-cfcf-769c-9016-9b96552b5e33","","1131","
                <div class=""stimulus-container"">
                    <img src=""images/schematic_sequence/supermarket_scheme/supermarket_scheme_6.png"" class=""exp-image"">
                    <div class=""question-area"">
                        <p style=""font-size: 20px; font-weight: bold; margin: 0;"">Is there a person in this image?</p>
                    </div>
                </div>","0","main_experiment_trial","6","supermarket_scheme","schematic_sequence","","","","",""
"","","","","","html-keyboard-response","29","132382","0.0-29.0","EBAF633044DF451FAC3501003CDB526C","019cf78d-4b34-7cf4-a308-982a4511594e","019cf78c-cfcf-769c-9016-9b96552b5e33","","null","
                <div class=""stimulus-container"">
                    <img src=""images/schematic_sequence/supermarket_scheme/supermarket_scheme_7.png"" class=""exp-image"">
                    <div class=""question-area""></div> 
                </div>","null","","","","","","","","",""
"","","","","","html-button-response","30","132836","0.0-30.0","EBAF633044DF451FAC3501003CDB526C","019cf78d-4b34-7cf4-a308-982a4511594e","019cf78c-cfcf-769c-9016-9b96552b5e33","","453","
                <div class=""stimulus-container"">
                    <img src=""images/schematic_sequence/supermarket_scheme/supermarket_scheme_7.png"" class=""exp-image"">
                    <div class=""question-area"">
                        <p style=""font-size: 20px; font-weight: bold; margin: 0;"">Is there a person in this image?</p>
                    </div>
                </div>","0","main_experiment_trial","7","supermarket_scheme","schematic_sequence","","","","",""
"","","","","","html-keyboard-response","31","137849","0.0-31.0","EBAF633044DF451FAC3501003CDB526C","019cf78d-4b34-7cf4-a308-982a4511594e","019cf78c-cfcf-769c-9016-9b96552b5e33","","null","
                <div class=""stimulus-container"">
                    <img src=""images/schematic_sequence/supermarket_scheme/supermarket_scheme_8.png"" class=""exp-image"">
                    <div class=""question-area""></div> 
                </div>","null","","","","","","","","",""
"","","","","","html-button-response","32","138556","0.0-32.0","EBAF633044DF451FAC3501003CDB526C","019cf78d-4b34-7cf4-a308-982a4511594e","019cf78c-cfcf-769c-9016-9b96552b5e33","","707","
                <div class=""stimulus-container"">
                    <img src=""images/schematic_sequence/supermarket_scheme/supermarket_scheme_8.png"" class=""exp-image"">
                    <div class=""question-area"">
                        <p style=""font-size: 20px; font-weight: bold; margin: 0;"">Is there a person in this image?</p>
                    </div>
                </div>","0","main_experiment_trial","8","supermarket_scheme","schematic_sequence","","","","",""
"","","","","","html-keyboard-response","33","143571","0.0-33.0","EBAF633044DF451FAC3501003CDB526C","019cf78d-4b34-7cf4-a308-982a4511594e","019cf78c-cfcf-769c-9016-9b96552b5e33","","null","
                <div class=""stimulus-container"">
                    <img src=""images/schematic_sequence/supermarket_scheme/supermarket_scheme_9.png"" class=""exp-image"">
                    <div class=""question-area""></div> 
                </div>","null","","","","","","","","",""
"","","","","","html-button-response","34","144748","0.0-34.0","EBAF633044DF451FAC3501003CDB526C","019cf78d-4b34-7cf4-a308-982a4511594e","019cf78c-cfcf-769c-9016-9b96552b5e33","","1176","
                <div class=""stimulus-container"">
                    <img src=""images/schematic_sequence/supermarket_scheme/supermarket_scheme_9.png"" class=""exp-image"">
                    <div class=""question-area"">
                        <p style=""font-size: 20px; font-weight: bold; margin: 0;"">Is there a person in this image?</p>
                    </div>
                </div>","0","main_experiment_trial","9","supermarket_scheme","schematic_sequence","","","","",""
"","","","","","html-keyboard-response","35","149749","0.0-35.0","EBAF633044DF451FAC3501003CDB526C","019cf78d-4b34-7cf4-a308-982a4511594e","019cf78c-cfcf-769c-9016-9b96552b5e33","","null","
                <div class=""stimulus-container"">
                    <img src=""images/schematic_sequence/supermarket_scheme/supermarket_scheme_ten.png"" class=""exp-image"">
                    <div class=""question-area""></div> 
                </div>","null","","","","","","","","",""
"","","","","","html-button-response","36","151301","0.0-36.0","EBAF633044DF451FAC3501003CDB526C","019cf78d-4b34-7cf4-a308-982a4511594e","019cf78c-cfcf-769c-9016-9b96552b5e33","","1552","
                <div class=""stimulus-container"">
                    <img src=""images/schematic_sequence/supermarket_scheme/supermarket_scheme_ten.png"" class=""exp-image"">
                    <div class=""question-area"">
                        <p style=""font-size: 20px; font-weight: bold; margin: 0;"">Is there a person in this image?</p>
                    </div>
                </div>","1","main_experiment_trial","ten","supermarket_scheme","schematic_sequence","","","","",""
"","","","","","html-keyboard-response","37","152310","0.0-37.0","EBAF633044DF451FAC3501003CDB526C","019cf78d-4b34-7cf4-a308-982a4511594e","019cf78c-cfcf-769c-9016-9b96552b5e33","","null","<div style=""background-color: white; width: 100vw; height: 100vh;""></div>","null","","","","","","","","",""
"","","","","","html-keyboard-response","38","157325","0.0-38.0","EBAF633044DF451FAC3501003CDB526C","019cf78d-4b34-7cf4-a308-982a4511594e","019cf78c-cfcf-769c-9016-9b96552b5e33","","null","
                <div class=""stimulus-container"">
                    <img src=""images/semantic_sequence/self_care_activities_semantic/self_care_activities_semantic_1.png"" class=""exp-image"">
                    <div class=""question-area""></div> 
                </div>","null","","","","","","","","",""
"","","","","","html-button-response","39","158602","0.0-39.0","EBAF633044DF451FAC3501003CDB526C","019cf78d-4b34-7cf4-a308-982a4511594e","019cf78c-cfcf-769c-9016-9b96552b5e33","","1276","
                <div class=""stimulus-container"">
                    <img src=""images/semantic_sequence/self_care_activities_semantic/self_care_activities_semantic_1.png"" class=""exp-image"">
                    <div class=""question-area"">
                        <p style=""font-size: 20px; font-weight: bold; margin: 0;"">Is there a person in this image?</p>
                    </div>
                </div>","0","main_experiment_trial","1","self_care_activities_semantic","semantic_sequence","","","","",""
"","","","","","html-keyboard-response","40","163608","0.0-40.0","EBAF633044DF451FAC3501003CDB526C","019cf78d-4b34-7cf4-a308-982a4511594e","019cf78c-cfcf-769c-9016-9b96552b5e33","","null","
                <div class=""stimulus-container"">
                    <img src=""images/semantic_sequence/self_care_activities_semantic/self_care_activities_semantic_2.png"" class=""exp-image"">
                    <div class=""question-area""></div> 
                </div>","null","","","","","","","","",""
"","","","","","html-button-response","41","164947","0.0-41.0","EBAF633044DF451FAC3501003CDB526C","019cf78d-4b34-7cf4-a308-982a4511594e","019cf78c-cfcf-769c-9016-9b96552b5e33","","1338","
                <div class=""stimulus-container"">
                    <img src=""images/semantic_sequence/self_care_activities_semantic/self_care_activities_semantic_2.png"" class=""exp-image"">
                    <div class=""question-area"">
                        <p style=""font-size: 20px; font-weight: bold; margin: 0;"">Is there a person in this image?</p>
                    </div>
                </div>","0","main_experiment_trial","2","self_care_activities_semantic","semantic_sequence","","","","",""
"","","","","","html-keyboard-response","42","169960","0.0-42.0","EBAF633044DF451FAC3501003CDB526C","019cf78d-4b34-7cf4-a308-982a4511594e","019cf78c-cfcf-769c-9016-9b96552b5e33","","null","
                <div class=""stimulus-container"">
                    <img src=""images/semantic_sequence/self_care_activities_semantic/self_care_activities_semantic_3.png"" class=""exp-image"">
                    <div class=""question-area""></div> 
                </div>","null","","","","","","","","",""
"","","","","","html-button-response","43","170830","0.0-43.0","EBAF633044DF451FAC3501003CDB526C","019cf78d-4b34-7cf4-a308-982a4511594e","019cf78c-cfcf-769c-9016-9b96552b5e33","","870","
                <div class=""stimulus-container"">
                    <img src=""images/semantic_sequence/self_care_activities_semantic/self_care_activities_semantic_3.png"" class=""exp-image"">
                    <div class=""question-area"">
                        <p style=""font-size: 20px; font-weight: bold; margin: 0;"">Is there a person in this image?</p>
                    </div>
                </div>","0","main_experiment_trial","3","self_care_activities_semantic","semantic_sequence","","","","",""
"","","","","","html-keyboard-response","44","175832","0.0-44.0","EBAF633044DF451FAC3501003CDB526C","019cf78d-4b34-7cf4-a308-982a4511594e","019cf78c-cfcf-769c-9016-9b96552b5e33","","null","
                <div class=""stimulus-container"">
                    <img src=""images/semantic_sequence/self_care_activities_semantic/self_care_activities_semantic_4.png"" class=""exp-image"">
                    <div class=""question-area""></div> 
                </div>","null","","","","","","","","",""
"","","","","","html-button-response","45","176288","0.0-45.0","EBAF633044DF451FAC3501003CDB526C","019cf78d-4b34-7cf4-a308-982a4511594e","019cf78c-cfcf-769c-9016-9b96552b5e33","","456","
                <div class=""stimulus-container"">
                    <img src=""images/semantic_sequence/self_care_activities_semantic/self_care_activities_semantic_4.png"" class=""exp-image"">
                    <div class=""question-area"">
                        <p style=""font-size: 20px; font-weight: bold; margin: 0;"">Is there a person in this image?</p>
                    </div>
                </div>","0","main_experiment_trial","4","self_care_activities_semantic","semantic_sequence","","","","",""
"","","","","","html-keyboard-response","46","181292","0.0-46.0","EBAF633044DF451FAC3501003CDB526C","019cf78d-4b34-7cf4-a308-982a4511594e","019cf78c-cfcf-769c-9016-9b96552b5e33","","null","
                <div class=""stimulus-container"">
                    <img src=""images/semantic_sequence/self_care_activities_semantic/self_care_activities_semantic_5.png"" class=""exp-image"">
                    <div class=""question-area""></div> 
                </div>","null","","","","","","","","",""
"","","","","","html-button-response","47","182818","0.0-47.0","EBAF633044DF451FAC3501003CDB526C","019cf78d-4b34-7cf4-a308-982a4511594e","019cf78c-cfcf-769c-9016-9b96552b5e33","","1525","
                <div class=""stimulus-container"">
                    <img src=""images/semantic_sequence/self_care_activities_semantic/self_care_activities_semantic_5.png"" class=""exp-image"">
                    <div class=""question-area"">
                        <p style=""font-size: 20px; font-weight: bold; margin: 0;"">Is there a person in this image?</p>
                    </div>
                </div>","0","main_experiment_trial","5","self_care_activities_semantic","semantic_sequence","","","","",""
"","","","","","html-keyboard-response","48","187828","0.0-48.0","EBAF633044DF451FAC3501003CDB526C","019cf78d-4b34-7cf4-a308-982a4511594e","019cf78c-cfcf-769c-9016-9b96552b5e33","","null","
                <div class=""stimulus-container"">
                    <img src=""images/semantic_sequence/self_care_activities_semantic/self_care_activities_semantic_6.png"" class=""exp-image"">
                    <div class=""question-area""></div> 
                </div>","null","","","","","","","","",""
"","","","","","html-button-response","49","189678","0.0-49.0","EBAF633044DF451FAC3501003CDB526C","019cf78d-4b34-7cf4-a308-982a4511594e","019cf78c-cfcf-769c-9016-9b96552b5e33","","1849","
                <div class=""stimulus-container"">
                    <img src=""images/semantic_sequence/self_care_activities_semantic/self_care_activities_semantic_6.png"" class=""exp-image"">
                    <div class=""question-area"">
                        <p style=""font-size: 20px; font-weight: bold; margin: 0;"">Is there a person in this image?</p>
                    </div>
                </div>","1","main_experiment_trial","6","self_care_activities_semantic","semantic_sequence","","","","",""
"","","","","","html-keyboard-response","50","194694","0.0-50.0","EBAF633044DF451FAC3501003CDB526C","019cf78d-4b34-7cf4-a308-982a4511594e","019cf78c-cfcf-769c-9016-9b96552b5e33","","null","
                <div class=""stimulus-container"">
                    <img src=""images/semantic_sequence/self_care_activities_semantic/self_care_activities_semantic_7.png"" class=""exp-image"">
                    <div class=""question-area""></div> 
                </div>","null","","","","","","","","",""
"","","","","","html-button-response","51","196800","0.0-51.0","EBAF633044DF451FAC3501003CDB526C","019cf78d-4b34-7cf4-a308-982a4511594e","019cf78c-cfcf-769c-9016-9b96552b5e33","","2105","
                <div class=""stimulus-container"">
                    <img src=""images/semantic_sequence/self_care_activities_semantic/self_care_activities_semantic_7.png"" class=""exp-image"">
                    <div class=""question-area"">
                        <p style=""font-size: 20px; font-weight: bold; margin: 0;"">Is there a person in this image?</p>
                    </div>
                </div>","0","main_experiment_trial","7","self_care_activities_semantic","semantic_sequence","","","","",""
"","","","","","html-keyboard-response","52","201815","0.0-52.0","EBAF633044DF451FAC3501003CDB526C","019cf78d-4b34-7cf4-a308-982a4511594e","019cf78c-cfcf-769c-9016-9b96552b5e33","","null","
                <div class=""stimulus-container"">
                    <img src=""images/semantic_sequence/self_care_activities_semantic/self_care_activities_semantic_8.png"" class=""exp-image"">
                    <div class=""question-area""></div> 
                </div>","null","","","","","","","","",""
"","","","","","html-button-response","53","202880","0.0-53.0","EBAF633044DF451FAC3501003CDB526C","019cf78d-4b34-7cf4-a308-982a4511594e","019cf78c-cfcf-769c-9016-9b96552b5e33","","1065","
                <div class=""stimulus-container"">
                    <img src=""images/semantic_sequence/self_care_activities_semantic/self_care_activities_semantic_8.png"" class=""exp-image"">
                    <div class=""question-area"">
                        <p style=""font-size: 20px; font-weight: bold; margin: 0;"">Is there a person in this image?</p>
                    </div>
                </div>","0","main_experiment_trial","8","self_care_activities_semantic","semantic_sequence","","","","",""
"","","","","","html-keyboard-response","54","207886","0.0-54.0","EBAF633044DF451FAC3501003CDB526C","019cf78d-4b34-7cf4-a308-982a4511594e","019cf78c-cfcf-769c-9016-9b96552b5e33","","null","
                <div class=""stimulus-container"">
                    <img src=""images/semantic_sequence/self_care_activities_semantic/self_care_activities_semantic_9.png"" class=""exp-image"">
                    <div class=""question-area""></div> 
                </div>","null","","","","","","","","",""
"","","","","","html-button-response","55","208450","0.0-55.0","EBAF633044DF451FAC3501003CDB526C","019cf78d-4b34-7cf4-a308-982a4511594e","019cf78c-cfcf-769c-9016-9b96552b5e33","","563","
                <div class=""stimulus-container"">
                    <img src=""images/semantic_sequence/self_care_activities_semantic/self_care_activities_semantic_9.png"" class=""exp-image"">
                    <div class=""question-area"">
                        <p style=""font-size: 20px; font-weight: bold; margin: 0;"">Is there a person in this image?</p>
                    </div>
                </div>","0","main_experiment_trial","9","self_care_activities_semantic","semantic_sequence","","","","",""
"","","","","","html-keyboard-response","56","213454","0.0-56.0","EBAF633044DF451FAC3501003CDB526C","019cf78d-4b34-7cf4-a308-982a4511594e","019cf78c-cfcf-769c-9016-9b96552b5e33","","null","
                <div class=""stimulus-container"">
                    <img src=""images/semantic_sequence/self_care_activities_semantic/self_care_activities_semantic_ten.png"" class=""exp-image"">
                    <div class=""question-area""></div> 
                </div>","null","","","","","","","","",""
"","","","","","html-button-response","57","214112","0.0-57.0","EBAF633044DF451FAC3501003CDB526C","019cf78d-4b34-7cf4-a308-982a4511594e","019cf78c-cfcf-769c-9016-9b96552b5e33","","657","
                <div class=""stimulus-container"">
                    <img src=""images/semantic_sequence/self_care_activities_semantic/self_care_activities_semantic_ten.png"" class=""exp-image"">
                    <div class=""question-area"">
                        <p style=""font-size: 20px; font-weight: bold; margin: 0;"">Is there a person in this image?</p>
                    </div>
                </div>","0","main_experiment_trial","ten","self_care_activities_semantic","semantic_sequence","","","","",""
"","","","","","html-keyboard-response","58","215123","0.0-58.0","EBAF633044DF451FAC3501003CDB526C","019cf78d-4b34-7cf4-a308-982a4511594e","019cf78c-cfcf-769c-9016-9b96552b5e33","","null","<div style=""background-color: white; width: 100vw; height: 100vh;""></div>","null","","","","","","","","",""
"","","","","","html-keyboard-response","59","220126","0.0-59.0","EBAF633044DF451FAC3501003CDB526C","019cf78d-4b34-7cf4-a308-982a4511594e","019cf78c-cfcf-769c-9016-9b96552b5e33","","null","
                <div class=""stimulus-container"">
                    <img src=""images/semantic_sequence/physical_activity_semantic/physical_activity_semantic_1.png"" class=""exp-image"">
                    <div class=""question-area""></div> 
                </div>","null","","","","","","","","",""
"","","","","","html-button-response","60","220522","0.0-60.0","EBAF633044DF451FAC3501003CDB526C","019cf78d-4b34-7cf4-a308-982a4511594e","019cf78c-cfcf-769c-9016-9b96552b5e33","","395","
                <div class=""stimulus-container"">
                    <img src=""images/semantic_sequence/physical_activity_semantic/physical_activity_semantic_1.png"" class=""exp-image"">
                    <div class=""question-area"">
                        <p style=""font-size: 20px; font-weight: bold; margin: 0;"">Is there a person in this image?</p>
                    </div>
                </div>","0","main_experiment_trial","1","physical_activity_semantic","semantic_sequence","","","","",""
"","","","","","html-keyboard-response","61","225527","0.0-61.0","EBAF633044DF451FAC3501003CDB526C","019cf78d-4b34-7cf4-a308-982a4511594e","019cf78c-cfcf-769c-9016-9b96552b5e33","","null","
                <div class=""stimulus-container"">
                    <img src=""images/semantic_sequence/physical_activity_semantic/physical_activity_semantic_2.png"" class=""exp-image"">
                    <div class=""question-area""></div> 
                </div>","null","","","","","","","","",""
"","","","","","html-button-response","62","226181","0.0-62.0","EBAF633044DF451FAC3501003CDB526C","019cf78d-4b34-7cf4-a308-982a4511594e","019cf78c-cfcf-769c-9016-9b96552b5e33","","654","
                <div class=""stimulus-container"">
                    <img src=""images/semantic_sequence/physical_activity_semantic/physical_activity_semantic_2.png"" class=""exp-image"">
                    <div class=""question-area"">
                        <p style=""font-size: 20px; font-weight: bold; margin: 0;"">Is there a person in this image?</p>
                    </div>
                </div>","0","main_experiment_trial","2","physical_activity_semantic","semantic_sequence","","","","",""
"","","","","","html-keyboard-response","63","231196","0.0-63.0","EBAF633044DF451FAC3501003CDB526C","019cf78d-4b34-7cf4-a308-982a4511594e","019cf78c-cfcf-769c-9016-9b96552b5e33","","null","
                <div class=""stimulus-container"">
                    <img src=""images/semantic_sequence/physical_activity_semantic/physical_activity_semantic_3.png"" class=""exp-image"">
                    <div class=""question-area""></div> 
                </div>","null","","","","","","","","",""
"","","","","","html-button-response","64","231669","0.0-64.0","EBAF633044DF451FAC3501003CDB526C","019cf78d-4b34-7cf4-a308-982a4511594e","019cf78c-cfcf-769c-9016-9b96552b5e33","","472","
                <div class=""stimulus-container"">
                    <img src=""images/semantic_sequence/physical_activity_semantic/physical_activity_semantic_3.png"" class=""exp-image"">
                    <div class=""question-area"">
                        <p style=""font-size: 20px; font-weight: bold; margin: 0;"">Is there a person in this image?</p>
                    </div>
                </div>","0","main_experiment_trial","3","physical_activity_semantic","semantic_sequence","","","","",""
"","","","","","html-keyboard-response","65","236674","0.0-65.0","EBAF633044DF451FAC3501003CDB526C","019cf78d-4b34-7cf4-a308-982a4511594e","019cf78c-cfcf-769c-9016-9b96552b5e33","","null","
                <div class=""stimulus-container"">
                    <img src=""images/semantic_sequence/physical_activity_semantic/physical_activity_semantic_4.png"" class=""exp-image"">
                    <div class=""question-area""></div> 
                </div>","null","","","","","","","","",""
"","","","","","html-button-response","66","238530","0.0-66.0","EBAF633044DF451FAC3501003CDB526C","019cf78d-4b34-7cf4-a308-982a4511594e","019cf78c-cfcf-769c-9016-9b96552b5e33","","1855","
                <div class=""stimulus-container"">
                    <img src=""images/semantic_sequence/physical_activity_semantic/physical_activity_semantic_4.png"" class=""exp-image"">
                    <div class=""question-area"">
                        <p style=""font-size: 20px; font-weight: bold; margin: 0;"">Is there a person in this image?</p>
                    </div>
                </div>","0","main_experiment_trial","4","physical_activity_semantic","semantic_sequence","","","","",""
"","","","","","html-keyboard-response","67","243541","0.0-67.0","EBAF633044DF451FAC3501003CDB526C","019cf78d-4b34-7cf4-a308-982a4511594e","019cf78c-cfcf-769c-9016-9b96552b5e33","","null","
                <div class=""stimulus-container"">
                    <img src=""images/semantic_sequence/physical_activity_semantic/physical_activity_semantic_5.png"" class=""exp-image"">
                    <div class=""question-area""></div> 
                </div>","null","","","","","","","","",""
"","","","","","html-button-response","68","243971","0.0-68.0","EBAF633044DF451FAC3501003CDB526C","019cf78d-4b34-7cf4-a308-982a4511594e","019cf78c-cfcf-769c-9016-9b96552b5e33","","429","
                <div class=""stimulus-container"">
                    <img src=""images/semantic_sequence/physical_activity_semantic/physical_activity_semantic_5.png"" class=""exp-image"">
                    <div class=""question-area"">
                        <p style=""font-size: 20px; font-weight: bold; margin: 0;"">Is there a person in this image?</p>
                    </div>
                </div>","0","main_experiment_trial","5","physical_activity_semantic","semantic_sequence","","","","",""
"","","","","","html-keyboard-response","69","248975","0.0-69.0","EBAF633044DF451FAC3501003CDB526C","019cf78d-4b34-7cf4-a308-982a4511594e","019cf78c-cfcf-769c-9016-9b96552b5e33","","null","
                <div class=""stimulus-container"">
                    <img src=""images/semantic_sequence/physical_activity_semantic/physical_activity_semantic_6.png"" class=""exp-image"">
                    <div class=""question-area""></div> 
                </div>","null","","","","","","","","",""
"","","","","","html-button-response","70","249744","0.0-70.0","EBAF633044DF451FAC3501003CDB526C","019cf78d-4b34-7cf4-a308-982a4511594e","019cf78c-cfcf-769c-9016-9b96552b5e33","","768","
                <div class=""stimulus-container"">
                    <img src=""images/semantic_sequence/physical_activity_semantic/physical_activity_semantic_6.png"" class=""exp-image"">
                    <div class=""question-area"">
                        <p style=""font-size: 20px; font-weight: bold; margin: 0;"">Is there a person in this image?</p>
                    </div>
                </div>","0","main_experiment_trial","6","physical_activity_semantic","semantic_sequence","","","","",""
"","","","","","html-keyboard-response","71","254751","0.0-71.0","EBAF633044DF451FAC3501003CDB526C","019cf78d-4b34-7cf4-a308-982a4511594e","019cf78c-cfcf-769c-9016-9b96552b5e33","","null","
                <div class=""stimulus-container"">
                    <img src=""images/semantic_sequence/physical_activity_semantic/physical_activity_semantic_7.png"" class=""exp-image"">
                    <div class=""question-area""></div> 
                </div>","null","","","","","","","","",""
"","","","","","html-button-response","72","255150","0.0-72.0","EBAF633044DF451FAC3501003CDB526C","019cf78d-4b34-7cf4-a308-982a4511594e","019cf78c-cfcf-769c-9016-9b96552b5e33","","399","
                <div class=""stimulus-container"">
                    <img src=""images/semantic_sequence/physical_activity_semantic/physical_activity_semantic_7.png"" class=""exp-image"">
                    <div class=""question-area"">
                        <p style=""font-size: 20px; font-weight: bold; margin: 0;"">Is there a person in this image?</p>
                    </div>
                </div>","0","main_experiment_trial","7","physical_activity_semantic","semantic_sequence","","","","",""
"","","","","","html-keyboard-response","73","260154","0.0-73.0","EBAF633044DF451FAC3501003CDB526C","019cf78d-4b34-7cf4-a308-982a4511594e","019cf78c-cfcf-769c-9016-9b96552b5e33","","null","
                <div class=""stimulus-container"">
                    <img src=""images/semantic_sequence/physical_activity_semantic/physical_activity_semantic_8.png"" class=""exp-image"">
                    <div class=""question-area""></div> 
                </div>","null","","","","","","","","",""
"","","","","","html-button-response","74","260667","0.0-74.0","EBAF633044DF451FAC3501003CDB526C","019cf78d-4b34-7cf4-a308-982a4511594e","019cf78c-cfcf-769c-9016-9b96552b5e33","","512","
                <div class=""stimulus-container"">
                    <img src=""images/semantic_sequence/physical_activity_semantic/physical_activity_semantic_8.png"" class=""exp-image"">
                    <div class=""question-area"">
                        <p style=""font-size: 20px; font-weight: bold; margin: 0;"">Is there a person in this image?</p>
                    </div>
                </div>","0","main_experiment_trial","8","physical_activity_semantic","semantic_sequence","","","","",""
"","","","","","html-keyboard-response","75","265670","0.0-75.0","EBAF633044DF451FAC3501003CDB526C","019cf78d-4b34-7cf4-a308-982a4511594e","019cf78c-cfcf-769c-9016-9b96552b5e33","","null","
                <div class=""stimulus-container"">
                    <img src=""images/semantic_sequence/physical_activity_semantic/physical_activity_semantic_9.png"" class=""exp-image"">
                    <div class=""question-area""></div> 
                </div>","null","","","","","","","","",""
"","","","","","html-button-response","76","266163","0.0-76.0","EBAF633044DF451FAC3501003CDB526C","019cf78d-4b34-7cf4-a308-982a4511594e","019cf78c-cfcf-769c-9016-9b96552b5e33","","492","
                <div class=""stimulus-container"">
                    <img src=""images/semantic_sequence/physical_activity_semantic/physical_activity_semantic_9.png"" class=""exp-image"">
                    <div class=""question-area"">
                        <p style=""font-size: 20px; font-weight: bold; margin: 0;"">Is there a person in this image?</p>
                    </div>
                </div>","0","main_experiment_trial","9","physical_activity_semantic","semantic_sequence","","","","",""
"","","","","","html-keyboard-response","77","271173","0.0-77.0","EBAF633044DF451FAC3501003CDB526C","019cf78d-4b34-7cf4-a308-982a4511594e","019cf78c-cfcf-769c-9016-9b96552b5e33","","null","
                <div class=""stimulus-container"">
                    <img src=""images/semantic_sequence/physical_activity_semantic/physical_activity_semantic_ten.png"" class=""exp-image"">
                    <div class=""question-area""></div> 
                </div>","null","","","","","","","","",""
"","","","","","html-button-response","78","271815","0.0-78.0","EBAF633044DF451FAC3501003CDB526C","019cf78d-4b34-7cf4-a308-982a4511594e","019cf78c-cfcf-769c-9016-9b96552b5e33","","642","
                <div class=""stimulus-container"">
                    <img src=""images/semantic_sequence/physical_activity_semantic/physical_activity_semantic_ten.png"" class=""exp-image"">
                    <div class=""question-area"">
                        <p style=""font-size: 20px; font-weight: bold; margin: 0;"">Is there a person in this image?</p>
                    </div>
                </div>","0","main_experiment_trial","ten","physical_activity_semantic","semantic_sequence","","","","",""
"","","","","","html-keyboard-response","79","272831","0.0-79.0","EBAF633044DF451FAC3501003CDB526C","019cf78d-4b34-7cf4-a308-982a4511594e","019cf78c-cfcf-769c-9016-9b96552b5e33","","null","<div style=""background-color: white; width: 100vw; height: 100vh;""></div>","null","","","","","","","","",""
"","","","","","html-keyboard-response","80","277838","0.0-80.0","EBAF633044DF451FAC3501003CDB526C","019cf78d-4b34-7cf4-a308-982a4511594e","019cf78c-cfcf-769c-9016-9b96552b5e33","","null","
                <div class=""stimulus-container"">
                    <img src=""images/semantic_sequence/cat_care_semantic/cat_care_semantic_1.png"" class=""exp-image"">
                    <div class=""question-area""></div> 
                </div>","null","","","","","","","","",""
"","","","","","html-button-response","81","278405","0.0-81.0","EBAF633044DF451FAC3501003CDB526C","019cf78d-4b34-7cf4-a308-982a4511594e","019cf78c-cfcf-769c-9016-9b96552b5e33","","566","
                <div class=""stimulus-container"">
                    <img src=""images/semantic_sequence/cat_care_semantic/cat_care_semantic_1.png"" class=""exp-image"">
                    <div class=""question-area"">
                        <p style=""font-size: 20px; font-weight: bold; margin: 0;"">Is there a person in this image?</p>
                    </div>
                </div>","0","main_experiment_trial","1","cat_care_semantic","semantic_sequence","","","","",""
"","","","","","html-keyboard-response","82","283416","0.0-82.0","EBAF633044DF451FAC3501003CDB526C","019cf78d-4b34-7cf4-a308-982a4511594e","019cf78c-cfcf-769c-9016-9b96552b5e33","","null","
                <div class=""stimulus-container"">
                    <img src=""images/semantic_sequence/cat_care_semantic/cat_care_semantic_2.png"" class=""exp-image"">
                    <div class=""question-area""></div> 
                </div>","null","","","","","","","","",""
"","","","","","html-button-response","83","284831","0.0-83.0","EBAF633044DF451FAC3501003CDB526C","019cf78d-4b34-7cf4-a308-982a4511594e","019cf78c-cfcf-769c-9016-9b96552b5e33","","1415","
                <div class=""stimulus-container"">
                    <img src=""images/semantic_sequence/cat_care_semantic/cat_care_semantic_2.png"" class=""exp-image"">
                    <div class=""question-area"">
                        <p style=""font-size: 20px; font-weight: bold; margin: 0;"">Is there a person in this image?</p>
                    </div>
                </div>","0","main_experiment_trial","2","cat_care_semantic","semantic_sequence","","","","",""
"","","","","","html-keyboard-response","84","289838","0.0-84.0","EBAF633044DF451FAC3501003CDB526C","019cf78d-4b34-7cf4-a308-982a4511594e","019cf78c-cfcf-769c-9016-9b96552b5e33","","null","
                <div class=""stimulus-container"">
                    <img src=""images/semantic_sequence/cat_care_semantic/cat_care_semantic_3.png"" class=""exp-image"">
                    <div class=""question-area""></div> 
                </div>","null","","","","","","","","",""
"","","","","","html-button-response","85","290529","0.0-85.0","EBAF633044DF451FAC3501003CDB526C","019cf78d-4b34-7cf4-a308-982a4511594e","019cf78c-cfcf-769c-9016-9b96552b5e33","","690","
                <div class=""stimulus-container"">
                    <img src=""images/semantic_sequence/cat_care_semantic/cat_care_semantic_3.png"" class=""exp-image"">
                    <div class=""question-area"">
                        <p style=""font-size: 20px; font-weight: bold; margin: 0;"">Is there a person in this image?</p>
                    </div>
                </div>","0","main_experiment_trial","3","cat_care_semantic","semantic_sequence","","","","",""
"","","","","","html-keyboard-response","86","295544","0.0-86.0","EBAF633044DF451FAC3501003CDB526C","019cf78d-4b34-7cf4-a308-982a4511594e","019cf78c-cfcf-769c-9016-9b96552b5e33","","null","
                <div class=""stimulus-container"">
                    <img src=""images/semantic_sequence/cat_care_semantic/cat_care_semantic_4.png"" class=""exp-image"">
                    <div class=""question-area""></div> 
                </div>","null","","","","","","","","",""
"","","","","","html-button-response","87","297987","0.0-87.0","EBAF633044DF451FAC3501003CDB526C","019cf78d-4b34-7cf4-a308-982a4511594e","019cf78c-cfcf-769c-9016-9b96552b5e33","","2443","
                <div class=""stimulus-container"">
                    <img src=""images/semantic_sequence/cat_care_semantic/cat_care_semantic_4.png"" class=""exp-image"">
                    <div class=""question-area"">
                        <p style=""font-size: 20px; font-weight: bold; margin: 0;"">Is there a person in this image?</p>
                    </div>
                </div>","0","main_experiment_trial","4","cat_care_semantic","semantic_sequence","","","","",""
"","","","","","html-keyboard-response","88","302992","0.0-88.0","EBAF633044DF451FAC3501003CDB526C","019cf78d-4b34-7cf4-a308-982a4511594e","019cf78c-cfcf-769c-9016-9b96552b5e33","","null","
                <div class=""stimulus-container"">
                    <img src=""images/semantic_sequence/cat_care_semantic/cat_care_semantic_5.png"" class=""exp-image"">
                    <div class=""question-area""></div> 
                </div>","null","","","","","","","","",""
"","","","","","html-button-response","89","304452","0.0-89.0","EBAF633044DF451FAC3501003CDB526C","019cf78d-4b34-7cf4-a308-982a4511594e","019cf78c-cfcf-769c-9016-9b96552b5e33","","1459","
                <div class=""stimulus-container"">
                    <img src=""images/semantic_sequence/cat_care_semantic/cat_care_semantic_5.png"" class=""exp-image"">
                    <div class=""question-area"">
                        <p style=""font-size: 20px; font-weight: bold; margin: 0;"">Is there a person in this image?</p>
                    </div>
                </div>","0","main_experiment_trial","5","cat_care_semantic","semantic_sequence","","","","",""
"","","","","","html-keyboard-response","90","309454","0.0-90.0","EBAF633044DF451FAC3501003CDB526C","019cf78d-4b34-7cf4-a308-982a4511594e","019cf78c-cfcf-769c-9016-9b96552b5e33","","null","
                <div class=""stimulus-container"">
                    <img src=""images/semantic_sequence/cat_care_semantic/cat_care_semantic_6.png"" class=""exp-image"">
                    <div class=""question-area""></div> 
                </div>","null","","","","","","","","",""
"","","","","","html-button-response","91","311222","0.0-91.0","EBAF633044DF451FAC3501003CDB526C","019cf78d-4b34-7cf4-a308-982a4511594e","019cf78c-cfcf-769c-9016-9b96552b5e33","","1768","
                <div class=""stimulus-container"">
                    <img src=""images/semantic_sequence/cat_care_semantic/cat_care_semantic_6.png"" class=""exp-image"">
                    <div class=""question-area"">
                        <p style=""font-size: 20px; font-weight: bold; margin: 0;"">Is there a person in this image?</p>
                    </div>
                </div>","0","main_experiment_trial","6","cat_care_semantic","semantic_sequence","","","","",""
"","","","","","html-keyboard-response","92","316238","0.0-92.0","EBAF633044DF451FAC3501003CDB526C","019cf78d-4b34-7cf4-a308-982a4511594e","019cf78c-cfcf-769c-9016-9b96552b5e33","","null","
                <div class=""stimulus-container"">
                    <img src=""images/semantic_sequence/cat_care_semantic/cat_care_semantic_7.png"" class=""exp-image"">
                    <div class=""question-area""></div> 
                </div>","null","","","","","","","","",""
"","","","","","html-button-response","93","319241","0.0-93.0","EBAF633044DF451FAC3501003CDB526C","019cf78d-4b34-7cf4-a308-982a4511594e","019cf78c-cfcf-769c-9016-9b96552b5e33","","null","
                <div class=""stimulus-container"">
                    <img src=""images/semantic_sequence/cat_care_semantic/cat_care_semantic_7.png"" class=""exp-image"">
                    <div class=""question-area"">
                        <p style=""font-size: 20px; font-weight: bold; margin: 0;"">Is there a person in this image?</p>
                    </div>
                </div>","null","main_experiment_trial","7","cat_care_semantic","semantic_sequence","","","","",""
"","","","","","html-keyboard-response","94","324255","0.0-94.0","EBAF633044DF451FAC3501003CDB526C","019cf78d-4b34-7cf4-a308-982a4511594e","019cf78c-cfcf-769c-9016-9b96552b5e33","","null","
                <div class=""stimulus-container"">
                    <img src=""images/semantic_sequence/cat_care_semantic/cat_care_semantic_8.png"" class=""exp-image"">
                    <div class=""question-area""></div> 
                </div>","null","","","","","","","","",""
"","","","","","html-button-response","95","324879","0.0-95.0","EBAF633044DF451FAC3501003CDB526C","019cf78d-4b34-7cf4-a308-982a4511594e","019cf78c-cfcf-769c-9016-9b96552b5e33","","624","
                <div class=""stimulus-container"">
                    <img src=""images/semantic_sequence/cat_care_semantic/cat_care_semantic_8.png"" class=""exp-image"">
                    <div class=""question-area"">
                        <p style=""font-size: 20px; font-weight: bold; margin: 0;"">Is there a person in this image?</p>
                    </div>
                </div>","0","main_experiment_trial","8","cat_care_semantic","semantic_sequence","","","","",""
"","","","","","html-keyboard-response","96","329886","0.0-96.0","EBAF633044DF451FAC3501003CDB526C","019cf78d-4b34-7cf4-a308-982a4511594e","019cf78c-cfcf-769c-9016-9b96552b5e33","","null","
                <div class=""stimulus-container"">
                    <img src=""images/semantic_sequence/cat_care_semantic/cat_care_semantic_9.png"" class=""exp-image"">
                    <div class=""question-area""></div> 
                </div>","null","","","","","","","","",""
"","","","","","html-button-response","97","332892","0.0-97.0","EBAF633044DF451FAC3501003CDB526C","019cf78d-4b34-7cf4-a308-982a4511594e","019cf78c-cfcf-769c-9016-9b96552b5e33","","null","
                <div class=""stimulus-container"">
                    <img src=""images/semantic_sequence/cat_care_semantic/cat_care_semantic_9.png"" class=""exp-image"">
                    <div class=""question-area"">
                        <p style=""font-size: 20px; font-weight: bold; margin: 0;"">Is there a person in this image?</p>
                    </div>
                </div>","null","main_experiment_trial","9","cat_care_semantic","semantic_sequence","","","","",""
"","","","","","html-keyboard-response","98","337900","0.0-98.0","EBAF633044DF451FAC3501003CDB526C","019cf78d-4b34-7cf4-a308-982a4511594e","019cf78c-cfcf-769c-9016-9b96552b5e33","","null","
                <div class=""stimulus-container"">
                    <img src=""images/semantic_sequence/cat_care_semantic/cat_care_semantic_ten.png"" class=""exp-image"">
                    <div class=""question-area""></div> 
                </div>","null","","","","","","","","",""
"","","","","","html-button-response","99","339221","0.0-99.0","EBAF633044DF451FAC3501003CDB526C","019cf78d-4b34-7cf4-a308-982a4511594e","019cf78c-cfcf-769c-9016-9b96552b5e33","","1320","
                <div class=""stimulus-container"">
                    <img src=""images/semantic_sequence/cat_care_semantic/cat_care_semantic_ten.png"" class=""exp-image"">
                    <div class=""question-area"">
                        <p style=""font-size: 20px; font-weight: bold; margin: 0;"">Is there a person in this image?</p>
                    </div>
                </div>","1","main_experiment_trial","ten","cat_care_semantic","semantic_sequence","","","","",""
"","","","","","html-keyboard-response","100","340231","0.0-100.0","EBAF633044DF451FAC3501003CDB526C","019cf78d-4b34-7cf4-a308-982a4511594e","019cf78c-cfcf-769c-9016-9b96552b5e33","","null","<div style=""background-color: white; width: 100vw; height: 100vh;""></div>","null","","","","","","","","",""
"","","","","","html-keyboard-response","101","345242","0.0-101.0","EBAF633044DF451FAC3501003CDB526C","019cf78d-4b34-7cf4-a308-982a4511594e","019cf78c-cfcf-769c-9016-9b96552b5e33","","null","
                <div class=""stimulus-container"">
                    <img src=""images/schematic_sequence/interview_scheme/interview_scheme_1.png"" class=""exp-image"">
                    <div class=""question-area""></div> 
                </div>","null","","","","","","","","",""
"","","","","","html-button-response","102","346165","0.0-102.0","EBAF633044DF451FAC3501003CDB526C","019cf78d-4b34-7cf4-a308-982a4511594e","019cf78c-cfcf-769c-9016-9b96552b5e33","","923","
                <div class=""stimulus-container"">
                    <img src=""images/schematic_sequence/interview_scheme/interview_scheme_1.png"" class=""exp-image"">
                    <div class=""question-area"">
                        <p style=""font-size: 20px; font-weight: bold; margin: 0;"">Is there a person in this image?</p>
                    </div>
                </div>","1","main_experiment_trial","1","interview_scheme","schematic_sequence","","","","",""
"","","","","","html-keyboard-response","103","351176","0.0-103.0","EBAF633044DF451FAC3501003CDB526C","019cf78d-4b34-7cf4-a308-982a4511594e","019cf78c-cfcf-769c-9016-9b96552b5e33","","null","
                <div class=""stimulus-container"">
                    <img src=""images/schematic_sequence/interview_scheme/interview_scheme_2.png"" class=""exp-image"">
                    <div class=""question-area""></div> 
                </div>","null","","","","","","","","",""
"","","","","","html-button-response","104","351801","0.0-104.0","EBAF633044DF451FAC3501003CDB526C","019cf78d-4b34-7cf4-a308-982a4511594e","019cf78c-cfcf-769c-9016-9b96552b5e33","","624","
                <div class=""stimulus-container"">
                    <img src=""images/schematic_sequence/interview_scheme/interview_scheme_2.png"" class=""exp-image"">
                    <div class=""question-area"">
                        <p style=""font-size: 20px; font-weight: bold; margin: 0;"">Is there a person in this image?</p>
                    </div>
                </div>","1","main_experiment_trial","2","interview_scheme","schematic_sequence","","","","",""
"","","","","","html-keyboard-response","105","356803","0.0-105.0","EBAF633044DF451FAC3501003CDB526C","019cf78d-4b34-7cf4-a308-982a4511594e","019cf78c-cfcf-769c-9016-9b96552b5e33","","null","
                <div class=""stimulus-container"">
                    <img src=""images/schematic_sequence/interview_scheme/interview_scheme_3.png"" class=""exp-image"">
                    <div class=""question-area""></div> 
                </div>","null","","","","","","","","",""
"","","","","","html-button-response","106","357605","0.0-106.0","EBAF633044DF451FAC3501003CDB526C","019cf78d-4b34-7cf4-a308-982a4511594e","019cf78c-cfcf-769c-9016-9b96552b5e33","","802","
                <div class=""stimulus-container"">
                    <img src=""images/schematic_sequence/interview_scheme/interview_scheme_3.png"" class=""exp-image"">
                    <div class=""question-area"">
                        <p style=""font-size: 20px; font-weight: bold; margin: 0;"">Is there a person in this image?</p>
                    </div>
                </div>","1","main_experiment_trial","3","interview_scheme","schematic_sequence","","","","",""
"","","","","","html-keyboard-response","107","362618","0.0-107.0","EBAF633044DF451FAC3501003CDB526C","019cf78d-4b34-7cf4-a308-982a4511594e","019cf78c-cfcf-769c-9016-9b96552b5e33","","null","
                <div class=""stimulus-container"">
                    <img src=""images/schematic_sequence/interview_scheme/interview_scheme_4.png"" class=""exp-image"">
                    <div class=""question-area""></div> 
                </div>","null","","","","","","","","",""
"","","","","","html-button-response","108","363827","0.0-108.0","EBAF633044DF451FAC3501003CDB526C","019cf78d-4b34-7cf4-a308-982a4511594e","019cf78c-cfcf-769c-9016-9b96552b5e33","","1209","
                <div class=""stimulus-container"">
                    <img src=""images/schematic_sequence/interview_scheme/interview_scheme_4.png"" class=""exp-image"">
                    <div class=""question-area"">
                        <p style=""font-size: 20px; font-weight: bold; margin: 0;"">Is there a person in this image?</p>
                    </div>
                </div>","1","main_experiment_trial","4","interview_scheme","schematic_sequence","","","","",""
"","","","","","html-keyboard-response","109","368837","0.0-109.0","EBAF633044DF451FAC3501003CDB526C","019cf78d-4b34-7cf4-a308-982a4511594e","019cf78c-cfcf-769c-9016-9b96552b5e33","","null","
                <div class=""stimulus-container"">
                    <img src=""images/schematic_sequence/interview_scheme/interview_scheme_5.png"" class=""exp-image"">
                    <div class=""question-area""></div> 
                </div>","null","","","","","","","","",""
"","","","","","html-button-response","110","370283","0.0-110.0","EBAF633044DF451FAC3501003CDB526C","019cf78d-4b34-7cf4-a308-982a4511594e","019cf78c-cfcf-769c-9016-9b96552b5e33","","1445","
                <div class=""stimulus-container"">
                    <img src=""images/schematic_sequence/interview_scheme/interview_scheme_5.png"" class=""exp-image"">
                    <div class=""question-area"">
                        <p style=""font-size: 20px; font-weight: bold; margin: 0;"">Is there a person in this image?</p>
                    </div>
                </div>","0","main_experiment_trial","5","interview_scheme","schematic_sequence","","","","",""
"","","","","","html-keyboard-response","111","375286","0.0-111.0","EBAF633044DF451FAC3501003CDB526C","019cf78d-4b34-7cf4-a308-982a4511594e","019cf78c-cfcf-769c-9016-9b96552b5e33","","null","
                <div class=""stimulus-container"">
                    <img src=""images/schematic_sequence/interview_scheme/interview_scheme_6.png"" class=""exp-image"">
                    <div class=""question-area""></div> 
                </div>","null","","","","","","","","",""
"","","","","","html-button-response","112","375770","0.0-112.0","EBAF633044DF451FAC3501003CDB526C","019cf78d-4b34-7cf4-a308-982a4511594e","019cf78c-cfcf-769c-9016-9b96552b5e33","","484","
                <div class=""stimulus-container"">
                    <img src=""images/schematic_sequence/interview_scheme/interview_scheme_6.png"" class=""exp-image"">
                    <div class=""question-area"">
                        <p style=""font-size: 20px; font-weight: bold; margin: 0;"">Is there a person in this image?</p>
                    </div>
                </div>","0","main_experiment_trial","6","interview_scheme","schematic_sequence","","","","",""
"","","","","","html-keyboard-response","113","380772","0.0-113.0","EBAF633044DF451FAC3501003CDB526C","019cf78d-4b34-7cf4-a308-982a4511594e","019cf78c-cfcf-769c-9016-9b96552b5e33","","null","
                <div class=""stimulus-container"">
                    <img src=""images/schematic_sequence/interview_scheme/interview_scheme_7.png"" class=""exp-image"">
                    <div class=""question-area""></div> 
                </div>","null","","","","","","","","",""
"","","","","","html-button-response","114","381281","0.0-114.0","EBAF633044DF451FAC3501003CDB526C","019cf78d-4b34-7cf4-a308-982a4511594e","019cf78c-cfcf-769c-9016-9b96552b5e33","","509","
                <div class=""stimulus-container"">
                    <img src=""images/schematic_sequence/interview_scheme/interview_scheme_7.png"" class=""exp-image"">
                    <div class=""question-area"">
                        <p style=""font-size: 20px; font-weight: bold; margin: 0;"">Is there a person in this image?</p>
                    </div>
                </div>","0","main_experiment_trial","7","interview_scheme","schematic_sequence","","","","",""
"","","","","","html-keyboard-response","115","386289","0.0-115.0","EBAF633044DF451FAC3501003CDB526C","019cf78d-4b34-7cf4-a308-982a4511594e","019cf78c-cfcf-769c-9016-9b96552b5e33","","null","
                <div class=""stimulus-container"">
                    <img src=""images/schematic_sequence/interview_scheme/interview_scheme_8.png"" class=""exp-image"">
                    <div class=""question-area""></div> 
                </div>","null","","","","","","","","",""
"","","","","","html-button-response","116","386700","0.0-116.0","EBAF633044DF451FAC3501003CDB526C","019cf78d-4b34-7cf4-a308-982a4511594e","019cf78c-cfcf-769c-9016-9b96552b5e33","","411","
                <div class=""stimulus-container"">
                    <img src=""images/schematic_sequence/interview_scheme/interview_scheme_8.png"" class=""exp-image"">
                    <div class=""question-area"">
                        <p style=""font-size: 20px; font-weight: bold; margin: 0;"">Is there a person in this image?</p>
                    </div>
                </div>","0","main_experiment_trial","8","interview_scheme","schematic_sequence","","","","",""
"","","","","","html-keyboard-response","117","391716","0.0-117.0","EBAF633044DF451FAC3501003CDB526C","019cf78d-4b34-7cf4-a308-982a4511594e","019cf78c-cfcf-769c-9016-9b96552b5e33","","null","
                <div class=""stimulus-container"">
                    <img src=""images/schematic_sequence/interview_scheme/interview_scheme_9.png"" class=""exp-image"">
                    <div class=""question-area""></div> 
                </div>","null","","","","","","","","",""
"","","","","","html-button-response","118","392233","0.0-118.0","EBAF633044DF451FAC3501003CDB526C","019cf78d-4b34-7cf4-a308-982a4511594e","019cf78c-cfcf-769c-9016-9b96552b5e33","","516","
                <div class=""stimulus-container"">
                    <img src=""images/schematic_sequence/interview_scheme/interview_scheme_9.png"" class=""exp-image"">
                    <div class=""question-area"">
                        <p style=""font-size: 20px; font-weight: bold; margin: 0;"">Is there a person in this image?</p>
                    </div>
                </div>","0","main_experiment_trial","9","interview_scheme","schematic_sequence","","","","",""
"","","","","","html-keyboard-response","119","397239","0.0-119.0","EBAF633044DF451FAC3501003CDB526C","019cf78d-4b34-7cf4-a308-982a4511594e","019cf78c-cfcf-769c-9016-9b96552b5e33","","null","
                <div class=""stimulus-container"">
                    <img src=""images/schematic_sequence/interview_scheme/interview_scheme_ten.png"" class=""exp-image"">
                    <div class=""question-area""></div> 
                </div>","null","","","","","","","","",""
"","","","","","html-button-response","120","397609","0.0-120.0","EBAF633044DF451FAC3501003CDB526C","019cf78d-4b34-7cf4-a308-982a4511594e","019cf78c-cfcf-769c-9016-9b96552b5e33","","369","
                <div class=""stimulus-container"">
                    <img src=""images/schematic_sequence/interview_scheme/interview_scheme_ten.png"" class=""exp-image"">
                    <div class=""question-area"">
                        <p style=""font-size: 20px; font-weight: bold; margin: 0;"">Is there a person in this image?</p>
                    </div>
                </div>","0","main_experiment_trial","ten","interview_scheme","schematic_sequence","","","","",""
"","","","","","html-keyboard-response","121","398611","0.0-121.0","EBAF633044DF451FAC3501003CDB526C","019cf78d-4b34-7cf4-a308-982a4511594e","019cf78c-cfcf-769c-9016-9b96552b5e33","","null","<div style=""background-color: white; width: 100vw; height: 100vh;""></div>","null","","","","","","","","",""
"","","","","","html-keyboard-response","122","403623","0.0-122.0","EBAF633044DF451FAC3501003CDB526C","019cf78d-4b34-7cf4-a308-982a4511594e","019cf78c-cfcf-769c-9016-9b96552b5e33","","null","
                <div class=""stimulus-container"">
                    <img src=""images/semantic_sequence/redecorating_a_house_semantic/redecorating_a_house_semantic_1.png"" class=""exp-image"">
                    <div class=""question-area""></div> 
                </div>","null","","","","","","","","",""
"","","","","","html-button-response","123","404206","0.0-123.0","EBAF633044DF451FAC3501003CDB526C","019cf78d-4b34-7cf4-a308-982a4511594e","019cf78c-cfcf-769c-9016-9b96552b5e33","","583","
                <div class=""stimulus-container"">
                    <img src=""images/semantic_sequence/redecorating_a_house_semantic/redecorating_a_house_semantic_1.png"" class=""exp-image"">
                    <div class=""question-area"">
                        <p style=""font-size: 20px; font-weight: bold; margin: 0;"">Is there a person in this image?</p>
                    </div>
                </div>","0","main_experiment_trial","1","redecorating_a_house_semantic","semantic_sequence","","","","",""
"","","","","","html-keyboard-response","124","409210","0.0-124.0","EBAF633044DF451FAC3501003CDB526C","019cf78d-4b34-7cf4-a308-982a4511594e","019cf78c-cfcf-769c-9016-9b96552b5e33","","null","
                <div class=""stimulus-container"">
                    <img src=""images/semantic_sequence/redecorating_a_house_semantic/redecorating_a_house_semantic_2.png"" class=""exp-image"">
                    <div class=""question-area""></div> 
                </div>","null","","","","","","","","",""
"","","","","","html-button-response","125","409791","0.0-125.0","EBAF633044DF451FAC3501003CDB526C","019cf78d-4b34-7cf4-a308-982a4511594e","019cf78c-cfcf-769c-9016-9b96552b5e33","","580","
                <div class=""stimulus-container"">
                    <img src=""images/semantic_sequence/redecorating_a_house_semantic/redecorating_a_house_semantic_2.png"" class=""exp-image"">
                    <div class=""question-area"">
                        <p style=""font-size: 20px; font-weight: bold; margin: 0;"">Is there a person in this image?</p>
                    </div>
                </div>","0","main_experiment_trial","2","redecorating_a_house_semantic","semantic_sequence","","","","",""
"","","","","","html-keyboard-response","126","414796","0.0-126.0","EBAF633044DF451FAC3501003CDB526C","019cf78d-4b34-7cf4-a308-982a4511594e","019cf78c-cfcf-769c-9016-9b96552b5e33","","null","
                <div class=""stimulus-container"">
                    <img src=""images/semantic_sequence/redecorating_a_house_semantic/redecorating_a_house_semantic_3.png"" class=""exp-image"">
                    <div class=""question-area""></div> 
                </div>","null","","","","","","","","",""
"","","","","","html-button-response","127","415865","0.0-127.0","EBAF633044DF451FAC3501003CDB526C","019cf78d-4b34-7cf4-a308-982a4511594e","019cf78c-cfcf-769c-9016-9b96552b5e33","","1068","
                <div class=""stimulus-container"">
                    <img src=""images/semantic_sequence/redecorating_a_house_semantic/redecorating_a_house_semantic_3.png"" class=""exp-image"">
                    <div class=""question-area"">
                        <p style=""font-size: 20px; font-weight: bold; margin: 0;"">Is there a person in this image?</p>
                    </div>
                </div>","0","main_experiment_trial","3","redecorating_a_house_semantic","semantic_sequence","","","","",""
"","","","","","html-keyboard-response","128","420876","0.0-128.0","EBAF633044DF451FAC3501003CDB526C","019cf78d-4b34-7cf4-a308-982a4511594e","019cf78c-cfcf-769c-9016-9b96552b5e33","","null","
                <div class=""stimulus-container"">
                    <img src=""images/semantic_sequence/redecorating_a_house_semantic/redecorating_a_house_semantic_4.png"" class=""exp-image"">
                    <div class=""question-area""></div> 
                </div>","null","","","","","","","","",""
"","","","","","html-button-response","129","421486","0.0-129.0","EBAF633044DF451FAC3501003CDB526C","019cf78d-4b34-7cf4-a308-982a4511594e","019cf78c-cfcf-769c-9016-9b96552b5e33","","610","
                <div class=""stimulus-container"">
                    <img src=""images/semantic_sequence/redecorating_a_house_semantic/redecorating_a_house_semantic_4.png"" class=""exp-image"">
                    <div class=""question-area"">
                        <p style=""font-size: 20px; font-weight: bold; margin: 0;"">Is there a person in this image?</p>
                    </div>
                </div>","0","main_experiment_trial","4","redecorating_a_house_semantic","semantic_sequence","","","","",""
"","","","","","html-keyboard-response","130","426496","0.0-130.0","EBAF633044DF451FAC3501003CDB526C","019cf78d-4b34-7cf4-a308-982a4511594e","019cf78c-cfcf-769c-9016-9b96552b5e33","","null","
                <div class=""stimulus-container"">
                    <img src=""images/semantic_sequence/redecorating_a_house_semantic/redecorating_a_house_semantic_5.png"" class=""exp-image"">
                    <div class=""question-area""></div> 
                </div>","null","","","","","","","","",""
"","","","","","html-button-response","131","427935","0.0-131.0","EBAF633044DF451FAC3501003CDB526C","019cf78d-4b34-7cf4-a308-982a4511594e","019cf78c-cfcf-769c-9016-9b96552b5e33","","1438","
                <div class=""stimulus-container"">
                    <img src=""images/semantic_sequence/redecorating_a_house_semantic/redecorating_a_house_semantic_5.png"" class=""exp-image"">
                    <div class=""question-area"">
                        <p style=""font-size: 20px; font-weight: bold; margin: 0;"">Is there a person in this image?</p>
                    </div>
                </div>","0","main_experiment_trial","5","redecorating_a_house_semantic","semantic_sequence","","","","",""
"","","","","","html-keyboard-response","132","432937","0.0-132.0","EBAF633044DF451FAC3501003CDB526C","019cf78d-4b34-7cf4-a308-982a4511594e","019cf78c-cfcf-769c-9016-9b96552b5e33","","null","
                <div class=""stimulus-container"">
                    <img src=""images/semantic_sequence/redecorating_a_house_semantic/redecorating_a_house_semantic_6.png"" class=""exp-image"">
                    <div class=""question-area""></div> 
                </div>","null","","","","","","","","",""
"","","","","","html-button-response","133","433317","0.0-133.0","EBAF633044DF451FAC3501003CDB526C","019cf78d-4b34-7cf4-a308-982a4511594e","019cf78c-cfcf-769c-9016-9b96552b5e33","","379","
                <div class=""stimulus-container"">
                    <img src=""images/semantic_sequence/redecorating_a_house_semantic/redecorating_a_house_semantic_6.png"" class=""exp-image"">
                    <div class=""question-area"">
                        <p style=""font-size: 20px; font-weight: bold; margin: 0;"">Is there a person in this image?</p>
                    </div>
                </div>","0","main_experiment_trial","6","redecorating_a_house_semantic","semantic_sequence","","","","",""
"","","","","","html-keyboard-response","134","438326","0.0-134.0","EBAF633044DF451FAC3501003CDB526C","019cf78d-4b34-7cf4-a308-982a4511594e","019cf78c-cfcf-769c-9016-9b96552b5e33","","null","
                <div class=""stimulus-container"">
                    <img src=""images/semantic_sequence/redecorating_a_house_semantic/redecorating_a_house_semantic_7.png"" class=""exp-image"">
                    <div class=""question-area""></div> 
                </div>","null","","","","","","","","",""
"","","","","","html-button-response","135","440034","0.0-135.0","EBAF633044DF451FAC3501003CDB526C","019cf78d-4b34-7cf4-a308-982a4511594e","019cf78c-cfcf-769c-9016-9b96552b5e33","","1708","
                <div class=""stimulus-container"">
                    <img src=""images/semantic_sequence/redecorating_a_house_semantic/redecorating_a_house_semantic_7.png"" class=""exp-image"">
                    <div class=""question-area"">
                        <p style=""font-size: 20px; font-weight: bold; margin: 0;"">Is there a person in this image?</p>
                    </div>
                </div>","0","main_experiment_trial","7","redecorating_a_house_semantic","semantic_sequence","","","","",""
"","","","","","html-keyboard-response","136","445040","0.0-136.0","EBAF633044DF451FAC3501003CDB526C","019cf78d-4b34-7cf4-a308-982a4511594e","019cf78c-cfcf-769c-9016-9b96552b5e33","","null","
                <div class=""stimulus-container"">
                    <img src=""images/semantic_sequence/redecorating_a_house_semantic/redecorating_a_house_semantic_8.png"" class=""exp-image"">
                    <div class=""question-area""></div> 
                </div>","null","","","","","","","","",""
"","","","","","html-button-response","137","445538","0.0-137.0","EBAF633044DF451FAC3501003CDB526C","019cf78d-4b34-7cf4-a308-982a4511594e","019cf78c-cfcf-769c-9016-9b96552b5e33","","497","
                <div class=""stimulus-container"">
                    <img src=""images/semantic_sequence/redecorating_a_house_semantic/redecorating_a_house_semantic_8.png"" class=""exp-image"">
                    <div class=""question-area"">
                        <p style=""font-size: 20px; font-weight: bold; margin: 0;"">Is there a person in this image?</p>
                    </div>
                </div>","0","main_experiment_trial","8","redecorating_a_house_semantic","semantic_sequence","","","","",""
"","","","","","html-keyboard-response","138","450549","0.0-138.0","EBAF633044DF451FAC3501003CDB526C","019cf78d-4b34-7cf4-a308-982a4511594e","019cf78c-cfcf-769c-9016-9b96552b5e33","","null","
                <div class=""stimulus-container"">
                    <img src=""images/semantic_sequence/redecorating_a_house_semantic/redecorating_a_house_semantic_9.png"" class=""exp-image"">
                    <div class=""question-area""></div> 
                </div>","null","","","","","","","","",""
"","","","","","html-button-response","139","450950","0.0-139.0","EBAF633044DF451FAC3501003CDB526C","019cf78d-4b34-7cf4-a308-982a4511594e","019cf78c-cfcf-769c-9016-9b96552b5e33","","401","
                <div class=""stimulus-container"">
                    <img src=""images/semantic_sequence/redecorating_a_house_semantic/redecorating_a_house_semantic_9.png"" class=""exp-image"">
                    <div class=""question-area"">
                        <p style=""font-size: 20px; font-weight: bold; margin: 0;"">Is there a person in this image?</p>
                    </div>
                </div>","0","main_experiment_trial","9","redecorating_a_house_semantic","semantic_sequence","","","","",""
"","","","","","html-keyboard-response","140","455956","0.0-140.0","EBAF633044DF451FAC3501003CDB526C","019cf78d-4b34-7cf4-a308-982a4511594e","019cf78c-cfcf-769c-9016-9b96552b5e33","","null","
                <div class=""stimulus-container"">
                    <img src=""images/semantic_sequence/redecorating_a_house_semantic/redecorating_a_house_semantic_ten.png"" class=""exp-image"">
                    <div class=""question-area""></div> 
                </div>","null","","","","","","","","",""
"","","","","","html-button-response","141","456940","0.0-141.0","EBAF633044DF451FAC3501003CDB526C","019cf78d-4b34-7cf4-a308-982a4511594e","019cf78c-cfcf-769c-9016-9b96552b5e33","","984","
                <div class=""stimulus-container"">
                    <img src=""images/semantic_sequence/redecorating_a_house_semantic/redecorating_a_house_semantic_ten.png"" class=""exp-image"">
                    <div class=""question-area"">
                        <p style=""font-size: 20px; font-weight: bold; margin: 0;"">Is there a person in this image?</p>
                    </div>
                </div>","0","main_experiment_trial","ten","redecorating_a_house_semantic","semantic_sequence","","","","",""
"","","","","","html-keyboard-response","142","457948","0.0-142.0","EBAF633044DF451FAC3501003CDB526C","019cf78d-4b34-7cf4-a308-982a4511594e","019cf78c-cfcf-769c-9016-9b96552b5e33","","null","<div style=""background-color: white; width: 100vw; height: 100vh;""></div>","null","","","","","","","","",""
"","","","","","html-keyboard-response","143","462953","0.0-143.0","EBAF633044DF451FAC3501003CDB526C","019cf78d-4b34-7cf4-a308-982a4511594e","019cf78c-cfcf-769c-9016-9b96552b5e33","","null","
                <div class=""stimulus-container"">
                    <img src=""images/semantic_sequence/visiting_cities_semantic/visiting_cities_semantic_1.png"" class=""exp-image"">
                    <div class=""question-area""></div> 
                </div>","null","","","","","","","","",""
"","","","","","html-button-response","144","464130","0.0-144.0","EBAF633044DF451FAC3501003CDB526C","019cf78d-4b34-7cf4-a308-982a4511594e","019cf78c-cfcf-769c-9016-9b96552b5e33","","1177","
                <div class=""stimulus-container"">
                    <img src=""images/semantic_sequence/visiting_cities_semantic/visiting_cities_semantic_1.png"" class=""exp-image"">
                    <div class=""question-area"">
                        <p style=""font-size: 20px; font-weight: bold; margin: 0;"">Is there a person in this image?</p>
                    </div>
                </div>","1","main_experiment_trial","1","visiting_cities_semantic","semantic_sequence","","","","",""
"","","","","","html-keyboard-response","145","469143","0.0-145.0","EBAF633044DF451FAC3501003CDB526C","019cf78d-4b34-7cf4-a308-982a4511594e","019cf78c-cfcf-769c-9016-9b96552b5e33","","null","
                <div class=""stimulus-container"">
                    <img src=""images/semantic_sequence/visiting_cities_semantic/visiting_cities_semantic_2.png"" class=""exp-image"">
                    <div class=""question-area""></div> 
                </div>","null","","","","","","","","",""
"","","","","","html-button-response","146","470608","0.0-146.0","EBAF633044DF451FAC3501003CDB526C","019cf78d-4b34-7cf4-a308-982a4511594e","019cf78c-cfcf-769c-9016-9b96552b5e33","","1465","
                <div class=""stimulus-container"">
                    <img src=""images/semantic_sequence/visiting_cities_semantic/visiting_cities_semantic_2.png"" class=""exp-image"">
                    <div class=""question-area"">
                        <p style=""font-size: 20px; font-weight: bold; margin: 0;"">Is there a person in this image?</p>
                    </div>
                </div>","1","main_experiment_trial","2","visiting_cities_semantic","semantic_sequence","","","","",""
"","","","","","html-keyboard-response","147","475616","0.0-147.0","EBAF633044DF451FAC3501003CDB526C","019cf78d-4b34-7cf4-a308-982a4511594e","019cf78c-cfcf-769c-9016-9b96552b5e33","","null","
                <div class=""stimulus-container"">
                    <img src=""images/semantic_sequence/visiting_cities_semantic/visiting_cities_semantic_3.png"" class=""exp-image"">
                    <div class=""question-area""></div> 
                </div>","null","","","","","","","","",""
"","","","","","html-button-response","148","475990","0.0-148.0","EBAF633044DF451FAC3501003CDB526C","019cf78d-4b34-7cf4-a308-982a4511594e","019cf78c-cfcf-769c-9016-9b96552b5e33","","373","
                <div class=""stimulus-container"">
                    <img src=""images/semantic_sequence/visiting_cities_semantic/visiting_cities_semantic_3.png"" class=""exp-image"">
                    <div class=""question-area"">
                        <p style=""font-size: 20px; font-weight: bold; margin: 0;"">Is there a person in this image?</p>
                    </div>
                </div>","1","main_experiment_trial","3","visiting_cities_semantic","semantic_sequence","","","","",""
"","","","","","html-keyboard-response","149","480998","0.0-149.0","EBAF633044DF451FAC3501003CDB526C","019cf78d-4b34-7cf4-a308-982a4511594e","019cf78c-cfcf-769c-9016-9b96552b5e33","","null","
                <div class=""stimulus-container"">
                    <img src=""images/semantic_sequence/visiting_cities_semantic/visiting_cities_semantic_4.png"" class=""exp-image"">
                    <div class=""question-area""></div> 
                </div>","null","","","","","","","","",""
"","","","","","html-button-response","150","481546","0.0-150.0","EBAF633044DF451FAC3501003CDB526C","019cf78d-4b34-7cf4-a308-982a4511594e","019cf78c-cfcf-769c-9016-9b96552b5e33","","548","
                <div class=""stimulus-container"">
                    <img src=""images/semantic_sequence/visiting_cities_semantic/visiting_cities_semantic_4.png"" class=""exp-image"">
                    <div class=""question-area"">
                        <p style=""font-size: 20px; font-weight: bold; margin: 0;"">Is there a person in this image?</p>
                    </div>
                </div>","1","main_experiment_trial","4","visiting_cities_semantic","semantic_sequence","","","","",""
"","","","","","html-keyboard-response","151","486551","0.0-151.0","EBAF633044DF451FAC3501003CDB526C","019cf78d-4b34-7cf4-a308-982a4511594e","019cf78c-cfcf-769c-9016-9b96552b5e33","","null","
                <div class=""stimulus-container"">
                    <img src=""images/semantic_sequence/visiting_cities_semantic/visiting_cities_semantic_5.png"" class=""exp-image"">
                    <div class=""question-area""></div> 
                </div>","null","","","","","","","","",""
"","","","","","html-button-response","152","487468","0.0-152.0","EBAF633044DF451FAC3501003CDB526C","019cf78d-4b34-7cf4-a308-982a4511594e","019cf78c-cfcf-769c-9016-9b96552b5e33","","916","
                <div class=""stimulus-container"">
                    <img src=""images/semantic_sequence/visiting_cities_semantic/visiting_cities_semantic_5.png"" class=""exp-image"">
                    <div class=""question-area"">
                        <p style=""font-size: 20px; font-weight: bold; margin: 0;"">Is there a person in this image?</p>
                    </div>
                </div>","1","main_experiment_trial","5","visiting_cities_semantic","semantic_sequence","","","","",""
"","","","","","html-keyboard-response","153","492470","0.0-153.0","EBAF633044DF451FAC3501003CDB526C","019cf78d-4b34-7cf4-a308-982a4511594e","019cf78c-cfcf-769c-9016-9b96552b5e33","","null","
                <div class=""stimulus-container"">
                    <img src=""images/semantic_sequence/visiting_cities_semantic/visiting_cities_semantic_6.png"" class=""exp-image"">
                    <div class=""question-area""></div> 
                </div>","null","","","","","","","","",""
"","","","","","html-button-response","154","492866","0.0-154.0","EBAF633044DF451FAC3501003CDB526C","019cf78d-4b34-7cf4-a308-982a4511594e","019cf78c-cfcf-769c-9016-9b96552b5e33","","396","
                <div class=""stimulus-container"">
                    <img src=""images/semantic_sequence/visiting_cities_semantic/visiting_cities_semantic_6.png"" class=""exp-image"">
                    <div class=""question-area"">
                        <p style=""font-size: 20px; font-weight: bold; margin: 0;"">Is there a person in this image?</p>
                    </div>
                </div>","1","main_experiment_trial","6","visiting_cities_semantic","semantic_sequence","","","","",""
"","","","","","html-keyboard-response","155","497873","0.0-155.0","EBAF633044DF451FAC3501003CDB526C","019cf78d-4b34-7cf4-a308-982a4511594e","019cf78c-cfcf-769c-9016-9b96552b5e33","","null","
                <div class=""stimulus-container"">
                    <img src=""images/semantic_sequence/visiting_cities_semantic/visiting_cities_semantic_7.png"" class=""exp-image"">
                    <div class=""question-area""></div> 
                </div>","null","","","","","","","","",""
"","","","","","html-button-response","156","498436","0.0-156.0","EBAF633044DF451FAC3501003CDB526C","019cf78d-4b34-7cf4-a308-982a4511594e","019cf78c-cfcf-769c-9016-9b96552b5e33","","562","
                <div class=""stimulus-container"">
                    <img src=""images/semantic_sequence/visiting_cities_semantic/visiting_cities_semantic_7.png"" class=""exp-image"">
                    <div class=""question-area"">
                        <p style=""font-size: 20px; font-weight: bold; margin: 0;"">Is there a person in this image?</p>
                    </div>
                </div>","0","main_experiment_trial","7","visiting_cities_semantic","semantic_sequence","","","","",""
"","","","","","html-keyboard-response","157","503452","0.0-157.0","EBAF633044DF451FAC3501003CDB526C","019cf78d-4b34-7cf4-a308-982a4511594e","019cf78c-cfcf-769c-9016-9b96552b5e33","","null","
                <div class=""stimulus-container"">
                    <img src=""images/semantic_sequence/visiting_cities_semantic/visiting_cities_semantic_8.png"" class=""exp-image"">
                    <div class=""question-area""></div> 
                </div>","null","","","","","","","","",""
"","","","","","html-button-response","158","504352","0.0-158.0","EBAF633044DF451FAC3501003CDB526C","019cf78d-4b34-7cf4-a308-982a4511594e","019cf78c-cfcf-769c-9016-9b96552b5e33","","900","
                <div class=""stimulus-container"">
                    <img src=""images/semantic_sequence/visiting_cities_semantic/visiting_cities_semantic_8.png"" class=""exp-image"">
                    <div class=""question-area"">
                        <p style=""font-size: 20px; font-weight: bold; margin: 0;"">Is there a person in this image?</p>
                    </div>
                </div>","1","main_experiment_trial","8","visiting_cities_semantic","semantic_sequence","","","","",""
"","","","","","html-keyboard-response","159","509360","0.0-159.0","EBAF633044DF451FAC3501003CDB526C","019cf78d-4b34-7cf4-a308-982a4511594e","019cf78c-cfcf-769c-9016-9b96552b5e33","","null","
                <div class=""stimulus-container"">
                    <img src=""images/semantic_sequence/visiting_cities_semantic/visiting_cities_semantic_9.png"" class=""exp-image"">
                    <div class=""question-area""></div> 
                </div>","null","","","","","","","","",""
"","","","","","html-button-response","160","510043","0.0-160.0","EBAF633044DF451FAC3501003CDB526C","019cf78d-4b34-7cf4-a308-982a4511594e","019cf78c-cfcf-769c-9016-9b96552b5e33","","682","
                <div class=""stimulus-container"">
                    <img src=""images/semantic_sequence/visiting_cities_semantic/visiting_cities_semantic_9.png"" class=""exp-image"">
                    <div class=""question-area"">
                        <p style=""font-size: 20px; font-weight: bold; margin: 0;"">Is there a person in this image?</p>
                    </div>
                </div>","1","main_experiment_trial","9","visiting_cities_semantic","semantic_sequence","","","","",""
"","","","","","html-keyboard-response","161","515057","0.0-161.0","EBAF633044DF451FAC3501003CDB526C","019cf78d-4b34-7cf4-a308-982a4511594e","019cf78c-cfcf-769c-9016-9b96552b5e33","","null","
                <div class=""stimulus-container"">
                    <img src=""images/semantic_sequence/visiting_cities_semantic/visiting_cities_semantic_ten.png"" class=""exp-image"">
                    <div class=""question-area""></div> 
                </div>","null","","","","","","","","",""
"","","","","","html-button-response","162","515538","0.0-162.0","EBAF633044DF451FAC3501003CDB526C","019cf78d-4b34-7cf4-a308-982a4511594e","019cf78c-cfcf-769c-9016-9b96552b5e33","","481","
                <div class=""stimulus-container"">
                    <img src=""images/semantic_sequence/visiting_cities_semantic/visiting_cities_semantic_ten.png"" class=""exp-image"">
                    <div class=""question-area"">
                        <p style=""font-size: 20px; font-weight: bold; margin: 0;"">Is there a person in this image?</p>
                    </div>
                </div>","1","main_experiment_trial","ten","visiting_cities_semantic","semantic_sequence","","","","",""
"","","","","","html-keyboard-response","163","516553","0.0-163.0","EBAF633044DF451FAC3501003CDB526C","019cf78d-4b34-7cf4-a308-982a4511594e","019cf78c-cfcf-769c-9016-9b96552b5e33","","null","<div style=""background-color: white; width: 100vw; height: 100vh;""></div>","null","","","","","","","","",""
"","","","","","html-keyboard-response","164","521566","0.0-164.0","EBAF633044DF451FAC3501003CDB526C","019cf78d-4b34-7cf4-a308-982a4511594e","019cf78c-cfcf-769c-9016-9b96552b5e33","","null","
                <div class=""stimulus-container"">
                    <img src=""images/semantic_sequence/exploring_nature_semantic/exploring_nature_semantic_1.png"" class=""exp-image"">
                    <div class=""question-area""></div> 
                </div>","null","","","","","","","","",""
"","","","","","html-button-response","165","521978","0.0-165.0","EBAF633044DF451FAC3501003CDB526C","019cf78d-4b34-7cf4-a308-982a4511594e","019cf78c-cfcf-769c-9016-9b96552b5e33","","411","
                <div class=""stimulus-container"">
                    <img src=""images/semantic_sequence/exploring_nature_semantic/exploring_nature_semantic_1.png"" class=""exp-image"">
                    <div class=""question-area"">
                        <p style=""font-size: 20px; font-weight: bold; margin: 0;"">Is there a person in this image?</p>
                    </div>
                </div>","0","main_experiment_trial","1","exploring_nature_semantic","semantic_sequence","","","","",""
"","","","","","html-keyboard-response","166","526986","0.0-166.0","EBAF633044DF451FAC3501003CDB526C","019cf78d-4b34-7cf4-a308-982a4511594e","019cf78c-cfcf-769c-9016-9b96552b5e33","","null","
                <div class=""stimulus-container"">
                    <img src=""images/semantic_sequence/exploring_nature_semantic/exploring_nature_semantic_2.png"" class=""exp-image"">
                    <div class=""question-area""></div> 
                </div>","null","","","","","","","","",""
"","","","","","html-button-response","167","527352","0.0-167.0","EBAF633044DF451FAC3501003CDB526C","019cf78d-4b34-7cf4-a308-982a4511594e","019cf78c-cfcf-769c-9016-9b96552b5e33","","365","
                <div class=""stimulus-container"">
                    <img src=""images/semantic_sequence/exploring_nature_semantic/exploring_nature_semantic_2.png"" class=""exp-image"">
                    <div class=""question-area"">
                        <p style=""font-size: 20px; font-weight: bold; margin: 0;"">Is there a person in this image?</p>
                    </div>
                </div>","0","main_experiment_trial","2","exploring_nature_semantic","semantic_sequence","","","","",""
"","","","","","html-keyboard-response","168","532358","0.0-168.0","EBAF633044DF451FAC3501003CDB526C","019cf78d-4b34-7cf4-a308-982a4511594e","019cf78c-cfcf-769c-9016-9b96552b5e33","","null","
                <div class=""stimulus-container"">
                    <img src=""images/semantic_sequence/exploring_nature_semantic/exploring_nature_semantic_3.png"" class=""exp-image"">
                    <div class=""question-area""></div> 
                </div>","null","","","","","","","","",""
"","","","","","html-button-response","169","533598","0.0-169.0","EBAF633044DF451FAC3501003CDB526C","019cf78d-4b34-7cf4-a308-982a4511594e","019cf78c-cfcf-769c-9016-9b96552b5e33","","1239","
                <div class=""stimulus-container"">
                    <img src=""images/semantic_sequence/exploring_nature_semantic/exploring_nature_semantic_3.png"" class=""exp-image"">
                    <div class=""question-area"">
                        <p style=""font-size: 20px; font-weight: bold; margin: 0;"">Is there a person in this image?</p>
                    </div>
                </div>","0","main_experiment_trial","3","exploring_nature_semantic","semantic_sequence","","","","",""
"","","","","","html-keyboard-response","170","538607","0.0-170.0","EBAF633044DF451FAC3501003CDB526C","019cf78d-4b34-7cf4-a308-982a4511594e","019cf78c-cfcf-769c-9016-9b96552b5e33","","null","
                <div class=""stimulus-container"">
                    <img src=""images/semantic_sequence/exploring_nature_semantic/exploring_nature_semantic_4.png"" class=""exp-image"">
                    <div class=""question-area""></div> 
                </div>","null","","","","","","","","",""
"","","","","","html-button-response","171","539077","0.0-171.0","EBAF633044DF451FAC3501003CDB526C","019cf78d-4b34-7cf4-a308-982a4511594e","019cf78c-cfcf-769c-9016-9b96552b5e33","","470","
                <div class=""stimulus-container"">
                    <img src=""images/semantic_sequence/exploring_nature_semantic/exploring_nature_semantic_4.png"" class=""exp-image"">
                    <div class=""question-area"">
                        <p style=""font-size: 20px; font-weight: bold; margin: 0;"">Is there a person in this image?</p>
                    </div>
                </div>","0","main_experiment_trial","4","exploring_nature_semantic","semantic_sequence","","","","",""
"","","","","","html-keyboard-response","172","544080","0.0-172.0","EBAF633044DF451FAC3501003CDB526C","019cf78d-4b34-7cf4-a308-982a4511594e","019cf78c-cfcf-769c-9016-9b96552b5e33","","null","
                <div class=""stimulus-container"">
                    <img src=""images/semantic_sequence/exploring_nature_semantic/exploring_nature_semantic_5.png"" class=""exp-image"">
                    <div class=""question-area""></div> 
                </div>","null","","","","","","","","",""
"","","","","","html-button-response","173","544792","0.0-173.0","EBAF633044DF451FAC3501003CDB526C","019cf78d-4b34-7cf4-a308-982a4511594e","019cf78c-cfcf-769c-9016-9b96552b5e33","","711","
                <div class=""stimulus-container"">
                    <img src=""images/semantic_sequence/exploring_nature_semantic/exploring_nature_semantic_5.png"" class=""exp-image"">
                    <div class=""question-area"">
                        <p style=""font-size: 20px; font-weight: bold; margin: 0;"">Is there a person in this image?</p>
                    </div>
                </div>","0","main_experiment_trial","5","exploring_nature_semantic","semantic_sequence","","","","",""
"","","","","","html-keyboard-response","174","549803","0.0-174.0","EBAF633044DF451FAC3501003CDB526C","019cf78d-4b34-7cf4-a308-982a4511594e","019cf78c-cfcf-769c-9016-9b96552b5e33","","null","
                <div class=""stimulus-container"">
                    <img src=""images/semantic_sequence/exploring_nature_semantic/exploring_nature_semantic_6.png"" class=""exp-image"">
                    <div class=""question-area""></div> 
                </div>","null","","","","","","","","",""
"","","","","","html-button-response","175","551418","0.0-175.0","EBAF633044DF451FAC3501003CDB526C","019cf78d-4b34-7cf4-a308-982a4511594e","019cf78c-cfcf-769c-9016-9b96552b5e33","","1614","
                <div class=""stimulus-container"">
                    <img src=""images/semantic_sequence/exploring_nature_semantic/exploring_nature_semantic_6.png"" class=""exp-image"">
                    <div class=""question-area"">
                        <p style=""font-size: 20px; font-weight: bold; margin: 0;"">Is there a person in this image?</p>
                    </div>
                </div>","0","main_experiment_trial","6","exploring_nature_semantic","semantic_sequence","","","","",""
"","","","","","html-keyboard-response","176","556428","0.0-176.0","EBAF633044DF451FAC3501003CDB526C","019cf78d-4b34-7cf4-a308-982a4511594e","019cf78c-cfcf-769c-9016-9b96552b5e33","","null","
                <div class=""stimulus-container"">
                    <img src=""images/semantic_sequence/exploring_nature_semantic/exploring_nature_semantic_7.png"" class=""exp-image"">
                    <div class=""question-area""></div> 
                </div>","null","","","","","","","","",""
"","","","","","html-button-response","177","557011","0.0-177.0","EBAF633044DF451FAC3501003CDB526C","019cf78d-4b34-7cf4-a308-982a4511594e","019cf78c-cfcf-769c-9016-9b96552b5e33","","583","
                <div class=""stimulus-container"">
                    <img src=""images/semantic_sequence/exploring_nature_semantic/exploring_nature_semantic_7.png"" class=""exp-image"">
                    <div class=""question-area"">
                        <p style=""font-size: 20px; font-weight: bold; margin: 0;"">Is there a person in this image?</p>
                    </div>
                </div>","0","main_experiment_trial","7","exploring_nature_semantic","semantic_sequence","","","","",""
"","","","","","html-keyboard-response","178","562026","0.0-178.0","EBAF633044DF451FAC3501003CDB526C","019cf78d-4b34-7cf4-a308-982a4511594e","019cf78c-cfcf-769c-9016-9b96552b5e33","","null","
                <div class=""stimulus-container"">
