"success","timeout","failed_images","failed_audio","failed_video","trial_type","trial_index","time_elapsed","internal_node_id","subject_id","study_id","session_id","view_history","rt","stimulus","response","task","image_index","folder","sequence_type","presentation_order","valuable_image_index","reward_type","correct_choice","chosen_image_index","target_X"
"true","false","[]","[]","[]","preload","0","12398","0.0-0.0","4BF1E35C2E8249119E561F2AC9E8EF0B","019cf9c4-5ab6-7a40-8623-b2b742261725","019cf99d-e445-78ae-88d0-91fe39b758eb","","","","","","","","","","","","","",""
"","","","","","instructions","1","63991","0.0-1.0","4BF1E35C2E8249119E561F2AC9E8EF0B","019cf9c4-5ab6-7a40-8623-b2b742261725","019cf99d-e445-78ae-88d0-91fe39b758eb","[{""page_index"":0,""viewing_time"":51591}]","51592","","","","","","","","","","","",""
"","","","","","instructions","2","74461","0.0-2.0","4BF1E35C2E8249119E561F2AC9E8EF0B","019cf9c4-5ab6-7a40-8623-b2b742261725","019cf99d-e445-78ae-88d0-91fe39b758eb","[{""page_index"":0,""viewing_time"":10469}]","10469","","","","","","","","","","","",""
"true","","","","","fullscreen","3","76804","0.0-3.0","4BF1E35C2E8249119E561F2AC9E8EF0B","019cf9c4-5ab6-7a40-8623-b2b742261725","019cf99d-e445-78ae-88d0-91fe39b758eb","","1325","","","","","","","","","","","",""
"","","","","","instructions","4","86235","0.0-4.0","4BF1E35C2E8249119E561F2AC9E8EF0B","019cf9c4-5ab6-7a40-8623-b2b742261725","019cf99d-e445-78ae-88d0-91fe39b758eb","[{""page_index"":0,""viewing_time"":9430}]","9430","","","","","","","","","","","",""
"","","","","","instructions","5","99815","0.0-5.0","4BF1E35C2E8249119E561F2AC9E8EF0B","019cf9c4-5ab6-7a40-8623-b2b742261725","019cf99d-e445-78ae-88d0-91fe39b758eb","[{""page_index"":0,""viewing_time"":13580}]","13580","","","","","","","","","","","",""
"","","","","","html-keyboard-response","6","103817","0.0-6.0","4BF1E35C2E8249119E561F2AC9E8EF0B","019cf9c4-5ab6-7a40-8623-b2b742261725","019cf99d-e445-78ae-88d0-91fe39b758eb","","null","
                <div class=""stimulus-container"">
                    <img src=""images/instructions/movie_1.png"" class=""exp-image"">
                    <div class=""question-area""></div> 
                </div>","null","","","","","","","","","",""
"","","","","","html-button-response","7","106140","0.0-7.0","4BF1E35C2E8249119E561F2AC9E8EF0B","019cf9c4-5ab6-7a40-8623-b2b742261725","019cf99d-e445-78ae-88d0-91fe39b758eb","","2322","
                <div class=""stimulus-container"">
                    <img src=""images/instructions/movie_1.png"" class=""exp-image"">
                    <div class=""question-area"">
                        <p style=""font-size: 20px; font-weight: bold; margin: 0;"">Was there a person in this image?</p>
                    </div>
                </div>","0","example_question","1","","","","","","","",""
"","","","","","html-keyboard-response","8","110157","0.0-8.0","4BF1E35C2E8249119E561F2AC9E8EF0B","019cf9c4-5ab6-7a40-8623-b2b742261725","019cf99d-e445-78ae-88d0-91fe39b758eb","","null","
                <div class=""stimulus-container"">
                    <img src=""images/instructions/movie_2.png"" class=""exp-image"">
                    <div class=""question-area""></div> 
                </div>","null","","","","","","","","","",""
"","","","","","html-button-response","9","111267","0.0-9.0","4BF1E35C2E8249119E561F2AC9E8EF0B","019cf9c4-5ab6-7a40-8623-b2b742261725","019cf99d-e445-78ae-88d0-91fe39b758eb","","1109","
                <div class=""stimulus-container"">
                    <img src=""images/instructions/movie_2.png"" class=""exp-image"">
                    <div class=""question-area"">
                        <p style=""font-size: 20px; font-weight: bold; margin: 0;"">Was there a person in this image?</p>
                    </div>
                </div>","0","example_question","2","","","","","","","",""
"","","","","","html-keyboard-response","10","115283","0.0-10.0","4BF1E35C2E8249119E561F2AC9E8EF0B","019cf9c4-5ab6-7a40-8623-b2b742261725","019cf99d-e445-78ae-88d0-91fe39b758eb","","null","
                <div class=""stimulus-container"">
                    <img src=""images/instructions/movie_3.png"" class=""exp-image"">
                    <div class=""question-area""></div> 
                </div>","null","","","","","","","","","",""
"","","","","","html-button-response","11","115970","0.0-11.0","4BF1E35C2E8249119E561F2AC9E8EF0B","019cf9c4-5ab6-7a40-8623-b2b742261725","019cf99d-e445-78ae-88d0-91fe39b758eb","","687","
                <div class=""stimulus-container"">
                    <img src=""images/instructions/movie_3.png"" class=""exp-image"">
                    <div class=""question-area"">
                        <p style=""font-size: 20px; font-weight: bold; margin: 0;"">Was there a person in this image?</p>
                    </div>
                </div>","0","example_question","3","","","","","","","",""
"","","","","","html-keyboard-response","12","119980","0.0-12.0","4BF1E35C2E8249119E561F2AC9E8EF0B","019cf9c4-5ab6-7a40-8623-b2b742261725","019cf99d-e445-78ae-88d0-91fe39b758eb","","null","
                <div class=""stimulus-container"">
                    <img src=""images/instructions/movie_4.png"" class=""exp-image"">
                    <div class=""question-area""></div> 
                </div>","null","","","","","","","","","",""
"","","","","","html-button-response","13","120650","0.0-13.0","4BF1E35C2E8249119E561F2AC9E8EF0B","019cf9c4-5ab6-7a40-8623-b2b742261725","019cf99d-e445-78ae-88d0-91fe39b758eb","","669","
                <div class=""stimulus-container"">
                    <img src=""images/instructions/movie_4.png"" class=""exp-image"">
                    <div class=""question-area"">
                        <p style=""font-size: 20px; font-weight: bold; margin: 0;"">Was there a person in this image?</p>
                    </div>
                </div>","0","example_question","4","","","","","","","",""
"","","","","","instructions","14","121829","0.0-14.0","4BF1E35C2E8249119E561F2AC9E8EF0B","019cf9c4-5ab6-7a40-8623-b2b742261725","019cf99d-e445-78ae-88d0-91fe39b758eb","[{""page_index"":0,""viewing_time"":1179}]","1179","","","","","","","","","","","",""
"","","","","","instructions","15","128105","0.0-15.0","4BF1E35C2E8249119E561F2AC9E8EF0B","019cf9c4-5ab6-7a40-8623-b2b742261725","019cf99d-e445-78ae-88d0-91fe39b758eb","[{""page_index"":0,""viewing_time"":6275}]","6275","","","","","","","","","","","",""
"","","","","","html-keyboard-response","16","133114","0.0-16.0","4BF1E35C2E8249119E561F2AC9E8EF0B","019cf9c4-5ab6-7a40-8623-b2b742261725","019cf99d-e445-78ae-88d0-91fe39b758eb","","null","<div style=""background-color: white; width: 100vw; height: 100vh;""></div>","null","","","","","","","","","",""
"","","","","","html-keyboard-response","17","134121","0.0-17.0","4BF1E35C2E8249119E561F2AC9E8EF0B","019cf9c4-5ab6-7a40-8623-b2b742261725","019cf99d-e445-78ae-88d0-91fe39b758eb","","null","
                <div class=""stimulus-container"">
                    <img src=""images/causal_sequence/dog_causal/dog_causal_2.png"" class=""exp-image"">
                    <div class=""question-area""></div> 
                </div>","null","","","","","","","","","",""
"","","","","","html-button-response","18","137125","0.0-18.0","4BF1E35C2E8249119E561F2AC9E8EF0B","019cf9c4-5ab6-7a40-8623-b2b742261725","019cf99d-e445-78ae-88d0-91fe39b758eb","","null","
                <div class=""stimulus-container"">
                    <img src=""images/causal_sequence/dog_causal/dog_causal_2.png"" class=""exp-image"">
                    <div class=""question-area"">
                        <p style=""font-size: 20px; font-weight: bold; margin: 0;"">Is there a person in this image?</p>
                    </div>
                </div>","null","main_experiment_trial","2","dog_causal","causal_sequence","randomized","","","","",""
"","","","","","html-keyboard-response","19","138139","0.0-19.0","4BF1E35C2E8249119E561F2AC9E8EF0B","019cf9c4-5ab6-7a40-8623-b2b742261725","019cf99d-e445-78ae-88d0-91fe39b758eb","","null","
                <div class=""stimulus-container"">
                    <img src=""images/causal_sequence/dog_causal/dog_causal_5.png"" class=""exp-image"">
                    <div class=""question-area""></div> 
                </div>","null","","","","","","","","","",""
"","","","","","html-button-response","20","138877","0.0-20.0","4BF1E35C2E8249119E561F2AC9E8EF0B","019cf9c4-5ab6-7a40-8623-b2b742261725","019cf99d-e445-78ae-88d0-91fe39b758eb","","737","
                <div class=""stimulus-container"">
                    <img src=""images/causal_sequence/dog_causal/dog_causal_5.png"" class=""exp-image"">
                    <div class=""question-area"">
                        <p style=""font-size: 20px; font-weight: bold; margin: 0;"">Is there a person in this image?</p>
                    </div>
                </div>","0","main_experiment_trial","5","dog_causal","causal_sequence","randomized","","","","",""
"","","","","","html-keyboard-response","21","139884","0.0-21.0","4BF1E35C2E8249119E561F2AC9E8EF0B","019cf9c4-5ab6-7a40-8623-b2b742261725","019cf99d-e445-78ae-88d0-91fe39b758eb","","null","
                <div class=""stimulus-container"">
                    <img src=""images/causal_sequence/dog_causal/dog_causal_6.png"" class=""exp-image"">
                    <div class=""question-area""></div> 
                </div>","null","","","","","","","","","",""
"","","","","","html-button-response","22","140703","0.0-22.0","4BF1E35C2E8249119E561F2AC9E8EF0B","019cf9c4-5ab6-7a40-8623-b2b742261725","019cf99d-e445-78ae-88d0-91fe39b758eb","","818","
                <div class=""stimulus-container"">
                    <img src=""images/causal_sequence/dog_causal/dog_causal_6.png"" class=""exp-image"">
                    <div class=""question-area"">
                        <p style=""font-size: 20px; font-weight: bold; margin: 0;"">Is there a person in this image?</p>
                    </div>
                </div>","0","main_experiment_trial","6","dog_causal","causal_sequence","randomized","","","","",""
"","","","","","html-keyboard-response","23","141716","0.0-23.0","4BF1E35C2E8249119E561F2AC9E8EF0B","019cf9c4-5ab6-7a40-8623-b2b742261725","019cf99d-e445-78ae-88d0-91fe39b758eb","","null","
                <div class=""stimulus-container"">
                    <img src=""images/causal_sequence/dog_causal/dog_causal_9.png"" class=""exp-image"">
                    <div class=""question-area""></div> 
                </div>","null","","","","","","","","","",""
"","","","","","html-button-response","24","142452","0.0-24.0","4BF1E35C2E8249119E561F2AC9E8EF0B","019cf9c4-5ab6-7a40-8623-b2b742261725","019cf99d-e445-78ae-88d0-91fe39b758eb","","735","
                <div class=""stimulus-container"">
                    <img src=""images/causal_sequence/dog_causal/dog_causal_9.png"" class=""exp-image"">
                    <div class=""question-area"">
                        <p style=""font-size: 20px; font-weight: bold; margin: 0;"">Is there a person in this image?</p>
                    </div>
                </div>","0","main_experiment_trial","9","dog_causal","causal_sequence","randomized","","","","",""
"","","","","","html-keyboard-response","25","143468","0.0-25.0","4BF1E35C2E8249119E561F2AC9E8EF0B","019cf9c4-5ab6-7a40-8623-b2b742261725","019cf99d-e445-78ae-88d0-91fe39b758eb","","null","
                <div class=""stimulus-container"">
                    <img src=""images/causal_sequence/dog_causal/dog_causal_1.png"" class=""exp-image"">
                    <div class=""question-area""></div> 
                </div>","null","","","","","","","","","",""
"","","","","","html-button-response","26","144558","0.0-26.0","4BF1E35C2E8249119E561F2AC9E8EF0B","019cf9c4-5ab6-7a40-8623-b2b742261725","019cf99d-e445-78ae-88d0-91fe39b758eb","","1089","
                <div class=""stimulus-container"">
                    <img src=""images/causal_sequence/dog_causal/dog_causal_1.png"" class=""exp-image"">
                    <div class=""question-area"">
                        <p style=""font-size: 20px; font-weight: bold; margin: 0;"">Is there a person in this image?</p>
                    </div>
                </div>","0","main_experiment_trial","1","dog_causal","causal_sequence","randomized","","","","",""
"","","","","","html-keyboard-response","27","145567","0.0-27.0","4BF1E35C2E8249119E561F2AC9E8EF0B","019cf9c4-5ab6-7a40-8623-b2b742261725","019cf99d-e445-78ae-88d0-91fe39b758eb","","null","
                <div class=""stimulus-container"">
                    <img src=""images/causal_sequence/dog_causal/dog_causal_3.png"" class=""exp-image"">
                    <div class=""question-area""></div> 
                </div>","null","","","","","","","","","",""
"","","","","","html-button-response","28","146173","0.0-28.0","4BF1E35C2E8249119E561F2AC9E8EF0B","019cf9c4-5ab6-7a40-8623-b2b742261725","019cf99d-e445-78ae-88d0-91fe39b758eb","","605","
                <div class=""stimulus-container"">
                    <img src=""images/causal_sequence/dog_causal/dog_causal_3.png"" class=""exp-image"">
                    <div class=""question-area"">
                        <p style=""font-size: 20px; font-weight: bold; margin: 0;"">Is there a person in this image?</p>
                    </div>
                </div>","0","main_experiment_trial","3","dog_causal","causal_sequence","randomized","","","","",""
"","","","","","html-keyboard-response","29","147182","0.0-29.0","4BF1E35C2E8249119E561F2AC9E8EF0B","019cf9c4-5ab6-7a40-8623-b2b742261725","019cf99d-e445-78ae-88d0-91fe39b758eb","","null","
                <div class=""stimulus-container"">
                    <img src=""images/causal_sequence/dog_causal/dog_causal_8.png"" class=""exp-image"">
                    <div class=""question-area""></div> 
                </div>","null","","","","","","","","","",""
"","","","","","html-button-response","30","147767","0.0-30.0","4BF1E35C2E8249119E561F2AC9E8EF0B","019cf9c4-5ab6-7a40-8623-b2b742261725","019cf99d-e445-78ae-88d0-91fe39b758eb","","584","
                <div class=""stimulus-container"">
                    <img src=""images/causal_sequence/dog_causal/dog_causal_8.png"" class=""exp-image"">
                    <div class=""question-area"">
                        <p style=""font-size: 20px; font-weight: bold; margin: 0;"">Is there a person in this image?</p>
                    </div>
                </div>","0","main_experiment_trial","8","dog_causal","causal_sequence","randomized","","","","",""
"","","","","","html-keyboard-response","31","148771","0.0-31.0","4BF1E35C2E8249119E561F2AC9E8EF0B","019cf9c4-5ab6-7a40-8623-b2b742261725","019cf99d-e445-78ae-88d0-91fe39b758eb","","null","
                <div class=""stimulus-container"">
                    <img src=""images/causal_sequence/dog_causal/dog_causal_4.png"" class=""exp-image"">
                    <div class=""question-area""></div> 
                </div>","null","","","","","","","","","",""
"","","","","","html-button-response","32","149436","0.0-32.0","4BF1E35C2E8249119E561F2AC9E8EF0B","019cf9c4-5ab6-7a40-8623-b2b742261725","019cf99d-e445-78ae-88d0-91fe39b758eb","","664","
                <div class=""stimulus-container"">
                    <img src=""images/causal_sequence/dog_causal/dog_causal_4.png"" class=""exp-image"">
                    <div class=""question-area"">
                        <p style=""font-size: 20px; font-weight: bold; margin: 0;"">Is there a person in this image?</p>
                    </div>
                </div>","0","main_experiment_trial","4","dog_causal","causal_sequence","randomized","","","","",""
"","","","","","html-keyboard-response","33","150452","0.0-33.0","4BF1E35C2E8249119E561F2AC9E8EF0B","019cf9c4-5ab6-7a40-8623-b2b742261725","019cf99d-e445-78ae-88d0-91fe39b758eb","","null","
                <div class=""stimulus-container"">
                    <img src=""images/causal_sequence/dog_causal/dog_causal_7.png"" class=""exp-image"">
                    <div class=""question-area""></div> 
                </div>","null","","","","","","","","","",""
"","","","","","html-button-response","34","151301","0.0-34.0","4BF1E35C2E8249119E561F2AC9E8EF0B","019cf9c4-5ab6-7a40-8623-b2b742261725","019cf99d-e445-78ae-88d0-91fe39b758eb","","848","
                <div class=""stimulus-container"">
                    <img src=""images/causal_sequence/dog_causal/dog_causal_7.png"" class=""exp-image"">
                    <div class=""question-area"">
                        <p style=""font-size: 20px; font-weight: bold; margin: 0;"">Is there a person in this image?</p>
                    </div>
                </div>","0","main_experiment_trial","7","dog_causal","causal_sequence","randomized","","","","",""
"","","","","","html-keyboard-response","35","152314","0.0-35.0","4BF1E35C2E8249119E561F2AC9E8EF0B","019cf9c4-5ab6-7a40-8623-b2b742261725","019cf99d-e445-78ae-88d0-91fe39b758eb","","null","
                <div class=""stimulus-container"">
                    <img src=""images/causal_sequence/dog_causal/dog_causal_ten.png"" class=""exp-image"">
                    <div class=""question-area""></div> 
                </div>","null","","","","","","","","","",""
"","","","","","html-button-response","36","153015","0.0-36.0","4BF1E35C2E8249119E561F2AC9E8EF0B","019cf9c4-5ab6-7a40-8623-b2b742261725","019cf99d-e445-78ae-88d0-91fe39b758eb","","700","
                <div class=""stimulus-container"">
                    <img src=""images/causal_sequence/dog_causal/dog_causal_ten.png"" class=""exp-image"">
                    <div class=""question-area"">
                        <p style=""font-size: 20px; font-weight: bold; margin: 0;"">Is there a person in this image?</p>
                    </div>
                </div>","0","main_experiment_trial","ten","dog_causal","causal_sequence","randomized","","","","",""
"","","","","","html-keyboard-response","37","158028","0.0-37.0","4BF1E35C2E8249119E561F2AC9E8EF0B","019cf9c4-5ab6-7a40-8623-b2b742261725","019cf99d-e445-78ae-88d0-91fe39b758eb","","null","<div style=""background-color: white; width: 100vw; height: 100vh;""></div>","null","","","","","","","","","",""
"","","","","","html-keyboard-response","38","159036","0.0-38.0","4BF1E35C2E8249119E561F2AC9E8EF0B","019cf9c4-5ab6-7a40-8623-b2b742261725","019cf99d-e445-78ae-88d0-91fe39b758eb","","null","
                <div class=""stimulus-container"">
                    <img src=""images/causal_sequence/coin_causal/coin_causal_4.png"" class=""exp-image"">
                    <div class=""question-area""></div> 
                </div>","null","","","","","","","","","",""
"","","","","","html-button-response","39","160071","0.0-39.0","4BF1E35C2E8249119E561F2AC9E8EF0B","019cf9c4-5ab6-7a40-8623-b2b742261725","019cf99d-e445-78ae-88d0-91fe39b758eb","","1034","
                <div class=""stimulus-container"">
                    <img src=""images/causal_sequence/coin_causal/coin_causal_4.png"" class=""exp-image"">
                    <div class=""question-area"">
                        <p style=""font-size: 20px; font-weight: bold; margin: 0;"">Is there a person in this image?</p>
                    </div>
                </div>","0","main_experiment_trial","4","coin_causal","causal_sequence","randomized","","","","",""
"","","","","","html-keyboard-response","40","161083","0.0-40.0","4BF1E35C2E8249119E561F2AC9E8EF0B","019cf9c4-5ab6-7a40-8623-b2b742261725","019cf99d-e445-78ae-88d0-91fe39b758eb","","null","
                <div class=""stimulus-container"">
                    <img src=""images/causal_sequence/coin_causal/coin_causal_9.png"" class=""exp-image"">
                    <div class=""question-area""></div> 
                </div>","null","","","","","","","","","",""
"","","","","","html-button-response","41","161919","0.0-41.0","4BF1E35C2E8249119E561F2AC9E8EF0B","019cf9c4-5ab6-7a40-8623-b2b742261725","019cf99d-e445-78ae-88d0-91fe39b758eb","","835","
                <div class=""stimulus-container"">
                    <img src=""images/causal_sequence/coin_causal/coin_causal_9.png"" class=""exp-image"">
                    <div class=""question-area"">
                        <p style=""font-size: 20px; font-weight: bold; margin: 0;"">Is there a person in this image?</p>
                    </div>
                </div>","0","main_experiment_trial","9","coin_causal","causal_sequence","randomized","","","","",""
"","","","","","html-keyboard-response","42","162926","0.0-42.0","4BF1E35C2E8249119E561F2AC9E8EF0B","019cf9c4-5ab6-7a40-8623-b2b742261725","019cf99d-e445-78ae-88d0-91fe39b758eb","","null","
                <div class=""stimulus-container"">
                    <img src=""images/causal_sequence/coin_causal/coin_causal_ten.png"" class=""exp-image"">
                    <div class=""question-area""></div> 
                </div>","null","","","","","","","","","",""
"","","","","","html-button-response","43","163812","0.0-43.0","4BF1E35C2E8249119E561F2AC9E8EF0B","019cf9c4-5ab6-7a40-8623-b2b742261725","019cf99d-e445-78ae-88d0-91fe39b758eb","","885","
                <div class=""stimulus-container"">
                    <img src=""images/causal_sequence/coin_causal/coin_causal_ten.png"" class=""exp-image"">
                    <div class=""question-area"">
                        <p style=""font-size: 20px; font-weight: bold; margin: 0;"">Is there a person in this image?</p>
                    </div>
                </div>","0","main_experiment_trial","ten","coin_causal","causal_sequence","randomized","","","","",""
"","","","","","html-keyboard-response","44","164819","0.0-44.0","4BF1E35C2E8249119E561F2AC9E8EF0B","019cf9c4-5ab6-7a40-8623-b2b742261725","019cf99d-e445-78ae-88d0-91fe39b758eb","","null","
                <div class=""stimulus-container"">
                    <img src=""images/causal_sequence/coin_causal/coin_causal_2.png"" class=""exp-image"">
                    <div class=""question-area""></div> 
                </div>","null","","","","","","","","","",""
"","","","","","html-button-response","45","165483","0.0-45.0","4BF1E35C2E8249119E561F2AC9E8EF0B","019cf9c4-5ab6-7a40-8623-b2b742261725","019cf99d-e445-78ae-88d0-91fe39b758eb","","663","
                <div class=""stimulus-container"">
                    <img src=""images/causal_sequence/coin_causal/coin_causal_2.png"" class=""exp-image"">
                    <div class=""question-area"">
                        <p style=""font-size: 20px; font-weight: bold; margin: 0;"">Is there a person in this image?</p>
                    </div>
                </div>","0","main_experiment_trial","2","coin_causal","causal_sequence","randomized","","","","",""
"","","","","","html-keyboard-response","46","166501","0.0-46.0","4BF1E35C2E8249119E561F2AC9E8EF0B","019cf9c4-5ab6-7a40-8623-b2b742261725","019cf99d-e445-78ae-88d0-91fe39b758eb","","null","
                <div class=""stimulus-container"">
                    <img src=""images/causal_sequence/coin_causal/coin_causal_7.png"" class=""exp-image"">
                    <div class=""question-area""></div> 
                </div>","null","","","","","","","","","",""
"","","","","","html-button-response","47","167248","0.0-47.0","4BF1E35C2E8249119E561F2AC9E8EF0B","019cf9c4-5ab6-7a40-8623-b2b742261725","019cf99d-e445-78ae-88d0-91fe39b758eb","","746","
                <div class=""stimulus-container"">
                    <img src=""images/causal_sequence/coin_causal/coin_causal_7.png"" class=""exp-image"">
                    <div class=""question-area"">
                        <p style=""font-size: 20px; font-weight: bold; margin: 0;"">Is there a person in this image?</p>
                    </div>
                </div>","1","main_experiment_trial","7","coin_causal","causal_sequence","randomized","","","","",""
"","","","","","html-keyboard-response","48","168258","0.0-48.0","4BF1E35C2E8249119E561F2AC9E8EF0B","019cf9c4-5ab6-7a40-8623-b2b742261725","019cf99d-e445-78ae-88d0-91fe39b758eb","","null","
                <div class=""stimulus-container"">
                    <img src=""images/causal_sequence/coin_causal/coin_causal_1.png"" class=""exp-image"">
                    <div class=""question-area""></div> 
                </div>","null","","","","","","","","","",""
"","","","","","html-button-response","49","168857","0.0-49.0","4BF1E35C2E8249119E561F2AC9E8EF0B","019cf9c4-5ab6-7a40-8623-b2b742261725","019cf99d-e445-78ae-88d0-91fe39b758eb","","598","
                <div class=""stimulus-container"">
                    <img src=""images/causal_sequence/coin_causal/coin_causal_1.png"" class=""exp-image"">
                    <div class=""question-area"">
                        <p style=""font-size: 20px; font-weight: bold; margin: 0;"">Is there a person in this image?</p>
                    </div>
                </div>","0","main_experiment_trial","1","coin_causal","causal_sequence","randomized","","","","",""
"","","","","","html-keyboard-response","50","169860","0.0-50.0","4BF1E35C2E8249119E561F2AC9E8EF0B","019cf9c4-5ab6-7a40-8623-b2b742261725","019cf99d-e445-78ae-88d0-91fe39b758eb","","null","
                <div class=""stimulus-container"">
                    <img src=""images/causal_sequence/coin_causal/coin_causal_8.png"" class=""exp-image"">
                    <div class=""question-area""></div> 
                </div>","null","","","","","","","","","",""
"","","","","","html-button-response","51","170511","0.0-51.0","4BF1E35C2E8249119E561F2AC9E8EF0B","019cf9c4-5ab6-7a40-8623-b2b742261725","019cf99d-e445-78ae-88d0-91fe39b758eb","","650","
                <div class=""stimulus-container"">
                    <img src=""images/causal_sequence/coin_causal/coin_causal_8.png"" class=""exp-image"">
                    <div class=""question-area"">
                        <p style=""font-size: 20px; font-weight: bold; margin: 0;"">Is there a person in this image?</p>
                    </div>
                </div>","0","main_experiment_trial","8","coin_causal","causal_sequence","randomized","","","","",""
"","","","","","html-keyboard-response","52","171527","0.0-52.0","4BF1E35C2E8249119E561F2AC9E8EF0B","019cf9c4-5ab6-7a40-8623-b2b742261725","019cf99d-e445-78ae-88d0-91fe39b758eb","","null","
                <div class=""stimulus-container"">
                    <img src=""images/causal_sequence/coin_causal/coin_causal_6.png"" class=""exp-image"">
                    <div class=""question-area""></div> 
                </div>","null","","","","","","","","","",""
"","","","","","html-button-response","53","172046","0.0-53.0","4BF1E35C2E8249119E561F2AC9E8EF0B","019cf9c4-5ab6-7a40-8623-b2b742261725","019cf99d-e445-78ae-88d0-91fe39b758eb","","518","
                <div class=""stimulus-container"">
                    <img src=""images/causal_sequence/coin_causal/coin_causal_6.png"" class=""exp-image"">
                    <div class=""question-area"">
                        <p style=""font-size: 20px; font-weight: bold; margin: 0;"">Is there a person in this image?</p>
                    </div>
                </div>","0","main_experiment_trial","6","coin_causal","causal_sequence","randomized","","","","",""
"","","","","","html-keyboard-response","54","173051","0.0-54.0","4BF1E35C2E8249119E561F2AC9E8EF0B","019cf9c4-5ab6-7a40-8623-b2b742261725","019cf99d-e445-78ae-88d0-91fe39b758eb","","null","
                <div class=""stimulus-container"">
                    <img src=""images/causal_sequence/coin_causal/coin_causal_5.png"" class=""exp-image"">
                    <div class=""question-area""></div> 
                </div>","null","","","","","","","","","",""
"","","","","","html-button-response","55","173536","0.0-55.0","4BF1E35C2E8249119E561F2AC9E8EF0B","019cf9c4-5ab6-7a40-8623-b2b742261725","019cf99d-e445-78ae-88d0-91fe39b758eb","","484","
                <div class=""stimulus-container"">
                    <img src=""images/causal_sequence/coin_causal/coin_causal_5.png"" class=""exp-image"">
                    <div class=""question-area"">
                        <p style=""font-size: 20px; font-weight: bold; margin: 0;"">Is there a person in this image?</p>
                    </div>
                </div>","0","main_experiment_trial","5","coin_causal","causal_sequence","randomized","","","","",""
"","","","","","html-keyboard-response","56","174540","0.0-56.0","4BF1E35C2E8249119E561F2AC9E8EF0B","019cf9c4-5ab6-7a40-8623-b2b742261725","019cf99d-e445-78ae-88d0-91fe39b758eb","","null","
                <div class=""stimulus-container"">
                    <img src=""images/causal_sequence/coin_causal/coin_causal_3.png"" class=""exp-image"">
                    <div class=""question-area""></div> 
                </div>","null","","","","","","","","","",""
"","","","","","html-button-response","57","175044","0.0-57.0","4BF1E35C2E8249119E561F2AC9E8EF0B","019cf9c4-5ab6-7a40-8623-b2b742261725","019cf99d-e445-78ae-88d0-91fe39b758eb","","502","
                <div class=""stimulus-container"">
                    <img src=""images/causal_sequence/coin_causal/coin_causal_3.png"" class=""exp-image"">
                    <div class=""question-area"">
                        <p style=""font-size: 20px; font-weight: bold; margin: 0;"">Is there a person in this image?</p>
                    </div>
                </div>","0","main_experiment_trial","3","coin_causal","causal_sequence","randomized","","","","",""
"","","","","","html-keyboard-response","58","180050","0.0-58.0","4BF1E35C2E8249119E561F2AC9E8EF0B","019cf9c4-5ab6-7a40-8623-b2b742261725","019cf99d-e445-78ae-88d0-91fe39b758eb","","null","<div style=""background-color: white; width: 100vw; height: 100vh;""></div>","null","","","","","","","","","",""
"","","","","","html-keyboard-response","59","181059","0.0-59.0","4BF1E35C2E8249119E561F2AC9E8EF0B","019cf9c4-5ab6-7a40-8623-b2b742261725","019cf99d-e445-78ae-88d0-91fe39b758eb","","null","
                <div class=""stimulus-container"">
                    <img src=""images/causal_sequence/saving_a_cat_causal/saving_a_cat_causal_1.png"" class=""exp-image"">
                    <div class=""question-area""></div> 
                </div>","null","","","","","","","","","",""
"","","","","","html-button-response","60","181839","0.0-60.0","4BF1E35C2E8249119E561F2AC9E8EF0B","019cf9c4-5ab6-7a40-8623-b2b742261725","019cf99d-e445-78ae-88d0-91fe39b758eb","","779","
                <div class=""stimulus-container"">
                    <img src=""images/causal_sequence/saving_a_cat_causal/saving_a_cat_causal_1.png"" class=""exp-image"">
                    <div class=""question-area"">
                        <p style=""font-size: 20px; font-weight: bold; margin: 0;"">Is there a person in this image?</p>
                    </div>
                </div>","0","main_experiment_trial","1","saving_a_cat_causal","causal_sequence","randomized","","","","",""
"","","","","","html-keyboard-response","61","182854","0.0-61.0","4BF1E35C2E8249119E561F2AC9E8EF0B","019cf9c4-5ab6-7a40-8623-b2b742261725","019cf99d-e445-78ae-88d0-91fe39b758eb","","null","
                <div class=""stimulus-container"">
                    <img src=""images/causal_sequence/saving_a_cat_causal/saving_a_cat_causal_8.png"" class=""exp-image"">
                    <div class=""question-area""></div> 
                </div>","null","","","","","","","","","",""
"","","","","","html-button-response","62","183404","0.0-62.0","4BF1E35C2E8249119E561F2AC9E8EF0B","019cf9c4-5ab6-7a40-8623-b2b742261725","019cf99d-e445-78ae-88d0-91fe39b758eb","","549","
                <div class=""stimulus-container"">
                    <img src=""images/causal_sequence/saving_a_cat_causal/saving_a_cat_causal_8.png"" class=""exp-image"">
                    <div class=""question-area"">
                        <p style=""font-size: 20px; font-weight: bold; margin: 0;"">Is there a person in this image?</p>
                    </div>
                </div>","0","main_experiment_trial","8","saving_a_cat_causal","causal_sequence","randomized","","","","",""
"","","","","","html-keyboard-response","63","184414","0.0-63.0","4BF1E35C2E8249119E561F2AC9E8EF0B","019cf9c4-5ab6-7a40-8623-b2b742261725","019cf99d-e445-78ae-88d0-91fe39b758eb","","null","
                <div class=""stimulus-container"">
                    <img src=""images/causal_sequence/saving_a_cat_causal/saving_a_cat_causal_2.png"" class=""exp-image"">
                    <div class=""question-area""></div> 
                </div>","null","","","","","","","","","",""
"","","","","","html-button-response","64","185361","0.0-64.0","4BF1E35C2E8249119E561F2AC9E8EF0B","019cf9c4-5ab6-7a40-8623-b2b742261725","019cf99d-e445-78ae-88d0-91fe39b758eb","","946","
                <div class=""stimulus-container"">
                    <img src=""images/causal_sequence/saving_a_cat_causal/saving_a_cat_causal_2.png"" class=""exp-image"">
                    <div class=""question-area"">
                        <p style=""font-size: 20px; font-weight: bold; margin: 0;"">Is there a person in this image?</p>
                    </div>
                </div>","1","main_experiment_trial","2","saving_a_cat_causal","causal_sequence","randomized","","","","",""
"","","","","","html-keyboard-response","65","186367","0.0-65.0","4BF1E35C2E8249119E561F2AC9E8EF0B","019cf9c4-5ab6-7a40-8623-b2b742261725","019cf99d-e445-78ae-88d0-91fe39b758eb","","null","
                <div class=""stimulus-container"">
                    <img src=""images/causal_sequence/saving_a_cat_causal/saving_a_cat_causal_ten.png"" class=""exp-image"">
                    <div class=""question-area""></div> 
                </div>","null","","","","","","","","","",""
"","","","","","html-button-response","66","186818","0.0-66.0","4BF1E35C2E8249119E561F2AC9E8EF0B","019cf9c4-5ab6-7a40-8623-b2b742261725","019cf99d-e445-78ae-88d0-91fe39b758eb","","450","
                <div class=""stimulus-container"">
                    <img src=""images/causal_sequence/saving_a_cat_causal/saving_a_cat_causal_ten.png"" class=""exp-image"">
                    <div class=""question-area"">
                        <p style=""font-size: 20px; font-weight: bold; margin: 0;"">Is there a person in this image?</p>
                    </div>
                </div>","0","main_experiment_trial","ten","saving_a_cat_causal","causal_sequence","randomized","","","","",""
"","","","","","html-keyboard-response","67","187824","0.0-67.0","4BF1E35C2E8249119E561F2AC9E8EF0B","019cf9c4-5ab6-7a40-8623-b2b742261725","019cf99d-e445-78ae-88d0-91fe39b758eb","","null","
                <div class=""stimulus-container"">
                    <img src=""images/causal_sequence/saving_a_cat_causal/saving_a_cat_causal_6.png"" class=""exp-image"">
                    <div class=""question-area""></div> 
                </div>","null","","","","","","","","","",""
"","","","","","html-button-response","68","188494","0.0-68.0","4BF1E35C2E8249119E561F2AC9E8EF0B","019cf9c4-5ab6-7a40-8623-b2b742261725","019cf99d-e445-78ae-88d0-91fe39b758eb","","669","
                <div class=""stimulus-container"">
                    <img src=""images/causal_sequence/saving_a_cat_causal/saving_a_cat_causal_6.png"" class=""exp-image"">
                    <div class=""question-area"">
                        <p style=""font-size: 20px; font-weight: bold; margin: 0;"">Is there a person in this image?</p>
                    </div>
                </div>","0","main_experiment_trial","6","saving_a_cat_causal","causal_sequence","randomized","","","","",""
"","","","","","html-keyboard-response","69","189503","0.0-69.0","4BF1E35C2E8249119E561F2AC9E8EF0B","019cf9c4-5ab6-7a40-8623-b2b742261725","019cf99d-e445-78ae-88d0-91fe39b758eb","","null","
                <div class=""stimulus-container"">
                    <img src=""images/causal_sequence/saving_a_cat_causal/saving_a_cat_causal_9.png"" class=""exp-image"">
                    <div class=""question-area""></div> 
                </div>","null","","","","","","","","","",""
"","","","","","html-button-response","70","189990","0.0-70.0","4BF1E35C2E8249119E561F2AC9E8EF0B","019cf9c4-5ab6-7a40-8623-b2b742261725","019cf99d-e445-78ae-88d0-91fe39b758eb","","486","
                <div class=""stimulus-container"">
                    <img src=""images/causal_sequence/saving_a_cat_causal/saving_a_cat_causal_9.png"" class=""exp-image"">
                    <div class=""question-area"">
                        <p style=""font-size: 20px; font-weight: bold; margin: 0;"">Is there a person in this image?</p>
                    </div>
                </div>","0","main_experiment_trial","9","saving_a_cat_causal","causal_sequence","randomized","","","","",""
"","","","","","html-keyboard-response","71","191005","0.0-71.0","4BF1E35C2E8249119E561F2AC9E8EF0B","019cf9c4-5ab6-7a40-8623-b2b742261725","019cf99d-e445-78ae-88d0-91fe39b758eb","","null","
                <div class=""stimulus-container"">
                    <img src=""images/causal_sequence/saving_a_cat_causal/saving_a_cat_causal_7.png"" class=""exp-image"">
                    <div class=""question-area""></div> 
                </div>","null","","","","","","","","","",""
"","","","","","html-button-response","72","191573","0.0-72.0","4BF1E35C2E8249119E561F2AC9E8EF0B","019cf9c4-5ab6-7a40-8623-b2b742261725","019cf99d-e445-78ae-88d0-91fe39b758eb","","566","
                <div class=""stimulus-container"">
                    <img src=""images/causal_sequence/saving_a_cat_causal/saving_a_cat_causal_7.png"" class=""exp-image"">
                    <div class=""question-area"">
                        <p style=""font-size: 20px; font-weight: bold; margin: 0;"">Is there a person in this image?</p>
                    </div>
                </div>","0","main_experiment_trial","7","saving_a_cat_causal","causal_sequence","randomized","","","","",""
"","","","","","html-keyboard-response","73","192589","0.0-73.0","4BF1E35C2E8249119E561F2AC9E8EF0B","019cf9c4-5ab6-7a40-8623-b2b742261725","019cf99d-e445-78ae-88d0-91fe39b758eb","","null","
                <div class=""stimulus-container"">
                    <img src=""images/causal_sequence/saving_a_cat_causal/saving_a_cat_causal_4.png"" class=""exp-image"">
                    <div class=""question-area""></div> 
                </div>","null","","","","","","","","","",""
"","","","","","html-button-response","74","193019","0.0-74.0","4BF1E35C2E8249119E561F2AC9E8EF0B","019cf9c4-5ab6-7a40-8623-b2b742261725","019cf99d-e445-78ae-88d0-91fe39b758eb","","429","
                <div class=""stimulus-container"">
                    <img src=""images/causal_sequence/saving_a_cat_causal/saving_a_cat_causal_4.png"" class=""exp-image"">
                    <div class=""question-area"">
                        <p style=""font-size: 20px; font-weight: bold; margin: 0;"">Is there a person in this image?</p>
                    </div>
                </div>","0","main_experiment_trial","4","saving_a_cat_causal","causal_sequence","randomized","","","","",""
"","","","","","html-keyboard-response","75","194033","0.0-75.0","4BF1E35C2E8249119E561F2AC9E8EF0B","019cf9c4-5ab6-7a40-8623-b2b742261725","019cf99d-e445-78ae-88d0-91fe39b758eb","","null","
                <div class=""stimulus-container"">
                    <img src=""images/causal_sequence/saving_a_cat_causal/saving_a_cat_causal_3.png"" class=""exp-image"">
                    <div class=""question-area""></div> 
                </div>","null","","","","","","","","","",""
"","","","","","html-button-response","76","194457","0.0-76.0","4BF1E35C2E8249119E561F2AC9E8EF0B","019cf9c4-5ab6-7a40-8623-b2b742261725","019cf99d-e445-78ae-88d0-91fe39b758eb","","422","
                <div class=""stimulus-container"">
                    <img src=""images/causal_sequence/saving_a_cat_causal/saving_a_cat_causal_3.png"" class=""exp-image"">
                    <div class=""question-area"">
                        <p style=""font-size: 20px; font-weight: bold; margin: 0;"">Is there a person in this image?</p>
                    </div>
                </div>","1","main_experiment_trial","3","saving_a_cat_causal","causal_sequence","randomized","","","","",""
"","","","","","html-keyboard-response","77","195467","0.0-77.0","4BF1E35C2E8249119E561F2AC9E8EF0B","019cf9c4-5ab6-7a40-8623-b2b742261725","019cf99d-e445-78ae-88d0-91fe39b758eb","","null","
                <div class=""stimulus-container"">
                    <img src=""images/causal_sequence/saving_a_cat_causal/saving_a_cat_causal_5.png"" class=""exp-image"">
                    <div class=""question-area""></div> 
                </div>","null","","","","","","","","","",""
"","","","","","html-button-response","78","195987","0.0-78.0","4BF1E35C2E8249119E561F2AC9E8EF0B","019cf9c4-5ab6-7a40-8623-b2b742261725","019cf99d-e445-78ae-88d0-91fe39b758eb","","519","
                <div class=""stimulus-container"">
                    <img src=""images/causal_sequence/saving_a_cat_causal/saving_a_cat_causal_5.png"" class=""exp-image"">
                    <div class=""question-area"">
                        <p style=""font-size: 20px; font-weight: bold; margin: 0;"">Is there a person in this image?</p>
                    </div>
                </div>","0","main_experiment_trial","5","saving_a_cat_causal","causal_sequence","randomized","","","","",""
"","","","","","html-keyboard-response","79","200998","0.0-79.0","4BF1E35C2E8249119E561F2AC9E8EF0B","019cf9c4-5ab6-7a40-8623-b2b742261725","019cf99d-e445-78ae-88d0-91fe39b758eb","","null","<div style=""background-color: white; width: 100vw; height: 100vh;""></div>","null","","","","","","","","","",""
"","","","","","html-keyboard-response","80","202009","0.0-80.0","4BF1E35C2E8249119E561F2AC9E8EF0B","019cf9c4-5ab6-7a40-8623-b2b742261725","019cf99d-e445-78ae-88d0-91fe39b758eb","","null","
                <div class=""stimulus-container"">
                    <img src=""images/semantic_sequence/market_semantic/market_semantic_2.png"" class=""exp-image"">
                    <div class=""question-area""></div> 
                </div>","null","","","","","","","","","",""
"","","","","","html-button-response","81","203020","0.0-81.0","4BF1E35C2E8249119E561F2AC9E8EF0B","019cf9c4-5ab6-7a40-8623-b2b742261725","019cf99d-e445-78ae-88d0-91fe39b758eb","","1010","
                <div class=""stimulus-container"">
                    <img src=""images/semantic_sequence/market_semantic/market_semantic_2.png"" class=""exp-image"">
                    <div class=""question-area"">
                        <p style=""font-size: 20px; font-weight: bold; margin: 0;"">Is there a person in this image?</p>
                    </div>
                </div>","1","main_experiment_trial","2","market_semantic","semantic_sequence","randomized","","","","",""
"","","","","","html-keyboard-response","82","204033","0.0-82.0","4BF1E35C2E8249119E561F2AC9E8EF0B","019cf9c4-5ab6-7a40-8623-b2b742261725","019cf99d-e445-78ae-88d0-91fe39b758eb","","null","
                <div class=""stimulus-container"">
                    <img src=""images/semantic_sequence/market_semantic/market_semantic_3.png"" class=""exp-image"">
                    <div class=""question-area""></div> 
                </div>","null","","","","","","","","","",""
"","","","","","html-button-response","83","204642","0.0-83.0","4BF1E35C2E8249119E561F2AC9E8EF0B","019cf9c4-5ab6-7a40-8623-b2b742261725","019cf99d-e445-78ae-88d0-91fe39b758eb","","608","
                <div class=""stimulus-container"">
                    <img src=""images/semantic_sequence/market_semantic/market_semantic_3.png"" class=""exp-image"">
                    <div class=""question-area"">
                        <p style=""font-size: 20px; font-weight: bold; margin: 0;"">Is there a person in this image?</p>
                    </div>
                </div>","1","main_experiment_trial","3","market_semantic","semantic_sequence","randomized","","","","",""
"","","","","","html-keyboard-response","84","205646","0.0-84.0","4BF1E35C2E8249119E561F2AC9E8EF0B","019cf9c4-5ab6-7a40-8623-b2b742261725","019cf99d-e445-78ae-88d0-91fe39b758eb","","null","
                <div class=""stimulus-container"">
                    <img src=""images/semantic_sequence/market_semantic/market_semantic_1.png"" class=""exp-image"">
                    <div class=""question-area""></div> 
                </div>","null","","","","","","","","","",""
"","","","","","html-button-response","85","206124","0.0-85.0","4BF1E35C2E8249119E561F2AC9E8EF0B","019cf9c4-5ab6-7a40-8623-b2b742261725","019cf99d-e445-78ae-88d0-91fe39b758eb","","477","
                <div class=""stimulus-container"">
                    <img src=""images/semantic_sequence/market_semantic/market_semantic_1.png"" class=""exp-image"">
                    <div class=""question-area"">
                        <p style=""font-size: 20px; font-weight: bold; margin: 0;"">Is there a person in this image?</p>
                    </div>
                </div>","1","main_experiment_trial","1","market_semantic","semantic_sequence","randomized","","","","",""
"","","","","","html-keyboard-response","86","207128","0.0-86.0","4BF1E35C2E8249119E561F2AC9E8EF0B","019cf9c4-5ab6-7a40-8623-b2b742261725","019cf99d-e445-78ae-88d0-91fe39b758eb","","null","
                <div class=""stimulus-container"">
                    <img src=""images/semantic_sequence/market_semantic/market_semantic_9.png"" class=""exp-image"">
                    <div class=""question-area""></div> 
                </div>","null","","","","","","","","","",""
"","","","","","html-button-response","87","207791","0.0-87.0","4BF1E35C2E8249119E561F2AC9E8EF0B","019cf9c4-5ab6-7a40-8623-b2b742261725","019cf99d-e445-78ae-88d0-91fe39b758eb","","663","
                <div class=""stimulus-container"">
                    <img src=""images/semantic_sequence/market_semantic/market_semantic_9.png"" class=""exp-image"">
                    <div class=""question-area"">
                        <p style=""font-size: 20px; font-weight: bold; margin: 0;"">Is there a person in this image?</p>
                    </div>
                </div>","0","main_experiment_trial","9","market_semantic","semantic_sequence","randomized","","","","",""
"","","","","","html-keyboard-response","88","208797","0.0-88.0","4BF1E35C2E8249119E561F2AC9E8EF0B","019cf9c4-5ab6-7a40-8623-b2b742261725","019cf99d-e445-78ae-88d0-91fe39b758eb","","null","
                <div class=""stimulus-container"">
                    <img src=""images/semantic_sequence/market_semantic/market_semantic_4.png"" class=""exp-image"">
                    <div class=""question-area""></div> 
                </div>","null","","","","","","","","","",""
"","","","","","html-button-response","89","209320","0.0-89.0","4BF1E35C2E8249119E561F2AC9E8EF0B","019cf9c4-5ab6-7a40-8623-b2b742261725","019cf99d-e445-78ae-88d0-91fe39b758eb","","521","
                <div class=""stimulus-container"">
                    <img src=""images/semantic_sequence/market_semantic/market_semantic_4.png"" class=""exp-image"">
                    <div class=""question-area"">
                        <p style=""font-size: 20px; font-weight: bold; margin: 0;"">Is there a person in this image?</p>
                    </div>
                </div>","0","main_experiment_trial","4","market_semantic","semantic_sequence","randomized","","","","",""
"","","","","","html-keyboard-response","90","210322","0.0-90.0","4BF1E35C2E8249119E561F2AC9E8EF0B","019cf9c4-5ab6-7a40-8623-b2b742261725","019cf99d-e445-78ae-88d0-91fe39b758eb","","null","
                <div class=""stimulus-container"">
                    <img src=""images/semantic_sequence/market_semantic/market_semantic_8.png"" class=""exp-image"">
                    <div class=""question-area""></div> 
                </div>","null","","","","","","","","","",""
"","","","","","html-button-response","91","212451","0.0-91.0","4BF1E35C2E8249119E561F2AC9E8EF0B","019cf9c4-5ab6-7a40-8623-b2b742261725","019cf99d-e445-78ae-88d0-91fe39b758eb","","2127","
                <div class=""stimulus-container"">
                    <img src=""images/semantic_sequence/market_semantic/market_semantic_8.png"" class=""exp-image"">
                    <div class=""question-area"">
                        <p style=""font-size: 20px; font-weight: bold; margin: 0;"">Is there a person in this image?</p>
                    </div>
                </div>","0","main_experiment_trial","8","market_semantic","semantic_sequence","randomized","","","","",""
"","","","","","html-keyboard-response","92","213456","0.0-92.0","4BF1E35C2E8249119E561F2AC9E8EF0B","019cf9c4-5ab6-7a40-8623-b2b742261725","019cf99d-e445-78ae-88d0-91fe39b758eb","","null","
                <div class=""stimulus-container"">
                    <img src=""images/semantic_sequence/market_semantic/market_semantic_7.png"" class=""exp-image"">
                    <div class=""question-area""></div> 
                </div>","null","","","","","","","","","",""
"","","","","","html-button-response","93","213916","0.0-93.0","4BF1E35C2E8249119E561F2AC9E8EF0B","019cf9c4-5ab6-7a40-8623-b2b742261725","019cf99d-e445-78ae-88d0-91fe39b758eb","","460","
                <div class=""stimulus-container"">
                    <img src=""images/semantic_sequence/market_semantic/market_semantic_7.png"" class=""exp-image"">
                    <div class=""question-area"">
                        <p style=""font-size: 20px; font-weight: bold; margin: 0;"">Is there a person in this image?</p>
                    </div>
                </div>","0","main_experiment_trial","7","market_semantic","semantic_sequence","randomized","","","","",""
"","","","","","html-keyboard-response","94","214924","0.0-94.0","4BF1E35C2E8249119E561F2AC9E8EF0B","019cf9c4-5ab6-7a40-8623-b2b742261725","019cf99d-e445-78ae-88d0-91fe39b758eb","","null","
                <div class=""stimulus-container"">
                    <img src=""images/semantic_sequence/market_semantic/market_semantic_5.png"" class=""exp-image"">
                    <div class=""question-area""></div> 
                </div>","null","","","","","","","","","",""
"","","","","","html-button-response","95","215543","0.0-95.0","4BF1E35C2E8249119E561F2AC9E8EF0B","019cf9c4-5ab6-7a40-8623-b2b742261725","019cf99d-e445-78ae-88d0-91fe39b758eb","","618","
                <div class=""stimulus-container"">
                    <img src=""images/semantic_sequence/market_semantic/market_semantic_5.png"" class=""exp-image"">
                    <div class=""question-area"">
                        <p style=""font-size: 20px; font-weight: bold; margin: 0;"">Is there a person in this image?</p>
                    </div>
                </div>","1","main_experiment_trial","5","market_semantic","semantic_sequence","randomized","","","","",""
"","","","","","html-keyboard-response","96","216546","0.0-96.0","4BF1E35C2E8249119E561F2AC9E8EF0B","019cf9c4-5ab6-7a40-8623-b2b742261725","019cf99d-e445-78ae-88d0-91fe39b758eb","","null","
                <div class=""stimulus-container"">
                    <img src=""images/semantic_sequence/market_semantic/market_semantic_ten.png"" class=""exp-image"">
                    <div class=""question-area""></div> 
                </div>","null","","","","","","","","","",""
"","","","","","html-button-response","97","217178","0.0-97.0","4BF1E35C2E8249119E561F2AC9E8EF0B","019cf9c4-5ab6-7a40-8623-b2b742261725","019cf99d-e445-78ae-88d0-91fe39b758eb","","631","
                <div class=""stimulus-container"">
                    <img src=""images/semantic_sequence/market_semantic/market_semantic_ten.png"" class=""exp-image"">
                    <div class=""question-area"">
                        <p style=""font-size: 20px; font-weight: bold; margin: 0;"">Is there a person in this image?</p>
                    </div>
                </div>","1","main_experiment_trial","ten","market_semantic","semantic_sequence","randomized","","","","",""
"","","","","","html-keyboard-response","98","218186","0.0-98.0","4BF1E35C2E8249119E561F2AC9E8EF0B","019cf9c4-5ab6-7a40-8623-b2b742261725","019cf99d-e445-78ae-88d0-91fe39b758eb","","null","
                <div class=""stimulus-container"">
                    <img src=""images/semantic_sequence/market_semantic/market_semantic_6.png"" class=""exp-image"">
                    <div class=""question-area""></div> 
                </div>","null","","","","","","","","","",""
"","","","","","html-button-response","99","218831","0.0-99.0","4BF1E35C2E8249119E561F2AC9E8EF0B","019cf9c4-5ab6-7a40-8623-b2b742261725","019cf99d-e445-78ae-88d0-91fe39b758eb","","644","
                <div class=""stimulus-container"">
                    <img src=""images/semantic_sequence/market_semantic/market_semantic_6.png"" class=""exp-image"">
                    <div class=""question-area"">
                        <p style=""font-size: 20px; font-weight: bold; margin: 0;"">Is there a person in this image?</p>
                    </div>
                </div>","1","main_experiment_trial","6","market_semantic","semantic_sequence","randomized","","","","",""
"","","","","","html-keyboard-response","100","223833","0.0-100.0","4BF1E35C2E8249119E561F2AC9E8EF0B","019cf9c4-5ab6-7a40-8623-b2b742261725","019cf99d-e445-78ae-88d0-91fe39b758eb","","null","<div style=""background-color: white; width: 100vw; height: 100vh;""></div>","null","","","","","","","","","",""
"","","","","","html-keyboard-response","101","224842","0.0-101.0","4BF1E35C2E8249119E561F2AC9E8EF0B","019cf9c4-5ab6-7a40-8623-b2b742261725","019cf99d-e445-78ae-88d0-91fe39b758eb","","null","
                <div class=""stimulus-container"">
                    <img src=""images/semantic_sequence/kitchen_operations_semantic/kitchen_operations_semantic_2.png"" class=""exp-image"">
                    <div class=""question-area""></div> 
                </div>","null","","","","","","","","","",""
"","","","","","html-button-response","102","225596","0.0-102.0","4BF1E35C2E8249119E561F2AC9E8EF0B","019cf9c4-5ab6-7a40-8623-b2b742261725","019cf99d-e445-78ae-88d0-91fe39b758eb","","752","
                <div class=""stimulus-container"">
                    <img src=""images/semantic_sequence/kitchen_operations_semantic/kitchen_operations_semantic_2.png"" class=""exp-image"">
                    <div class=""question-area"">
                        <p style=""font-size: 20px; font-weight: bold; margin: 0;"">Is there a person in this image?</p>
                    </div>
                </div>","0","main_experiment_trial","2","kitchen_operations_semantic","semantic_sequence","randomized","","","","",""
"","","","","","html-keyboard-response","103","226607","0.0-103.0","4BF1E35C2E8249119E561F2AC9E8EF0B","019cf9c4-5ab6-7a40-8623-b2b742261725","019cf99d-e445-78ae-88d0-91fe39b758eb","","null","
                <div class=""stimulus-container"">
                    <img src=""images/semantic_sequence/kitchen_operations_semantic/kitchen_operations_semantic_ten.png"" class=""exp-image"">
                    <div class=""question-area""></div> 
                </div>","null","","","","","","","","","",""
"","","","","","html-button-response","104","227203","0.0-104.0","4BF1E35C2E8249119E561F2AC9E8EF0B","019cf9c4-5ab6-7a40-8623-b2b742261725","019cf99d-e445-78ae-88d0-91fe39b758eb","","595","
                <div class=""stimulus-container"">
                    <img src=""images/semantic_sequence/kitchen_operations_semantic/kitchen_operations_semantic_ten.png"" class=""exp-image"">
                    <div class=""question-area"">
                        <p style=""font-size: 20px; font-weight: bold; margin: 0;"">Is there a person in this image?</p>
                    </div>
                </div>","0","main_experiment_trial","ten","kitchen_operations_semantic","semantic_sequence","randomized","","","","",""
"","","","","","html-keyboard-response","105","228211","0.0-105.0","4BF1E35C2E8249119E561F2AC9E8EF0B","019cf9c4-5ab6-7a40-8623-b2b742261725","019cf99d-e445-78ae-88d0-91fe39b758eb","","null","
                <div class=""stimulus-container"">
                    <img src=""images/semantic_sequence/kitchen_operations_semantic/kitchen_operations_semantic_8.png"" class=""exp-image"">
                    <div class=""question-area""></div> 
                </div>","null","","","","","","","","","",""
"","","","","","html-button-response","106","228813","0.0-106.0","4BF1E35C2E8249119E561F2AC9E8EF0B","019cf9c4-5ab6-7a40-8623-b2b742261725","019cf99d-e445-78ae-88d0-91fe39b758eb","","601","
                <div class=""stimulus-container"">
                    <img src=""images/semantic_sequence/kitchen_operations_semantic/kitchen_operations_semantic_8.png"" class=""exp-image"">
                    <div class=""question-area"">
                        <p style=""font-size: 20px; font-weight: bold; margin: 0;"">Is there a person in this image?</p>
                    </div>
                </div>","0","main_experiment_trial","8","kitchen_operations_semantic","semantic_sequence","randomized","","","","",""
"","","","","","html-keyboard-response","107","229819","0.0-107.0","4BF1E35C2E8249119E561F2AC9E8EF0B","019cf9c4-5ab6-7a40-8623-b2b742261725","019cf99d-e445-78ae-88d0-91fe39b758eb","","null","
                <div class=""stimulus-container"">
                    <img src=""images/semantic_sequence/kitchen_operations_semantic/kitchen_operations_semantic_1.png"" class=""exp-image"">
                    <div class=""question-area""></div> 
                </div>","null","","","","","","","","","",""
"","","","","","html-button-response","108","230265","0.0-108.0","4BF1E35C2E8249119E561F2AC9E8EF0B","019cf9c4-5ab6-7a40-8623-b2b742261725","019cf99d-e445-78ae-88d0-91fe39b758eb","","445","
                <div class=""stimulus-container"">
                    <img src=""images/semantic_sequence/kitchen_operations_semantic/kitchen_operations_semantic_1.png"" class=""exp-image"">
                    <div class=""question-area"">
                        <p style=""font-size: 20px; font-weight: bold; margin: 0;"">Is there a person in this image?</p>
                    </div>
                </div>","0","main_experiment_trial","1","kitchen_operations_semantic","semantic_sequence","randomized","","","","",""
"","","","","","html-keyboard-response","109","231271","0.0-109.0","4BF1E35C2E8249119E561F2AC9E8EF0B","019cf9c4-5ab6-7a40-8623-b2b742261725","019cf99d-e445-78ae-88d0-91fe39b758eb","","null","
                <div class=""stimulus-container"">
                    <img src=""images/semantic_sequence/kitchen_operations_semantic/kitchen_operations_semantic_7.png"" class=""exp-image"">
                    <div class=""question-area""></div> 
                </div>","null","","","","","","","","","",""
"","","","","","html-button-response","110","231759","0.0-110.0","4BF1E35C2E8249119E561F2AC9E8EF0B","019cf9c4-5ab6-7a40-8623-b2b742261725","019cf99d-e445-78ae-88d0-91fe39b758eb","","487","
                <div class=""stimulus-container"">
                    <img src=""images/semantic_sequence/kitchen_operations_semantic/kitchen_operations_semantic_7.png"" class=""exp-image"">
                    <div class=""question-area"">
                        <p style=""font-size: 20px; font-weight: bold; margin: 0;"">Is there a person in this image?</p>
                    </div>
                </div>","0","main_experiment_trial","7","kitchen_operations_semantic","semantic_sequence","randomized","","","","",""
"","","","","","html-keyboard-response","111","232772","0.0-111.0","4BF1E35C2E8249119E561F2AC9E8EF0B","019cf9c4-5ab6-7a40-8623-b2b742261725","019cf99d-e445-78ae-88d0-91fe39b758eb","","null","
                <div class=""stimulus-container"">
                    <img src=""images/semantic_sequence/kitchen_operations_semantic/kitchen_operations_semantic_5.png"" class=""exp-image"">
                    <div class=""question-area""></div> 
                </div>","null","","","","","","","","","",""
"","","","","","html-button-response","112","233481","0.0-112.0","4BF1E35C2E8249119E561F2AC9E8EF0B","019cf9c4-5ab6-7a40-8623-b2b742261725","019cf99d-e445-78ae-88d0-91fe39b758eb","","709","
                <div class=""stimulus-container"">
                    <img src=""images/semantic_sequence/kitchen_operations_semantic/kitchen_operations_semantic_5.png"" class=""exp-image"">
                    <div class=""question-area"">
                        <p style=""font-size: 20px; font-weight: bold; margin: 0;"">Is there a person in this image?</p>
                    </div>
                </div>","0","main_experiment_trial","5","kitchen_operations_semantic","semantic_sequence","randomized","","","","",""
"","","","","","html-keyboard-response","113","234484","0.0-113.0","4BF1E35C2E8249119E561F2AC9E8EF0B","019cf9c4-5ab6-7a40-8623-b2b742261725","019cf99d-e445-78ae-88d0-91fe39b758eb","","null","
                <div class=""stimulus-container"">
                    <img src=""images/semantic_sequence/kitchen_operations_semantic/kitchen_operations_semantic_6.png"" class=""exp-image"">
                    <div class=""question-area""></div> 
                </div>","null","","","","","","","","","",""
"","","","","","html-button-response","114","235186","0.0-114.0","4BF1E35C2E8249119E561F2AC9E8EF0B","019cf9c4-5ab6-7a40-8623-b2b742261725","019cf99d-e445-78ae-88d0-91fe39b758eb","","701","
                <div class=""stimulus-container"">
                    <img src=""images/semantic_sequence/kitchen_operations_semantic/kitchen_operations_semantic_6.png"" class=""exp-image"">
                    <div class=""question-area"">
                        <p style=""font-size: 20px; font-weight: bold; margin: 0;"">Is there a person in this image?</p>
                    </div>
                </div>","0","main_experiment_trial","6","kitchen_operations_semantic","semantic_sequence","randomized","","","","",""
"","","","","","html-keyboard-response","115","236194","0.0-115.0","4BF1E35C2E8249119E561F2AC9E8EF0B","019cf9c4-5ab6-7a40-8623-b2b742261725","019cf99d-e445-78ae-88d0-91fe39b758eb","","null","
                <div class=""stimulus-container"">
                    <img src=""images/semantic_sequence/kitchen_operations_semantic/kitchen_operations_semantic_9.png"" class=""exp-image"">
                    <div class=""question-area""></div> 
                </div>","null","","","","","","","","","",""
"","","","","","html-button-response","116","236627","0.0-116.0","4BF1E35C2E8249119E561F2AC9E8EF0B","019cf9c4-5ab6-7a40-8623-b2b742261725","019cf99d-e445-78ae-88d0-91fe39b758eb","","432","
                <div class=""stimulus-container"">
                    <img src=""images/semantic_sequence/kitchen_operations_semantic/kitchen_operations_semantic_9.png"" class=""exp-image"">
                    <div class=""question-area"">
                        <p style=""font-size: 20px; font-weight: bold; margin: 0;"">Is there a person in this image?</p>
                    </div>
                </div>","0","main_experiment_trial","9","kitchen_operations_semantic","semantic_sequence","randomized","","","","",""
"","","","","","html-keyboard-response","117","237639","0.0-117.0","4BF1E35C2E8249119E561F2AC9E8EF0B","019cf9c4-5ab6-7a40-8623-b2b742261725","019cf99d-e445-78ae-88d0-91fe39b758eb","","null","
                <div class=""stimulus-container"">
                    <img src=""images/semantic_sequence/kitchen_operations_semantic/kitchen_operations_semantic_4.png"" class=""exp-image"">
                    <div class=""question-area""></div> 
                </div>","null","","","","","","","","","",""
"","","","","","html-button-response","118","238109","0.0-118.0","4BF1E35C2E8249119E561F2AC9E8EF0B","019cf9c4-5ab6-7a40-8623-b2b742261725","019cf99d-e445-78ae-88d0-91fe39b758eb","","468","
                <div class=""stimulus-container"">
                    <img src=""images/semantic_sequence/kitchen_operations_semantic/kitchen_operations_semantic_4.png"" class=""exp-image"">
                    <div class=""question-area"">
                        <p style=""font-size: 20px; font-weight: bold; margin: 0;"">Is there a person in this image?</p>
                    </div>
                </div>","0","main_experiment_trial","4","kitchen_operations_semantic","semantic_sequence","randomized","","","","",""
"","","","","","html-keyboard-response","119","239123","0.0-119.0","4BF1E35C2E8249119E561F2AC9E8EF0B","019cf9c4-5ab6-7a40-8623-b2b742261725","019cf99d-e445-78ae-88d0-91fe39b758eb","","null","
                <div class=""stimulus-container"">
                    <img src=""images/semantic_sequence/kitchen_operations_semantic/kitchen_operations_semantic_3.png"" class=""exp-image"">
                    <div class=""question-area""></div> 
                </div>","null","","","","","","","","","",""
"","","","","","html-button-response","120","239545","0.0-120.0","4BF1E35C2E8249119E561F2AC9E8EF0B","019cf9c4-5ab6-7a40-8623-b2b742261725","019cf99d-e445-78ae-88d0-91fe39b758eb","","421","
                <div class=""stimulus-container"">
                    <img src=""images/semantic_sequence/kitchen_operations_semantic/kitchen_operations_semantic_3.png"" class=""exp-image"">
                    <div class=""question-area"">
                        <p style=""font-size: 20px; font-weight: bold; margin: 0;"">Is there a person in this image?</p>
                    </div>
                </div>","0","main_experiment_trial","3","kitchen_operations_semantic","semantic_sequence","randomized","","","","",""
"","","","","","html-keyboard-response","121","244550","0.0-121.0","4BF1E35C2E8249119E561F2AC9E8EF0B","019cf9c4-5ab6-7a40-8623-b2b742261725","019cf99d-e445-78ae-88d0-91fe39b758eb","","null","<div style=""background-color: white; width: 100vw; height: 100vh;""></div>","null","","","","","","","","","",""
"","","","","","html-keyboard-response","122","245564","0.0-122.0","4BF1E35C2E8249119E561F2AC9E8EF0B","019cf9c4-5ab6-7a40-8623-b2b742261725","019cf99d-e445-78ae-88d0-91fe39b758eb","","null","
                <div class=""stimulus-container"">
                    <img src=""images/semantic_sequence/housework_semantic/housework_semantic_2.png"" class=""exp-image"">
                    <div class=""question-area""></div> 
                </div>","null","","","","","","","","","",""
"","","","","","html-button-response","123","246370","0.0-123.0","4BF1E35C2E8249119E561F2AC9E8EF0B","019cf9c4-5ab6-7a40-8623-b2b742261725","019cf99d-e445-78ae-88d0-91fe39b758eb","","805","
                <div class=""stimulus-container"">
                    <img src=""images/semantic_sequence/housework_semantic/housework_semantic_2.png"" class=""exp-image"">
                    <div class=""question-area"">
                        <p style=""font-size: 20px; font-weight: bold; margin: 0;"">Is there a person in this image?</p>
                    </div>
                </div>","0","main_experiment_trial","2","housework_semantic","semantic_sequence","randomized","","","","",""
"","","","","","html-keyboard-response","124","247378","0.0-124.0","4BF1E35C2E8249119E561F2AC9E8EF0B","019cf9c4-5ab6-7a40-8623-b2b742261725","019cf99d-e445-78ae-88d0-91fe39b758eb","","null","
                <div class=""stimulus-container"">
                    <img src=""images/semantic_sequence/housework_semantic/housework_semantic_9.png"" class=""exp-image"">
                    <div class=""question-area""></div> 
                </div>","null","","","","","","","","","",""
"","","","","","html-button-response","125","247807","0.0-125.0","4BF1E35C2E8249119E561F2AC9E8EF0B","019cf9c4-5ab6-7a40-8623-b2b742261725","019cf99d-e445-78ae-88d0-91fe39b758eb","","428","
                <div class=""stimulus-container"">
                    <img src=""images/semantic_sequence/housework_semantic/housework_semantic_9.png"" class=""exp-image"">
                    <div class=""question-area"">
                        <p style=""font-size: 20px; font-weight: bold; margin: 0;"">Is there a person in this image?</p>
                    </div>
                </div>","0","main_experiment_trial","9","housework_semantic","semantic_sequence","randomized","","","","",""
"","","","","","html-keyboard-response","126","248815","0.0-126.0","4BF1E35C2E8249119E561F2AC9E8EF0B","019cf9c4-5ab6-7a40-8623-b2b742261725","019cf99d-e445-78ae-88d0-91fe39b758eb","","null","
                <div class=""stimulus-container"">
                    <img src=""images/semantic_sequence/housework_semantic/housework_semantic_3.png"" class=""exp-image"">
                    <div class=""question-area""></div> 
                </div>","null","","","","","","","","","",""
"","","","","","html-button-response","127","249237","0.0-127.0","4BF1E35C2E8249119E561F2AC9E8EF0B","019cf9c4-5ab6-7a40-8623-b2b742261725","019cf99d-e445-78ae-88d0-91fe39b758eb","","421","
                <div class=""stimulus-container"">
                    <img src=""images/semantic_sequence/housework_semantic/housework_semantic_3.png"" class=""exp-image"">
                    <div class=""question-area"">
                        <p style=""font-size: 20px; font-weight: bold; margin: 0;"">Is there a person in this image?</p>
                    </div>
                </div>","0","main_experiment_trial","3","housework_semantic","semantic_sequence","randomized","","","","",""
"","","","","","html-keyboard-response","128","250247","0.0-128.0","4BF1E35C2E8249119E561F2AC9E8EF0B","019cf9c4-5ab6-7a40-8623-b2b742261725","019cf99d-e445-78ae-88d0-91fe39b758eb","","null","
                <div class=""stimulus-container"">
                    <img src=""images/semantic_sequence/housework_semantic/housework_semantic_1.png"" class=""exp-image"">
                    <div class=""question-area""></div> 
                </div>","null","","","","","","","","","",""
"","","","","","html-button-response","129","250715","0.0-129.0","4BF1E35C2E8249119E561F2AC9E8EF0B","019cf9c4-5ab6-7a40-8623-b2b742261725","019cf99d-e445-78ae-88d0-91fe39b758eb","","467","
                <div class=""stimulus-container"">
                    <img src=""images/semantic_sequence/housework_semantic/housework_semantic_1.png"" class=""exp-image"">
                    <div class=""question-area"">
                        <p style=""font-size: 20px; font-weight: bold; margin: 0;"">Is there a person in this image?</p>
                    </div>
                </div>","0","main_experiment_trial","1","housework_semantic","semantic_sequence","randomized","","","","",""
"","","","","","html-keyboard-response","130","251729","0.0-130.0","4BF1E35C2E8249119E561F2AC9E8EF0B","019cf9c4-5ab6-7a40-8623-b2b742261725","019cf99d-e445-78ae-88d0-91fe39b758eb","","null","
                <div class=""stimulus-container"">
                    <img src=""images/semantic_sequence/housework_semantic/housework_semantic_6.png"" class=""exp-image"">
                    <div class=""question-area""></div> 
                </div>","null","","","","","","","","","",""
"","","","","","html-button-response","131","252167","0.0-131.0","4BF1E35C2E8249119E561F2AC9E8EF0B","019cf9c4-5ab6-7a40-8623-b2b742261725","019cf99d-e445-78ae-88d0-91fe39b758eb","","437","
                <div class=""stimulus-container"">
                    <img src=""images/semantic_sequence/housework_semantic/housework_semantic_6.png"" class=""exp-image"">
                    <div class=""question-area"">
                        <p style=""font-size: 20px; font-weight: bold; margin: 0;"">Is there a person in this image?</p>
                    </div>
                </div>","0","main_experiment_trial","6","housework_semantic","semantic_sequence","randomized","","","","",""
"","","","","","html-keyboard-response","132","253170","0.0-132.0","4BF1E35C2E8249119E561F2AC9E8EF0B","019cf9c4-5ab6-7a40-8623-b2b742261725","019cf99d-e445-78ae-88d0-91fe39b758eb","","null","
                <div class=""stimulus-container"">
                    <img src=""images/semantic_sequence/housework_semantic/housework_semantic_7.png"" class=""exp-image"">
                    <div class=""question-area""></div> 
                </div>","null","","","","","","","","","",""
"","","","","","html-button-response","133","253620","0.0-133.0","4BF1E35C2E8249119E561F2AC9E8EF0B","019cf9c4-5ab6-7a40-8623-b2b742261725","019cf99d-e445-78ae-88d0-91fe39b758eb","","449","
                <div class=""stimulus-container"">
                    <img src=""images/semantic_sequence/housework_semantic/housework_semantic_7.png"" class=""exp-image"">
                    <div class=""question-area"">
                        <p style=""font-size: 20px; font-weight: bold; margin: 0;"">Is there a person in this image?</p>
                    </div>
                </div>","0","main_experiment_trial","7","housework_semantic","semantic_sequence","randomized","","","","",""
"","","","","","html-keyboard-response","134","254623","0.0-134.0","4BF1E35C2E8249119E561F2AC9E8EF0B","019cf9c4-5ab6-7a40-8623-b2b742261725","019cf99d-e445-78ae-88d0-91fe39b758eb","","null","
                <div class=""stimulus-container"">
                    <img src=""images/semantic_sequence/housework_semantic/housework_semantic_8.png"" class=""exp-image"">
                    <div class=""question-area""></div> 
                </div>","null","","","","","","","","","",""
"","","","","","html-button-response","135","255004","0.0-135.0","4BF1E35C2E8249119E561F2AC9E8EF0B","019cf9c4-5ab6-7a40-8623-b2b742261725","019cf99d-e445-78ae-88d0-91fe39b758eb","","381","
                <div class=""stimulus-container"">
                    <img src=""images/semantic_sequence/housework_semantic/housework_semantic_8.png"" class=""exp-image"">
                    <div class=""question-area"">
                        <p style=""font-size: 20px; font-weight: bold; margin: 0;"">Is there a person in this image?</p>
                    </div>
                </div>","0","main_experiment_trial","8","housework_semantic","semantic_sequence","randomized","","","","",""
"","","","","","html-keyboard-response","136","256010","0.0-136.0","4BF1E35C2E8249119E561F2AC9E8EF0B","019cf9c4-5ab6-7a40-8623-b2b742261725","019cf99d-e445-78ae-88d0-91fe39b758eb","","null","
                <div class=""stimulus-container"">
                    <img src=""images/semantic_sequence/housework_semantic/housework_semantic_4.png"" class=""exp-image"">
                    <div class=""question-area""></div> 
                </div>","null","","","","","","","","","",""
"","","","","","html-button-response","137","256412","0.0-137.0","4BF1E35C2E8249119E561F2AC9E8EF0B","019cf9c4-5ab6-7a40-8623-b2b742261725","019cf99d-e445-78ae-88d0-91fe39b758eb","","401","
                <div class=""stimulus-container"">
                    <img src=""images/semantic_sequence/housework_semantic/housework_semantic_4.png"" class=""exp-image"">
                    <div class=""question-area"">
                        <p style=""font-size: 20px; font-weight: bold; margin: 0;"">Is there a person in this image?</p>
                    </div>
                </div>","0","main_experiment_trial","4","housework_semantic","semantic_sequence","randomized","","","","",""
"","","","","","html-keyboard-response","138","257427","0.0-138.0","4BF1E35C2E8249119E561F2AC9E8EF0B","019cf9c4-5ab6-7a40-8623-b2b742261725","019cf99d-e445-78ae-88d0-91fe39b758eb","","null","
                <div class=""stimulus-container"">
                    <img src=""images/semantic_sequence/housework_semantic/housework_semantic_5.png"" class=""exp-image"">
                    <div class=""question-area""></div> 
                </div>","null","","","","","","","","","",""
"","","","","","html-button-response","139","257853","0.0-139.0","4BF1E35C2E8249119E561F2AC9E8EF0B","019cf9c4-5ab6-7a40-8623-b2b742261725","019cf99d-e445-78ae-88d0-91fe39b758eb","","425","
                <div class=""stimulus-container"">
                    <img src=""images/semantic_sequence/housework_semantic/housework_semantic_5.png"" class=""exp-image"">
                    <div class=""question-area"">
                        <p style=""font-size: 20px; font-weight: bold; margin: 0;"">Is there a person in this image?</p>
                    </div>
                </div>","0","main_experiment_trial","5","housework_semantic","semantic_sequence","randomized","","","","",""
"","","","","","html-keyboard-response","140","258860","0.0-140.0","4BF1E35C2E8249119E561F2AC9E8EF0B","019cf9c4-5ab6-7a40-8623-b2b742261725","019cf99d-e445-78ae-88d0-91fe39b758eb","","null","
                <div class=""stimulus-container"">
                    <img src=""images/semantic_sequence/housework_semantic/housework_semantic_ten.png"" class=""exp-image"">
                    <div class=""question-area""></div> 
                </div>","null","","","","","","","","","",""
"","","","","","html-button-response","141","259243","0.0-141.0","4BF1E35C2E8249119E561F2AC9E8EF0B","019cf9c4-5ab6-7a40-8623-b2b742261725","019cf99d-e445-78ae-88d0-91fe39b758eb","","383","
                <div class=""stimulus-container"">
                    <img src=""images/semantic_sequence/housework_semantic/housework_semantic_ten.png"" class=""exp-image"">
                    <div class=""question-area"">
                        <p style=""font-size: 20px; font-weight: bold; margin: 0;"">Is there a person in this image?</p>
                    </div>
                </div>","0","main_experiment_trial","ten","housework_semantic","semantic_sequence","randomized","","","","",""
"","","","","","html-keyboard-response","142","264247","0.0-142.0","4BF1E35C2E8249119E561F2AC9E8EF0B","019cf9c4-5ab6-7a40-8623-b2b742261725","019cf99d-e445-78ae-88d0-91fe39b758eb","","null","<div style=""background-color: white; width: 100vw; height: 100vh;""></div>","null","","","","","","","","","",""
"","","","","","html-keyboard-response","143","265250","0.0-143.0","4BF1E35C2E8249119E561F2AC9E8EF0B","019cf9c4-5ab6-7a40-8623-b2b742261725","019cf99d-e445-78ae-88d0-91fe39b758eb","","null","
                <div class=""stimulus-container"">
                    <img src=""images/causal_sequence/the_performance_causal/the_performance_causal_4.png"" class=""exp-image"">
                    <div class=""question-area""></div> 
                </div>","null","","","","","","","","","",""
"","","","","","html-button-response","144","265848","0.0-144.0","4BF1E35C2E8249119E561F2AC9E8EF0B","019cf9c4-5ab6-7a40-8623-b2b742261725","019cf99d-e445-78ae-88d0-91fe39b758eb","","597","
                <div class=""stimulus-container"">
                    <img src=""images/causal_sequence/the_performance_causal/the_performance_causal_4.png"" class=""exp-image"">
                    <div class=""question-area"">
                        <p style=""font-size: 20px; font-weight: bold; margin: 0;"">Is there a person in this image?</p>
                    </div>
                </div>","0","main_experiment_trial","4","the_performance_causal","causal_sequence","randomized","","","","",""
"","","","","","html-keyboard-response","145","266850","0.0-145.0","4BF1E35C2E8249119E561F2AC9E8EF0B","019cf9c4-5ab6-7a40-8623-b2b742261725","019cf99d-e445-78ae-88d0-91fe39b758eb","","null","
                <div class=""stimulus-container"">
                    <img src=""images/causal_sequence/the_performance_causal/the_performance_causal_2.png"" class=""exp-image"">
                    <div class=""question-area""></div> 
                </div>","null","","","","","","","","","",""
"","","","","","html-button-response","146","267274","0.0-146.0","4BF1E35C2E8249119E561F2AC9E8EF0B","019cf9c4-5ab6-7a40-8623-b2b742261725","019cf99d-e445-78ae-88d0-91fe39b758eb","","421","
                <div class=""stimulus-container"">
                    <img src=""images/causal_sequence/the_performance_causal/the_performance_causal_2.png"" class=""exp-image"">
                    <div class=""question-area"">
                        <p style=""font-size: 20px; font-weight: bold; margin: 0;"">Is there a person in this image?</p>
                    </div>
                </div>","0","main_experiment_trial","2","the_performance_causal","causal_sequence","randomized","","","","",""
"","","","","","html-keyboard-response","147","268277","0.0-147.0","4BF1E35C2E8249119E561F2AC9E8EF0B","019cf9c4-5ab6-7a40-8623-b2b742261725","019cf99d-e445-78ae-88d0-91fe39b758eb","","null","
                <div class=""stimulus-container"">
                    <img src=""images/causal_sequence/the_performance_causal/the_performance_causal_3.png"" class=""exp-image"">
                    <div class=""question-area""></div> 
                </div>","null","","","","","","","","","",""
"","","","","","html-button-response","148","268679","0.0-148.0","4BF1E35C2E8249119E561F2AC9E8EF0B","019cf9c4-5ab6-7a40-8623-b2b742261725","019cf99d-e445-78ae-88d0-91fe39b758eb","","400","
                <div class=""stimulus-container"">
                    <img src=""images/causal_sequence/the_performance_causal/the_performance_causal_3.png"" class=""exp-image"">
                    <div class=""question-area"">
                        <p style=""font-size: 20px; font-weight: bold; margin: 0;"">Is there a person in this image?</p>
                    </div>
                </div>","0","main_experiment_trial","3","the_performance_causal","causal_sequence","randomized","","","","",""
"","","","","","html-keyboard-response","149","269690","0.0-149.0","4BF1E35C2E8249119E561F2AC9E8EF0B","019cf9c4-5ab6-7a40-8623-b2b742261725","019cf99d-e445-78ae-88d0-91fe39b758eb","","null","
                <div class=""stimulus-container"">
                    <img src=""images/causal_sequence/the_performance_causal/the_performance_causal_1.png"" class=""exp-image"">
                    <div class=""question-area""></div> 
                </div>","null","","","","","","","","","",""
"","","","","","html-button-response","150","270082","0.0-150.0","4BF1E35C2E8249119E561F2AC9E8EF0B","019cf9c4-5ab6-7a40-8623-b2b742261725","019cf99d-e445-78ae-88d0-91fe39b758eb","","390","
                <div class=""stimulus-container"">
                    <img src=""images/causal_sequence/the_performance_causal/the_performance_causal_1.png"" class=""exp-image"">
                    <div class=""question-area"">
                        <p style=""font-size: 20px; font-weight: bold; margin: 0;"">Is there a person in this image?</p>
                    </div>
                </div>","0","main_experiment_trial","1","the_performance_causal","causal_sequence","randomized","","","","",""
"","","","","","html-keyboard-response","151","271090","0.0-151.0","4BF1E35C2E8249119E561F2AC9E8EF0B","019cf9c4-5ab6-7a40-8623-b2b742261725","019cf99d-e445-78ae-88d0-91fe39b758eb","","null","
                <div class=""stimulus-container"">
                    <img src=""images/causal_sequence/the_performance_causal/the_performance_causal_ten.png"" class=""exp-image"">
                    <div class=""question-area""></div> 
                </div>","null","","","","","","","","","",""
"","","","","","html-button-response","152","271453","0.0-152.0","4BF1E35C2E8249119E561F2AC9E8EF0B","019cf9c4-5ab6-7a40-8623-b2b742261725","019cf99d-e445-78ae-88d0-91fe39b758eb","","361","
                <div class=""stimulus-container"">
                    <img src=""images/causal_sequence/the_performance_causal/the_performance_causal_ten.png"" class=""exp-image"">
                    <div class=""question-area"">
                        <p style=""font-size: 20px; font-weight: bold; margin: 0;"">Is there a person in this image?</p>
                    </div>
                </div>","0","main_experiment_trial","ten","the_performance_causal","causal_sequence","randomized","","","","",""
"","","","","","html-keyboard-response","153","272466","0.0-153.0","4BF1E35C2E8249119E561F2AC9E8EF0B","019cf9c4-5ab6-7a40-8623-b2b742261725","019cf99d-e445-78ae-88d0-91fe39b758eb","","null","
                <div class=""stimulus-container"">
                    <img src=""images/causal_sequence/the_performance_causal/the_performance_causal_5.png"" class=""exp-image"">
                    <div class=""question-area""></div> 
                </div>","null","","","","","","","","","",""
"","","","","","html-button-response","154","273010","0.0-154.0","4BF1E35C2E8249119E561F2AC9E8EF0B","019cf9c4-5ab6-7a40-8623-b2b742261725","019cf99d-e445-78ae-88d0-91fe39b758eb","","543","
                <div class=""stimulus-container"">
                    <img src=""images/causal_sequence/the_performance_causal/the_performance_causal_5.png"" class=""exp-image"">
                    <div class=""question-area"">
                        <p style=""font-size: 20px; font-weight: bold; margin: 0;"">Is there a person in this image?</p>
                    </div>
                </div>","0","main_experiment_trial","5","the_performance_causal","causal_sequence","randomized","","","","",""
"","","","","","html-keyboard-response","155","274019","0.0-155.0","4BF1E35C2E8249119E561F2AC9E8EF0B","019cf9c4-5ab6-7a40-8623-b2b742261725","019cf99d-e445-78ae-88d0-91fe39b758eb","","null","
                <div class=""stimulus-container"">
                    <img src=""images/causal_sequence/the_performance_causal/the_performance_causal_6.png"" class=""exp-image"">
                    <div class=""question-area""></div> 
                </div>","null","","","","","","","","","",""
"","","","","","html-button-response","156","274438","0.0-156.0","4BF1E35C2E8249119E561F2AC9E8EF0B","019cf9c4-5ab6-7a40-8623-b2b742261725","019cf99d-e445-78ae-88d0-91fe39b758eb","","418","
                <div class=""stimulus-container"">
                    <img src=""images/causal_sequence/the_performance_causal/the_performance_causal_6.png"" class=""exp-image"">
                    <div class=""question-area"">
                        <p style=""font-size: 20px; font-weight: bold; margin: 0;"">Is there a person in this image?</p>
                    </div>
                </div>","0","main_experiment_trial","6","the_performance_causal","causal_sequence","randomized","","","","",""
"","","","","","html-keyboard-response","157","275442","0.0-157.0","4BF1E35C2E8249119E561F2AC9E8EF0B","019cf9c4-5ab6-7a40-8623-b2b742261725","019cf99d-e445-78ae-88d0-91fe39b758eb","","null","
                <div class=""stimulus-container"">
                    <img src=""images/causal_sequence/the_performance_causal/the_performance_causal_7.png"" class=""exp-image"">
                    <div class=""question-area""></div> 
                </div>","null","","","","","","","","","",""
"","","","","","html-button-response","158","275992","0.0-158.0","4BF1E35C2E8249119E561F2AC9E8EF0B","019cf9c4-5ab6-7a40-8623-b2b742261725","019cf99d-e445-78ae-88d0-91fe39b758eb","","549","
                <div class=""stimulus-container"">
                    <img src=""images/causal_sequence/the_performance_causal/the_performance_causal_7.png"" class=""exp-image"">
                    <div class=""question-area"">
                        <p style=""font-size: 20px; font-weight: bold; margin: 0;"">Is there a person in this image?</p>
                    </div>
                </div>","0","main_experiment_trial","7","the_performance_causal","causal_sequence","randomized","","","","",""
"","","","","","html-keyboard-response","159","276993","0.0-159.0","4BF1E35C2E8249119E561F2AC9E8EF0B","019cf9c4-5ab6-7a40-8623-b2b742261725","019cf99d-e445-78ae-88d0-91fe39b758eb","","null","
                <div class=""stimulus-container"">
                    <img src=""images/causal_sequence/the_performance_causal/the_performance_causal_9.png"" class=""exp-image"">
                    <div class=""question-area""></div> 
                </div>","null","","","","","","","","","",""
"","","","","","html-button-response","160","280008","0.0-160.0","4BF1E35C2E8249119E561F2AC9E8EF0B","019cf9c4-5ab6-7a40-8623-b2b742261725","019cf99d-e445-78ae-88d0-91fe39b758eb","","null","
                <div class=""stimulus-container"">
                    <img src=""images/causal_sequence/the_performance_causal/the_performance_causal_9.png"" class=""exp-image"">
                    <div class=""question-area"">
                        <p style=""font-size: 20px; font-weight: bold; margin: 0;"">Is there a person in this image?</p>
                    </div>
                </div>","null","main_experiment_trial","9","the_performance_causal","causal_sequence","randomized","","","","",""
"","","","","","html-keyboard-response","161","281014","0.0-161.0","4BF1E35C2E8249119E561F2AC9E8EF0B","019cf9c4-5ab6-7a40-8623-b2b742261725","019cf99d-e445-78ae-88d0-91fe39b758eb","","null","
                <div class=""stimulus-container"">
                    <img src=""images/causal_sequence/the_performance_causal/the_performance_causal_8.png"" class=""exp-image"">
                    <div class=""question-area""></div> 
                </div>","null","","","","","","","","","",""
"","","","","","html-button-response","162","281484","0.0-162.0","4BF1E35C2E8249119E561F2AC9E8EF0B","019cf9c4-5ab6-7a40-8623-b2b742261725","019cf99d-e445-78ae-88d0-91fe39b758eb","","469","
                <div class=""stimulus-container"">
                    <img src=""images/causal_sequence/the_performance_causal/the_performance_causal_8.png"" class=""exp-image"">
                    <div class=""question-area"">
                        <p style=""font-size: 20px; font-weight: bold; margin: 0;"">Is there a person in this image?</p>
                    </div>
                </div>","0","main_experiment_trial","8","the_performance_causal","causal_sequence","randomized","","","","",""
"","","","","","html-keyboard-response","163","286495","0.0-163.0","4BF1E35C2E8249119E561F2AC9E8EF0B","019cf9c4-5ab6-7a40-8623-b2b742261725","019cf99d-e445-78ae-88d0-91fe39b758eb","","null","<div style=""background-color: white; width: 100vw; height: 100vh;""></div>","null","","","","","","","","","",""
"","","","","","html-keyboard-response","164","287505","0.0-164.0","4BF1E35C2E8249119E561F2AC9E8EF0B","019cf9c4-5ab6-7a40-8623-b2b742261725","019cf99d-e445-78ae-88d0-91fe39b758eb","","null","
                <div class=""stimulus-container"">
                    <img src=""images/semantic_sequence/physical_activity_semantic/physical_activity_semantic_3.png"" class=""exp-image"">
                    <div class=""question-area""></div> 
                </div>","null","","","","","","","","","",""
"","","","","","html-button-response","165","287894","0.0-165.0","4BF1E35C2E8249119E561F2AC9E8EF0B","019cf9c4-5ab6-7a40-8623-b2b742261725","019cf99d-e445-78ae-88d0-91fe39b758eb","","389","
                <div class=""stimulus-container"">
                    <img src=""images/semantic_sequence/physical_activity_semantic/physical_activity_semantic_3.png"" class=""exp-image"">
                    <div class=""question-area"">
                        <p style=""font-size: 20px; font-weight: bold; margin: 0;"">Is there a person in this image?</p>
                    </div>
                </div>","0","main_experiment_trial","3","physical_activity_semantic","semantic_sequence","randomized","","","","",""
"","","","","","html-keyboard-response","166","288904","0.0-166.0","4BF1E35C2E8249119E561F2AC9E8EF0B","019cf9c4-5ab6-7a40-8623-b2b742261725","019cf99d-e445-78ae-88d0-91fe39b758eb","","null","
                <div class=""stimulus-container"">
                    <img src=""images/semantic_sequence/physical_activity_semantic/physical_activity_semantic_9.png"" class=""exp-image"">
                    <div class=""question-area""></div> 
                </div>","null","","","","","","","","","",""
"","","","","","html-button-response","167","289266","0.0-167.0","4BF1E35C2E8249119E561F2AC9E8EF0B","019cf9c4-5ab6-7a40-8623-b2b742261725","019cf99d-e445-78ae-88d0-91fe39b758eb","","361","
                <div class=""stimulus-container"">
                    <img src=""images/semantic_sequence/physical_activity_semantic/physical_activity_semantic_9.png"" class=""exp-image"">
                    <div class=""question-area"">
                        <p style=""font-size: 20px; font-weight: bold; margin: 0;"">Is there a person in this image?</p>
                    </div>
                </div>","0","main_experiment_trial","9","physical_activity_semantic","semantic_sequence","randomized","","","","",""
"","","","","","html-keyboard-response","168","290269","0.0-168.0","4BF1E35C2E8249119E561F2AC9E8EF0B","019cf9c4-5ab6-7a40-8623-b2b742261725","019cf99d-e445-78ae-88d0-91fe39b758eb","","null","
                <div class=""stimulus-container"">
                    <img src=""images/semantic_sequence/physical_activity_semantic/physical_activity_semantic_8.png"" class=""exp-image"">
                    <div class=""question-area""></div> 
                </div>","null","","","","","","","","","",""
"","","","","","html-button-response","169","290695","0.0-169.0","4BF1E35C2E8249119E561F2AC9E8EF0B","019cf9c4-5ab6-7a40-8623-b2b742261725","019cf99d-e445-78ae-88d0-91fe39b758eb","","425","
                <div class=""stimulus-container"">
                    <img src=""images/semantic_sequence/physical_activity_semantic/physical_activity_semantic_8.png"" class=""exp-image"">
                    <div class=""question-area"">
                        <p style=""font-size: 20px; font-weight: bold; margin: 0;"">Is there a person in this image?</p>
                    </div>
                </div>","0","main_experiment_trial","8","physical_activity_semantic","semantic_sequence","randomized","","","","",""
"","","","","","html-keyboard-response","170","291710","0.0-170.0","4BF1E35C2E8249119E561F2AC9E8EF0B","019cf9c4-5ab6-7a40-8623-b2b742261725","019cf99d-e445-78ae-88d0-91fe39b758eb","","null","
                <div class=""stimulus-container"">
                    <img src=""images/semantic_sequence/physical_activity_semantic/physical_activity_semantic_7.png"" class=""exp-image"">
                    <div class=""question-area""></div> 
                </div>","null","","","","","","","","","",""
"","","","","","html-button-response","171","292120","0.0-171.0","4BF1E35C2E8249119E561F2AC9E8EF0B","019cf9c4-5ab6-7a40-8623-b2b742261725","019cf99d-e445-78ae-88d0-91fe39b758eb","","408","
                <div class=""stimulus-container"">
                    <img src=""images/semantic_sequence/physical_activity_semantic/physical_activity_semantic_7.png"" class=""exp-image"">
                    <div class=""question-area"">
                        <p style=""font-size: 20px; font-weight: bold; margin: 0;"">Is there a person in this image?</p>
                    </div>
                </div>","0","main_experiment_trial","7","physical_activity_semantic","semantic_sequence","randomized","","","","",""
"","","","","","html-keyboard-response","172","293124","0.0-172.0","4BF1E35C2E8249119E561F2AC9E8EF0B","019cf9c4-5ab6-7a40-8623-b2b742261725","019cf99d-e445-78ae-88d0-91fe39b758eb","","null","
                <div class=""stimulus-container"">
                    <img src=""images/semantic_sequence/physical_activity_semantic/physical_activity_semantic_4.png"" class=""exp-image"">
                    <div class=""question-area""></div> 
                </div>","null","","","","","","","","","",""
"","","","","","html-button-response","173","293508","0.0-173.0","4BF1E35C2E8249119E561F2AC9E8EF0B","019cf9c4-5ab6-7a40-8623-b2b742261725","019cf99d-e445-78ae-88d0-91fe39b758eb","","383","
                <div class=""stimulus-container"">
                    <img src=""images/semantic_sequence/physical_activity_semantic/physical_activity_semantic_4.png"" class=""exp-image"">
                    <div class=""question-area"">
                        <p style=""font-size: 20px; font-weight: bold; margin: 0;"">Is there a person in this image?</p>
                    </div>
                </div>","0","main_experiment_trial","4","physical_activity_semantic","semantic_sequence","randomized","","","","",""
"","","","","","html-keyboard-response","174","294523","0.0-174.0","4BF1E35C2E8249119E561F2AC9E8EF0B","019cf9c4-5ab6-7a40-8623-b2b742261725","019cf99d-e445-78ae-88d0-91fe39b758eb","","null","
                <div class=""stimulus-container"">
                    <img src=""images/semantic_sequence/physical_activity_semantic/physical_activity_semantic_5.png"" class=""exp-image"">
                    <div class=""question-area""></div> 
                </div>","null","","","","","","","","","",""
"","","","","","html-button-response","175","294876","0.0-175.0","4BF1E35C2E8249119E561F2AC9E8EF0B","019cf9c4-5ab6-7a40-8623-b2b742261725","019cf99d-e445-78ae-88d0-91fe39b758eb","","353","
                <div class=""stimulus-container"">
                    <img src=""images/semantic_sequence/physical_activity_semantic/physical_activity_semantic_5.png"" class=""exp-image"">
                    <div class=""question-area"">
                        <p style=""font-size: 20px; font-weight: bold; margin: 0;"">Is there a person in this image?</p>
                    </div>
                </div>","0","main_experiment_trial","5","physical_activity_semantic","semantic_sequence","randomized","","","","",""
"","","","","","html-keyboard-response","176","295891","0.0-176.0","4BF1E35C2E8249119E561F2AC9E8EF0B","019cf9c4-5ab6-7a40-8623-b2b742261725","019cf99d-e445-78ae-88d0-91fe39b758eb","","null","
                <div class=""stimulus-container"">
                    <img src=""images/semantic_sequence/physical_activity_semantic/physical_activity_semantic_ten.png"" class=""exp-image"">
                    <div class=""question-area""></div> 
                </div>","null","","","","","","","","","",""
"","","","","","html-button-response","177","296245","0.0-177.0","4BF1E35C2E8249119E561F2AC9E8EF0B","019cf9c4-5ab6-7a40-8623-b2b742261725","019cf99d-e445-78ae-88d0-91fe39b758eb","","352","
                <div class=""stimulus-container"">
                    <img src=""images/semantic_sequence/physical_activity_semantic/physical_activity_semantic_ten.png"" class=""exp-image"">
                    <div class=""question-area"">
                        <p style=""font-size: 20px; font-weight: bold; margin: 0;"">Is there a person in this image?</p>
                    </div>
                </div>","0","main_experiment_trial","ten","physical_activity_semantic","semantic_sequence","randomized","","","","",""
"","","","","","html-keyboard-response","178","297247","0.0-178.0","4BF1E35C2E8249119E561F2AC9E8EF0B","019cf9c4-5ab6-7a40-8623-b2b742261725","019cf99d-e445-78ae-88d0-91fe39b758eb","","null","
                <div class=""stimulus-container"">
                    <img src=""images/semantic_sequence/physical_activity_semantic/physical_activity_semantic_1.png"" class=""exp-image"">
                    <div class=""question-area""></div> 
                </div>","null","","","","","","","","","",""
"","","","","","html-button-response","179","297711","0.0-179.0","4BF1E35C2E8249119E561F2AC9E8EF0B","019cf9c4-5ab6-7a40-8623-b2b742261725","019cf99d-e445-78ae-88d0-91fe39b758eb","","463","
                <div class=""stimulus-container"">
                    <img src=""images/semantic_sequence/physical_activity_semantic/physical_activity_semantic_1.png"" class=""exp-image"">
                    <div class=""question-area"">
                        <p style=""font-size: 20px; font-weight: bold; margin: 0;"">Is there a person in this image?</p>
