"success","timeout","failed_images","failed_audio","failed_video","trial_type","trial_index","time_elapsed","internal_node_id","subject_id","study_id","session_id","view_history","rt","stimulus","response","task","image_index","folder","sequence_type","valuable_image_index","reward_type","chosen_image_index","correct_choice"
"true","false","[]","[]","[]","preload","0","21962","0.0-0.0","B1E5B1C0D84F47DA87E7E07D8A287A76","019cefaf-fd22-73b2-83ab-e83e211f7609","019cef87-c56d-7b55-9135-c5814367ec25","","","","","","","","","","","",""
"","","","","","instructions","1","24587","0.0-1.0","B1E5B1C0D84F47DA87E7E07D8A287A76","019cefaf-fd22-73b2-83ab-e83e211f7609","019cef87-c56d-7b55-9135-c5814367ec25","[{""page_index"":0,""viewing_time"":2624}]","2624","","","","","","","","","",""
"","","","","","instructions","2","28719","0.0-2.0","B1E5B1C0D84F47DA87E7E07D8A287A76","019cefaf-fd22-73b2-83ab-e83e211f7609","019cef87-c56d-7b55-9135-c5814367ec25","[{""page_index"":0,""viewing_time"":4131}]","4131","","","","","","","","","",""
"true","","","","","fullscreen","3","31271","0.0-3.0","B1E5B1C0D84F47DA87E7E07D8A287A76","019cefaf-fd22-73b2-83ab-e83e211f7609","019cef87-c56d-7b55-9135-c5814367ec25","","1549","","","","","","","","","",""
"","","","","","instructions","4","36353","0.0-4.0","B1E5B1C0D84F47DA87E7E07D8A287A76","019cefaf-fd22-73b2-83ab-e83e211f7609","019cef87-c56d-7b55-9135-c5814367ec25","[{""page_index"":0,""viewing_time"":5081}]","5081","","","","","","","","","",""
"","","","","","instructions","5","44269","0.0-5.0","B1E5B1C0D84F47DA87E7E07D8A287A76","019cefaf-fd22-73b2-83ab-e83e211f7609","019cef87-c56d-7b55-9135-c5814367ec25","[{""page_index"":0,""viewing_time"":7916}]","7916","","","","","","","","","",""
"","","","","","html-keyboard-response","6","48272","0.0-6.0","B1E5B1C0D84F47DA87E7E07D8A287A76","019cefaf-fd22-73b2-83ab-e83e211f7609","019cef87-c56d-7b55-9135-c5814367ec25","","null","
                <div class=""stimulus-container"">
                    <img src=""images/instructions/movie_1.png"" class=""exp-image"">
                    <div class=""question-area""></div> 
                </div>","null","","","","","","","",""
"","","","","","html-button-response","7","49886","0.0-7.0","B1E5B1C0D84F47DA87E7E07D8A287A76","019cefaf-fd22-73b2-83ab-e83e211f7609","019cef87-c56d-7b55-9135-c5814367ec25","","1612","
                <div class=""stimulus-container"">
                    <img src=""images/instructions/movie_1.png"" class=""exp-image"">
                    <div class=""question-area"">
                        <p style=""font-size: 20px; font-weight: bold; margin: 0;"">Was there a person in this image?</p>
                    </div>
                </div>","0","example_question","1","","","","","",""
"","","","","","html-keyboard-response","8","53890","0.0-8.0","B1E5B1C0D84F47DA87E7E07D8A287A76","019cefaf-fd22-73b2-83ab-e83e211f7609","019cef87-c56d-7b55-9135-c5814367ec25","","null","
                <div class=""stimulus-container"">
                    <img src=""images/instructions/movie_2.png"" class=""exp-image"">
                    <div class=""question-area""></div> 
                </div>","null","","","","","","","",""
"","","","","","html-button-response","9","54386","0.0-9.0","B1E5B1C0D84F47DA87E7E07D8A287A76","019cefaf-fd22-73b2-83ab-e83e211f7609","019cef87-c56d-7b55-9135-c5814367ec25","","495","
                <div class=""stimulus-container"">
                    <img src=""images/instructions/movie_2.png"" class=""exp-image"">
                    <div class=""question-area"">
                        <p style=""font-size: 20px; font-weight: bold; margin: 0;"">Was there a person in this image?</p>
                    </div>
                </div>","0","example_question","2","","","","","",""
"","","","","","html-keyboard-response","10","58387","0.0-10.0","B1E5B1C0D84F47DA87E7E07D8A287A76","019cefaf-fd22-73b2-83ab-e83e211f7609","019cef87-c56d-7b55-9135-c5814367ec25","","null","
                <div class=""stimulus-container"">
                    <img src=""images/instructions/movie_3.png"" class=""exp-image"">
                    <div class=""question-area""></div> 
                </div>","null","","","","","","","",""
"","","","","","html-button-response","11","58836","0.0-11.0","B1E5B1C0D84F47DA87E7E07D8A287A76","019cefaf-fd22-73b2-83ab-e83e211f7609","019cef87-c56d-7b55-9135-c5814367ec25","","448","
                <div class=""stimulus-container"">
                    <img src=""images/instructions/movie_3.png"" class=""exp-image"">
                    <div class=""question-area"">
                        <p style=""font-size: 20px; font-weight: bold; margin: 0;"">Was there a person in this image?</p>
                    </div>
                </div>","0","example_question","3","","","","","",""
"","","","","","html-keyboard-response","12","62839","0.0-12.0","B1E5B1C0D84F47DA87E7E07D8A287A76","019cefaf-fd22-73b2-83ab-e83e211f7609","019cef87-c56d-7b55-9135-c5814367ec25","","null","
                <div class=""stimulus-container"">
                    <img src=""images/instructions/movie_4.png"" class=""exp-image"">
                    <div class=""question-area""></div> 
                </div>","null","","","","","","","",""
"","","","","","html-button-response","13","63319","0.0-13.0","B1E5B1C0D84F47DA87E7E07D8A287A76","019cefaf-fd22-73b2-83ab-e83e211f7609","019cef87-c56d-7b55-9135-c5814367ec25","","480","
                <div class=""stimulus-container"">
                    <img src=""images/instructions/movie_4.png"" class=""exp-image"">
                    <div class=""question-area"">
                        <p style=""font-size: 20px; font-weight: bold; margin: 0;"">Was there a person in this image?</p>
                    </div>
                </div>","0","example_question","4","","","","","",""
"","","","","","instructions","14","64852","0.0-14.0","B1E5B1C0D84F47DA87E7E07D8A287A76","019cefaf-fd22-73b2-83ab-e83e211f7609","019cef87-c56d-7b55-9135-c5814367ec25","[{""page_index"":0,""viewing_time"":1532}]","1532","","","","","","","","","",""
"","","","","","instructions","15","85353","0.0-15.0","B1E5B1C0D84F47DA87E7E07D8A287A76","019cefaf-fd22-73b2-83ab-e83e211f7609","019cef87-c56d-7b55-9135-c5814367ec25","[{""page_index"":0,""viewing_time"":20500}]","20500","","","","","","","","","",""
"","","","","","html-keyboard-response","16","86355","0.0-16.0","B1E5B1C0D84F47DA87E7E07D8A287A76","019cefaf-fd22-73b2-83ab-e83e211f7609","019cef87-c56d-7b55-9135-c5814367ec25","","null","<div style=""background-color: white; width: 100vw; height: 100vh;""></div>","null","","","","","","","",""
"","","","","","html-keyboard-response","17","91358","0.0-17.0","B1E5B1C0D84F47DA87E7E07D8A287A76","019cefaf-fd22-73b2-83ab-e83e211f7609","019cef87-c56d-7b55-9135-c5814367ec25","","null","
                <div class=""stimulus-container"">
                    <img src=""images/schematic_sequence/restaurant_scheme/restaurant_scheme_1.png"" class=""exp-image"">
                    <div class=""question-area""></div> 
                </div>","null","","","","","","","",""
"","","","","","html-button-response","18","93135","0.0-18.0","B1E5B1C0D84F47DA87E7E07D8A287A76","019cefaf-fd22-73b2-83ab-e83e211f7609","019cef87-c56d-7b55-9135-c5814367ec25","","1776","
                <div class=""stimulus-container"">
                    <img src=""images/schematic_sequence/restaurant_scheme/restaurant_scheme_1.png"" class=""exp-image"">
                    <div class=""question-area"">
                        <p style=""font-size: 20px; font-weight: bold; margin: 0;"">Is there a person in this image?</p>
                    </div>
                </div>","0","main_experiment_trial","1","restaurant_scheme","schematic_sequence","","","",""
"","","","","","html-keyboard-response","19","98136","0.0-19.0","B1E5B1C0D84F47DA87E7E07D8A287A76","019cefaf-fd22-73b2-83ab-e83e211f7609","019cef87-c56d-7b55-9135-c5814367ec25","","null","
                <div class=""stimulus-container"">
                    <img src=""images/schematic_sequence/restaurant_scheme/restaurant_scheme_2.png"" class=""exp-image"">
                    <div class=""question-area""></div> 
                </div>","null","","","","","","","",""
"","","","","","html-button-response","20","98635","0.0-20.0","B1E5B1C0D84F47DA87E7E07D8A287A76","019cefaf-fd22-73b2-83ab-e83e211f7609","019cef87-c56d-7b55-9135-c5814367ec25","","498","
                <div class=""stimulus-container"">
                    <img src=""images/schematic_sequence/restaurant_scheme/restaurant_scheme_2.png"" class=""exp-image"">
                    <div class=""question-area"">
                        <p style=""font-size: 20px; font-weight: bold; margin: 0;"">Is there a person in this image?</p>
                    </div>
                </div>","1","main_experiment_trial","2","restaurant_scheme","schematic_sequence","","","",""
"","","","","","html-keyboard-response","21","103638","0.0-21.0","B1E5B1C0D84F47DA87E7E07D8A287A76","019cefaf-fd22-73b2-83ab-e83e211f7609","019cef87-c56d-7b55-9135-c5814367ec25","","null","
                <div class=""stimulus-container"">
                    <img src=""images/schematic_sequence/restaurant_scheme/restaurant_scheme_3.png"" class=""exp-image"">
                    <div class=""question-area""></div> 
                </div>","null","","","","","","","",""
"","","","","","html-button-response","22","105052","0.0-22.0","B1E5B1C0D84F47DA87E7E07D8A287A76","019cefaf-fd22-73b2-83ab-e83e211f7609","019cef87-c56d-7b55-9135-c5814367ec25","","1413","
                <div class=""stimulus-container"">
                    <img src=""images/schematic_sequence/restaurant_scheme/restaurant_scheme_3.png"" class=""exp-image"">
                    <div class=""question-area"">
                        <p style=""font-size: 20px; font-weight: bold; margin: 0;"">Is there a person in this image?</p>
                    </div>
                </div>","1","main_experiment_trial","3","restaurant_scheme","schematic_sequence","","","",""
"","","","","","html-keyboard-response","23","110053","0.0-23.0","B1E5B1C0D84F47DA87E7E07D8A287A76","019cefaf-fd22-73b2-83ab-e83e211f7609","019cef87-c56d-7b55-9135-c5814367ec25","","null","
                <div class=""stimulus-container"">
                    <img src=""images/schematic_sequence/restaurant_scheme/restaurant_scheme_4.png"" class=""exp-image"">
                    <div class=""question-area""></div> 
                </div>","null","","","","","","","",""
"","","","","","html-button-response","24","110652","0.0-24.0","B1E5B1C0D84F47DA87E7E07D8A287A76","019cefaf-fd22-73b2-83ab-e83e211f7609","019cef87-c56d-7b55-9135-c5814367ec25","","599","
                <div class=""stimulus-container"">
                    <img src=""images/schematic_sequence/restaurant_scheme/restaurant_scheme_4.png"" class=""exp-image"">
                    <div class=""question-area"">
                        <p style=""font-size: 20px; font-weight: bold; margin: 0;"">Is there a person in this image?</p>
                    </div>
                </div>","0","main_experiment_trial","4","restaurant_scheme","schematic_sequence","","","",""
"","","","","","html-keyboard-response","25","115655","0.0-25.0","B1E5B1C0D84F47DA87E7E07D8A287A76","019cefaf-fd22-73b2-83ab-e83e211f7609","019cef87-c56d-7b55-9135-c5814367ec25","","null","
                <div class=""stimulus-container"">
                    <img src=""images/schematic_sequence/restaurant_scheme/restaurant_scheme_5.png"" class=""exp-image"">
                    <div class=""question-area""></div> 
                </div>","null","","","","","","","",""
"","","","","","html-button-response","26","116836","0.0-26.0","B1E5B1C0D84F47DA87E7E07D8A287A76","019cefaf-fd22-73b2-83ab-e83e211f7609","019cef87-c56d-7b55-9135-c5814367ec25","","1180","
                <div class=""stimulus-container"">
                    <img src=""images/schematic_sequence/restaurant_scheme/restaurant_scheme_5.png"" class=""exp-image"">
                    <div class=""question-area"">
                        <p style=""font-size: 20px; font-weight: bold; margin: 0;"">Is there a person in this image?</p>
                    </div>
                </div>","0","main_experiment_trial","5","restaurant_scheme","schematic_sequence","","","",""
"","","","","","html-keyboard-response","27","121839","0.0-27.0","B1E5B1C0D84F47DA87E7E07D8A287A76","019cefaf-fd22-73b2-83ab-e83e211f7609","019cef87-c56d-7b55-9135-c5814367ec25","","null","
                <div class=""stimulus-container"">
                    <img src=""images/schematic_sequence/restaurant_scheme/restaurant_scheme_6.png"" class=""exp-image"">
                    <div class=""question-area""></div> 
                </div>","null","","","","","","","",""
"","","","","","html-button-response","28","123118","0.0-28.0","B1E5B1C0D84F47DA87E7E07D8A287A76","019cefaf-fd22-73b2-83ab-e83e211f7609","019cef87-c56d-7b55-9135-c5814367ec25","","1279","
                <div class=""stimulus-container"">
                    <img src=""images/schematic_sequence/restaurant_scheme/restaurant_scheme_6.png"" class=""exp-image"">
                    <div class=""question-area"">
                        <p style=""font-size: 20px; font-weight: bold; margin: 0;"">Is there a person in this image?</p>
                    </div>
                </div>","1","main_experiment_trial","6","restaurant_scheme","schematic_sequence","","","",""
"","","","","","html-keyboard-response","29","128120","0.0-29.0","B1E5B1C0D84F47DA87E7E07D8A287A76","019cefaf-fd22-73b2-83ab-e83e211f7609","019cef87-c56d-7b55-9135-c5814367ec25","","null","
                <div class=""stimulus-container"">
                    <img src=""images/schematic_sequence/restaurant_scheme/restaurant_scheme_7.png"" class=""exp-image"">
                    <div class=""question-area""></div> 
                </div>","null","","","","","","","",""
"","","","","","html-button-response","30","128819","0.0-30.0","B1E5B1C0D84F47DA87E7E07D8A287A76","019cefaf-fd22-73b2-83ab-e83e211f7609","019cef87-c56d-7b55-9135-c5814367ec25","","698","
                <div class=""stimulus-container"">
                    <img src=""images/schematic_sequence/restaurant_scheme/restaurant_scheme_7.png"" class=""exp-image"">
                    <div class=""question-area"">
                        <p style=""font-size: 20px; font-weight: bold; margin: 0;"">Is there a person in this image?</p>
                    </div>
                </div>","1","main_experiment_trial","7","restaurant_scheme","schematic_sequence","","","",""
"","","","","","html-keyboard-response","31","133820","0.0-31.0","B1E5B1C0D84F47DA87E7E07D8A287A76","019cefaf-fd22-73b2-83ab-e83e211f7609","019cef87-c56d-7b55-9135-c5814367ec25","","null","
                <div class=""stimulus-container"">
                    <img src=""images/schematic_sequence/restaurant_scheme/restaurant_scheme_8.png"" class=""exp-image"">
                    <div class=""question-area""></div> 
                </div>","null","","","","","","","",""
"","","","","","html-button-response","32","135552","0.0-32.0","B1E5B1C0D84F47DA87E7E07D8A287A76","019cefaf-fd22-73b2-83ab-e83e211f7609","019cef87-c56d-7b55-9135-c5814367ec25","","1731","
                <div class=""stimulus-container"">
                    <img src=""images/schematic_sequence/restaurant_scheme/restaurant_scheme_8.png"" class=""exp-image"">
                    <div class=""question-area"">
                        <p style=""font-size: 20px; font-weight: bold; margin: 0;"">Is there a person in this image?</p>
                    </div>
                </div>","0","main_experiment_trial","8","restaurant_scheme","schematic_sequence","","","",""
"","","","","","html-keyboard-response","33","140553","0.0-33.0","B1E5B1C0D84F47DA87E7E07D8A287A76","019cefaf-fd22-73b2-83ab-e83e211f7609","019cef87-c56d-7b55-9135-c5814367ec25","","null","
                <div class=""stimulus-container"">
                    <img src=""images/schematic_sequence/restaurant_scheme/restaurant_scheme_9.png"" class=""exp-image"">
                    <div class=""question-area""></div> 
                </div>","null","","","","","","","",""
"","","","","","html-button-response","34","141118","0.0-34.0","B1E5B1C0D84F47DA87E7E07D8A287A76","019cefaf-fd22-73b2-83ab-e83e211f7609","019cef87-c56d-7b55-9135-c5814367ec25","","564","
                <div class=""stimulus-container"">
                    <img src=""images/schematic_sequence/restaurant_scheme/restaurant_scheme_9.png"" class=""exp-image"">
                    <div class=""question-area"">
                        <p style=""font-size: 20px; font-weight: bold; margin: 0;"">Is there a person in this image?</p>
                    </div>
                </div>","0","main_experiment_trial","9","restaurant_scheme","schematic_sequence","","","",""
"","","","","","html-keyboard-response","35","146120","0.0-35.0","B1E5B1C0D84F47DA87E7E07D8A287A76","019cefaf-fd22-73b2-83ab-e83e211f7609","019cef87-c56d-7b55-9135-c5814367ec25","","null","
                <div class=""stimulus-container"">
                    <img src=""images/schematic_sequence/restaurant_scheme/restaurant_scheme_ten.png"" class=""exp-image"">
                    <div class=""question-area""></div> 
                </div>","null","","","","","","","",""
"","","","","","html-button-response","36","147385","0.0-36.0","B1E5B1C0D84F47DA87E7E07D8A287A76","019cefaf-fd22-73b2-83ab-e83e211f7609","019cef87-c56d-7b55-9135-c5814367ec25","","1264","
                <div class=""stimulus-container"">
                    <img src=""images/schematic_sequence/restaurant_scheme/restaurant_scheme_ten.png"" class=""exp-image"">
                    <div class=""question-area"">
                        <p style=""font-size: 20px; font-weight: bold; margin: 0;"">Is there a person in this image?</p>
                    </div>
                </div>","0","main_experiment_trial","ten","restaurant_scheme","schematic_sequence","","","",""
"","","","","","html-keyboard-response","37","148387","0.0-37.0","B1E5B1C0D84F47DA87E7E07D8A287A76","019cefaf-fd22-73b2-83ab-e83e211f7609","019cef87-c56d-7b55-9135-c5814367ec25","","null","<div style=""background-color: white; width: 100vw; height: 100vh;""></div>","null","","","","","","","",""
"","","","","","html-keyboard-response","38","153389","0.0-38.0","B1E5B1C0D84F47DA87E7E07D8A287A76","019cefaf-fd22-73b2-83ab-e83e211f7609","019cef87-c56d-7b55-9135-c5814367ec25","","null","
                <div class=""stimulus-container"">
                    <img src=""images/schematic_sequence/supermarket_scheme/supermarket_scheme_1.png"" class=""exp-image"">
                    <div class=""question-area""></div> 
                </div>","null","","","","","","","",""
"","","","","","html-button-response","39","154784","0.0-39.0","B1E5B1C0D84F47DA87E7E07D8A287A76","019cefaf-fd22-73b2-83ab-e83e211f7609","019cef87-c56d-7b55-9135-c5814367ec25","","1394","
                <div class=""stimulus-container"">
                    <img src=""images/schematic_sequence/supermarket_scheme/supermarket_scheme_1.png"" class=""exp-image"">
                    <div class=""question-area"">
                        <p style=""font-size: 20px; font-weight: bold; margin: 0;"">Is there a person in this image?</p>
                    </div>
                </div>","1","main_experiment_trial","1","supermarket_scheme","schematic_sequence","","","",""
"","","","","","html-keyboard-response","40","159786","0.0-40.0","B1E5B1C0D84F47DA87E7E07D8A287A76","019cefaf-fd22-73b2-83ab-e83e211f7609","019cef87-c56d-7b55-9135-c5814367ec25","","null","
                <div class=""stimulus-container"">
                    <img src=""images/schematic_sequence/supermarket_scheme/supermarket_scheme_2.png"" class=""exp-image"">
                    <div class=""question-area""></div> 
                </div>","null","","","","","","","",""
"","","","","","html-button-response","41","160368","0.0-41.0","B1E5B1C0D84F47DA87E7E07D8A287A76","019cefaf-fd22-73b2-83ab-e83e211f7609","019cef87-c56d-7b55-9135-c5814367ec25","","581","
                <div class=""stimulus-container"">
                    <img src=""images/schematic_sequence/supermarket_scheme/supermarket_scheme_2.png"" class=""exp-image"">
                    <div class=""question-area"">
                        <p style=""font-size: 20px; font-weight: bold; margin: 0;"">Is there a person in this image?</p>
                    </div>
                </div>","1","main_experiment_trial","2","supermarket_scheme","schematic_sequence","","","",""
"","","","","","html-keyboard-response","42","165370","0.0-42.0","B1E5B1C0D84F47DA87E7E07D8A287A76","019cefaf-fd22-73b2-83ab-e83e211f7609","019cef87-c56d-7b55-9135-c5814367ec25","","null","
                <div class=""stimulus-container"">
                    <img src=""images/schematic_sequence/supermarket_scheme/supermarket_scheme_3.png"" class=""exp-image"">
                    <div class=""question-area""></div> 
                </div>","null","","","","","","","",""
"","","","","","html-button-response","43","166835","0.0-43.0","B1E5B1C0D84F47DA87E7E07D8A287A76","019cefaf-fd22-73b2-83ab-e83e211f7609","019cef87-c56d-7b55-9135-c5814367ec25","","1464","
                <div class=""stimulus-container"">
                    <img src=""images/schematic_sequence/supermarket_scheme/supermarket_scheme_3.png"" class=""exp-image"">
                    <div class=""question-area"">
                        <p style=""font-size: 20px; font-weight: bold; margin: 0;"">Is there a person in this image?</p>
                    </div>
                </div>","1","main_experiment_trial","3","supermarket_scheme","schematic_sequence","","","",""
"","","","","","html-keyboard-response","44","171837","0.0-44.0","B1E5B1C0D84F47DA87E7E07D8A287A76","019cefaf-fd22-73b2-83ab-e83e211f7609","019cef87-c56d-7b55-9135-c5814367ec25","","null","
                <div class=""stimulus-container"">
                    <img src=""images/schematic_sequence/supermarket_scheme/supermarket_scheme_4.png"" class=""exp-image"">
                    <div class=""question-area""></div> 
                </div>","null","","","","","","","",""
"","","","","","html-button-response","45","172851","0.0-45.0","B1E5B1C0D84F47DA87E7E07D8A287A76","019cefaf-fd22-73b2-83ab-e83e211f7609","019cef87-c56d-7b55-9135-c5814367ec25","","1013","
                <div class=""stimulus-container"">
                    <img src=""images/schematic_sequence/supermarket_scheme/supermarket_scheme_4.png"" class=""exp-image"">
                    <div class=""question-area"">
                        <p style=""font-size: 20px; font-weight: bold; margin: 0;"">Is there a person in this image?</p>
                    </div>
                </div>","0","main_experiment_trial","4","supermarket_scheme","schematic_sequence","","","",""
"","","","","","html-keyboard-response","46","177853","0.0-46.0","B1E5B1C0D84F47DA87E7E07D8A287A76","019cefaf-fd22-73b2-83ab-e83e211f7609","019cef87-c56d-7b55-9135-c5814367ec25","","null","
                <div class=""stimulus-container"">
                    <img src=""images/schematic_sequence/supermarket_scheme/supermarket_scheme_5.png"" class=""exp-image"">
                    <div class=""question-area""></div> 
                </div>","null","","","","","","","",""
"","","","","","html-button-response","47","179718","0.0-47.0","B1E5B1C0D84F47DA87E7E07D8A287A76","019cefaf-fd22-73b2-83ab-e83e211f7609","019cef87-c56d-7b55-9135-c5814367ec25","","1864","
                <div class=""stimulus-container"">
                    <img src=""images/schematic_sequence/supermarket_scheme/supermarket_scheme_5.png"" class=""exp-image"">
                    <div class=""question-area"">
                        <p style=""font-size: 20px; font-weight: bold; margin: 0;"">Is there a person in this image?</p>
                    </div>
                </div>","1","main_experiment_trial","5","supermarket_scheme","schematic_sequence","","","",""
"","","","","","html-keyboard-response","48","184719","0.0-48.0","B1E5B1C0D84F47DA87E7E07D8A287A76","019cefaf-fd22-73b2-83ab-e83e211f7609","019cef87-c56d-7b55-9135-c5814367ec25","","null","
                <div class=""stimulus-container"">
                    <img src=""images/schematic_sequence/supermarket_scheme/supermarket_scheme_6.png"" class=""exp-image"">
                    <div class=""question-area""></div> 
                </div>","null","","","","","","","",""
"","","","","","html-button-response","49","186101","0.0-49.0","B1E5B1C0D84F47DA87E7E07D8A287A76","019cefaf-fd22-73b2-83ab-e83e211f7609","019cef87-c56d-7b55-9135-c5814367ec25","","1381","
                <div class=""stimulus-container"">
                    <img src=""images/schematic_sequence/supermarket_scheme/supermarket_scheme_6.png"" class=""exp-image"">
                    <div class=""question-area"">
                        <p style=""font-size: 20px; font-weight: bold; margin: 0;"">Is there a person in this image?</p>
                    </div>
                </div>","0","main_experiment_trial","6","supermarket_scheme","schematic_sequence","","","",""
"","","","","","html-keyboard-response","50","191102","0.0-50.0","B1E5B1C0D84F47DA87E7E07D8A287A76","019cefaf-fd22-73b2-83ab-e83e211f7609","019cef87-c56d-7b55-9135-c5814367ec25","","null","
                <div class=""stimulus-container"">
                    <img src=""images/schematic_sequence/supermarket_scheme/supermarket_scheme_7.png"" class=""exp-image"">
                    <div class=""question-area""></div> 
                </div>","null","","","","","","","",""
"","","","","","html-button-response","51","191803","0.0-51.0","B1E5B1C0D84F47DA87E7E07D8A287A76","019cefaf-fd22-73b2-83ab-e83e211f7609","019cef87-c56d-7b55-9135-c5814367ec25","","699","
                <div class=""stimulus-container"">
                    <img src=""images/schematic_sequence/supermarket_scheme/supermarket_scheme_7.png"" class=""exp-image"">
                    <div class=""question-area"">
                        <p style=""font-size: 20px; font-weight: bold; margin: 0;"">Is there a person in this image?</p>
                    </div>
                </div>","0","main_experiment_trial","7","supermarket_scheme","schematic_sequence","","","",""
"","","","","","html-keyboard-response","52","196805","0.0-52.0","B1E5B1C0D84F47DA87E7E07D8A287A76","019cefaf-fd22-73b2-83ab-e83e211f7609","019cef87-c56d-7b55-9135-c5814367ec25","","null","
                <div class=""stimulus-container"">
                    <img src=""images/schematic_sequence/supermarket_scheme/supermarket_scheme_8.png"" class=""exp-image"">
                    <div class=""question-area""></div> 
                </div>","null","","","","","","","",""
"","","","","","html-button-response","53","198167","0.0-53.0","B1E5B1C0D84F47DA87E7E07D8A287A76","019cefaf-fd22-73b2-83ab-e83e211f7609","019cef87-c56d-7b55-9135-c5814367ec25","","1362","
                <div class=""stimulus-container"">
                    <img src=""images/schematic_sequence/supermarket_scheme/supermarket_scheme_8.png"" class=""exp-image"">
                    <div class=""question-area"">
                        <p style=""font-size: 20px; font-weight: bold; margin: 0;"">Is there a person in this image?</p>
                    </div>
                </div>","0","main_experiment_trial","8","supermarket_scheme","schematic_sequence","","","",""
"","","","","","html-keyboard-response","54","203170","0.0-54.0","B1E5B1C0D84F47DA87E7E07D8A287A76","019cefaf-fd22-73b2-83ab-e83e211f7609","019cef87-c56d-7b55-9135-c5814367ec25","","null","
                <div class=""stimulus-container"">
                    <img src=""images/schematic_sequence/supermarket_scheme/supermarket_scheme_9.png"" class=""exp-image"">
                    <div class=""question-area""></div> 
                </div>","null","","","","","","","",""
"","","","","","html-button-response","55","204234","0.0-55.0","B1E5B1C0D84F47DA87E7E07D8A287A76","019cefaf-fd22-73b2-83ab-e83e211f7609","019cef87-c56d-7b55-9135-c5814367ec25","","1063","
                <div class=""stimulus-container"">
                    <img src=""images/schematic_sequence/supermarket_scheme/supermarket_scheme_9.png"" class=""exp-image"">
                    <div class=""question-area"">
                        <p style=""font-size: 20px; font-weight: bold; margin: 0;"">Is there a person in this image?</p>
                    </div>
                </div>","0","main_experiment_trial","9","supermarket_scheme","schematic_sequence","","","",""
"","","","","","html-keyboard-response","56","209235","0.0-56.0","B1E5B1C0D84F47DA87E7E07D8A287A76","019cefaf-fd22-73b2-83ab-e83e211f7609","019cef87-c56d-7b55-9135-c5814367ec25","","null","
                <div class=""stimulus-container"">
                    <img src=""images/schematic_sequence/supermarket_scheme/supermarket_scheme_ten.png"" class=""exp-image"">
                    <div class=""question-area""></div> 
                </div>","null","","","","","","","",""
"","","","","","html-button-response","57","211368","0.0-57.0","B1E5B1C0D84F47DA87E7E07D8A287A76","019cefaf-fd22-73b2-83ab-e83e211f7609","019cef87-c56d-7b55-9135-c5814367ec25","","2131","
                <div class=""stimulus-container"">
                    <img src=""images/schematic_sequence/supermarket_scheme/supermarket_scheme_ten.png"" class=""exp-image"">
                    <div class=""question-area"">
                        <p style=""font-size: 20px; font-weight: bold; margin: 0;"">Is there a person in this image?</p>
                    </div>
                </div>","1","main_experiment_trial","ten","supermarket_scheme","schematic_sequence","","","",""
"","","","","","html-keyboard-response","58","212370","0.0-58.0","B1E5B1C0D84F47DA87E7E07D8A287A76","019cefaf-fd22-73b2-83ab-e83e211f7609","019cef87-c56d-7b55-9135-c5814367ec25","","null","<div style=""background-color: white; width: 100vw; height: 100vh;""></div>","null","","","","","","","",""
"","","","","","html-keyboard-response","59","217373","0.0-59.0","B1E5B1C0D84F47DA87E7E07D8A287A76","019cefaf-fd22-73b2-83ab-e83e211f7609","019cef87-c56d-7b55-9135-c5814367ec25","","null","
                <div class=""stimulus-container"">
                    <img src=""images/causal_sequence/the_performance_causal/the_performance_causal_1.png"" class=""exp-image"">
                    <div class=""question-area""></div> 
                </div>","null","","","","","","","",""
"","","","","","html-button-response","60","218534","0.0-60.0","B1E5B1C0D84F47DA87E7E07D8A287A76","019cefaf-fd22-73b2-83ab-e83e211f7609","019cef87-c56d-7b55-9135-c5814367ec25","","1160","
                <div class=""stimulus-container"">
                    <img src=""images/causal_sequence/the_performance_causal/the_performance_causal_1.png"" class=""exp-image"">
                    <div class=""question-area"">
                        <p style=""font-size: 20px; font-weight: bold; margin: 0;"">Is there a person in this image?</p>
                    </div>
                </div>","0","main_experiment_trial","1","the_performance_causal","causal_sequence","","","",""
"","","","","","html-keyboard-response","61","223537","0.0-61.0","B1E5B1C0D84F47DA87E7E07D8A287A76","019cefaf-fd22-73b2-83ab-e83e211f7609","019cef87-c56d-7b55-9135-c5814367ec25","","null","
                <div class=""stimulus-container"">
                    <img src=""images/causal_sequence/the_performance_causal/the_performance_causal_2.png"" class=""exp-image"">
                    <div class=""question-area""></div> 
                </div>","null","","","","","","","",""
"","","","","","html-button-response","62","225351","0.0-62.0","B1E5B1C0D84F47DA87E7E07D8A287A76","019cefaf-fd22-73b2-83ab-e83e211f7609","019cef87-c56d-7b55-9135-c5814367ec25","","1813","
                <div class=""stimulus-container"">
                    <img src=""images/causal_sequence/the_performance_causal/the_performance_causal_2.png"" class=""exp-image"">
                    <div class=""question-area"">
                        <p style=""font-size: 20px; font-weight: bold; margin: 0;"">Is there a person in this image?</p>
                    </div>
                </div>","0","main_experiment_trial","2","the_performance_causal","causal_sequence","","","",""
"","","","","","html-keyboard-response","63","230353","0.0-63.0","B1E5B1C0D84F47DA87E7E07D8A287A76","019cefaf-fd22-73b2-83ab-e83e211f7609","019cef87-c56d-7b55-9135-c5814367ec25","","null","
                <div class=""stimulus-container"">
                    <img src=""images/causal_sequence/the_performance_causal/the_performance_causal_3.png"" class=""exp-image"">
                    <div class=""question-area""></div> 
                </div>","null","","","","","","","",""
"","","","","","html-button-response","64","233356","0.0-64.0","B1E5B1C0D84F47DA87E7E07D8A287A76","019cefaf-fd22-73b2-83ab-e83e211f7609","019cef87-c56d-7b55-9135-c5814367ec25","","null","
                <div class=""stimulus-container"">
                    <img src=""images/causal_sequence/the_performance_causal/the_performance_causal_3.png"" class=""exp-image"">
                    <div class=""question-area"">
                        <p style=""font-size: 20px; font-weight: bold; margin: 0;"">Is there a person in this image?</p>
                    </div>
                </div>","null","main_experiment_trial","3","the_performance_causal","causal_sequence","","","",""
"","","","","","html-keyboard-response","65","238358","0.0-65.0","B1E5B1C0D84F47DA87E7E07D8A287A76","019cefaf-fd22-73b2-83ab-e83e211f7609","019cef87-c56d-7b55-9135-c5814367ec25","","null","
                <div class=""stimulus-container"">
                    <img src=""images/causal_sequence/the_performance_causal/the_performance_causal_4.png"" class=""exp-image"">
                    <div class=""question-area""></div> 
                </div>","null","","","","","","","",""
"","","","","","html-button-response","66","239017","0.0-66.0","B1E5B1C0D84F47DA87E7E07D8A287A76","019cefaf-fd22-73b2-83ab-e83e211f7609","019cef87-c56d-7b55-9135-c5814367ec25","","659","
                <div class=""stimulus-container"">
                    <img src=""images/causal_sequence/the_performance_causal/the_performance_causal_4.png"" class=""exp-image"">
                    <div class=""question-area"">
                        <p style=""font-size: 20px; font-weight: bold; margin: 0;"">Is there a person in this image?</p>
                    </div>
                </div>","0","main_experiment_trial","4","the_performance_causal","causal_sequence","","","",""
"","","","","","html-keyboard-response","67","244019","0.0-67.0","B1E5B1C0D84F47DA87E7E07D8A287A76","019cefaf-fd22-73b2-83ab-e83e211f7609","019cef87-c56d-7b55-9135-c5814367ec25","","null","
                <div class=""stimulus-container"">
                    <img src=""images/causal_sequence/the_performance_causal/the_performance_causal_5.png"" class=""exp-image"">
                    <div class=""question-area""></div> 
                </div>","null","","","","","","","",""
"","","","","","html-button-response","68","244717","0.0-68.0","B1E5B1C0D84F47DA87E7E07D8A287A76","019cefaf-fd22-73b2-83ab-e83e211f7609","019cef87-c56d-7b55-9135-c5814367ec25","","698","
                <div class=""stimulus-container"">
                    <img src=""images/causal_sequence/the_performance_causal/the_performance_causal_5.png"" class=""exp-image"">
                    <div class=""question-area"">
                        <p style=""font-size: 20px; font-weight: bold; margin: 0;"">Is there a person in this image?</p>
                    </div>
                </div>","0","main_experiment_trial","5","the_performance_causal","causal_sequence","","","",""
"","","","","","html-keyboard-response","69","249719","0.0-69.0","B1E5B1C0D84F47DA87E7E07D8A287A76","019cefaf-fd22-73b2-83ab-e83e211f7609","019cef87-c56d-7b55-9135-c5814367ec25","","null","
                <div class=""stimulus-container"">
                    <img src=""images/causal_sequence/the_performance_causal/the_performance_causal_6.png"" class=""exp-image"">
                    <div class=""question-area""></div> 
                </div>","null","","","","","","","",""
"","","","","","html-button-response","70","250318","0.0-70.0","B1E5B1C0D84F47DA87E7E07D8A287A76","019cefaf-fd22-73b2-83ab-e83e211f7609","019cef87-c56d-7b55-9135-c5814367ec25","","598","
                <div class=""stimulus-container"">
                    <img src=""images/causal_sequence/the_performance_causal/the_performance_causal_6.png"" class=""exp-image"">
                    <div class=""question-area"">
                        <p style=""font-size: 20px; font-weight: bold; margin: 0;"">Is there a person in this image?</p>
                    </div>
                </div>","0","main_experiment_trial","6","the_performance_causal","causal_sequence","","","",""
"","","","","","html-keyboard-response","71","255320","0.0-71.0","B1E5B1C0D84F47DA87E7E07D8A287A76","019cefaf-fd22-73b2-83ab-e83e211f7609","019cef87-c56d-7b55-9135-c5814367ec25","","null","
                <div class=""stimulus-container"">
                    <img src=""images/causal_sequence/the_performance_causal/the_performance_causal_7.png"" class=""exp-image"">
                    <div class=""question-area""></div> 
                </div>","null","","","","","","","",""
"","","","","","html-button-response","72","258167","0.0-72.0","B1E5B1C0D84F47DA87E7E07D8A287A76","019cefaf-fd22-73b2-83ab-e83e211f7609","019cef87-c56d-7b55-9135-c5814367ec25","","2846","
                <div class=""stimulus-container"">
                    <img src=""images/causal_sequence/the_performance_causal/the_performance_causal_7.png"" class=""exp-image"">
                    <div class=""question-area"">
                        <p style=""font-size: 20px; font-weight: bold; margin: 0;"">Is there a person in this image?</p>
                    </div>
                </div>","0","main_experiment_trial","7","the_performance_causal","causal_sequence","","","",""
"","","","","","html-keyboard-response","73","263169","0.0-73.0","B1E5B1C0D84F47DA87E7E07D8A287A76","019cefaf-fd22-73b2-83ab-e83e211f7609","019cef87-c56d-7b55-9135-c5814367ec25","","null","
                <div class=""stimulus-container"">
                    <img src=""images/causal_sequence/the_performance_causal/the_performance_causal_8.png"" class=""exp-image"">
                    <div class=""question-area""></div> 
                </div>","null","","","","","","","",""
"","","","","","html-button-response","74","264302","0.0-74.0","B1E5B1C0D84F47DA87E7E07D8A287A76","019cefaf-fd22-73b2-83ab-e83e211f7609","019cef87-c56d-7b55-9135-c5814367ec25","","1132","
                <div class=""stimulus-container"">
                    <img src=""images/causal_sequence/the_performance_causal/the_performance_causal_8.png"" class=""exp-image"">
                    <div class=""question-area"">
                        <p style=""font-size: 20px; font-weight: bold; margin: 0;"">Is there a person in this image?</p>
                    </div>
                </div>","0","main_experiment_trial","8","the_performance_causal","causal_sequence","","","",""
"","","","","","html-keyboard-response","75","269304","0.0-75.0","B1E5B1C0D84F47DA87E7E07D8A287A76","019cefaf-fd22-73b2-83ab-e83e211f7609","019cef87-c56d-7b55-9135-c5814367ec25","","null","
                <div class=""stimulus-container"">
                    <img src=""images/causal_sequence/the_performance_causal/the_performance_causal_9.png"" class=""exp-image"">
                    <div class=""question-area""></div> 
                </div>","null","","","","","","","",""
"","","","","","html-button-response","76","270434","0.0-76.0","B1E5B1C0D84F47DA87E7E07D8A287A76","019cefaf-fd22-73b2-83ab-e83e211f7609","019cef87-c56d-7b55-9135-c5814367ec25","","1129","
                <div class=""stimulus-container"">
                    <img src=""images/causal_sequence/the_performance_causal/the_performance_causal_9.png"" class=""exp-image"">
                    <div class=""question-area"">
                        <p style=""font-size: 20px; font-weight: bold; margin: 0;"">Is there a person in this image?</p>
                    </div>
                </div>","0","main_experiment_trial","9","the_performance_causal","causal_sequence","","","",""
"","","","","","html-keyboard-response","77","275436","0.0-77.0","B1E5B1C0D84F47DA87E7E07D8A287A76","019cefaf-fd22-73b2-83ab-e83e211f7609","019cef87-c56d-7b55-9135-c5814367ec25","","null","
                <div class=""stimulus-container"">
                    <img src=""images/causal_sequence/the_performance_causal/the_performance_causal_ten.png"" class=""exp-image"">
                    <div class=""question-area""></div> 
                </div>","null","","","","","","","",""
"","","","","","html-button-response","78","276384","0.0-78.0","B1E5B1C0D84F47DA87E7E07D8A287A76","019cefaf-fd22-73b2-83ab-e83e211f7609","019cef87-c56d-7b55-9135-c5814367ec25","","947","
                <div class=""stimulus-container"">
                    <img src=""images/causal_sequence/the_performance_causal/the_performance_causal_ten.png"" class=""exp-image"">
                    <div class=""question-area"">
                        <p style=""font-size: 20px; font-weight: bold; margin: 0;"">Is there a person in this image?</p>
                    </div>
                </div>","0","main_experiment_trial","ten","the_performance_causal","causal_sequence","","","",""
"","","","","","html-keyboard-response","79","277386","0.0-79.0","B1E5B1C0D84F47DA87E7E07D8A287A76","019cefaf-fd22-73b2-83ab-e83e211f7609","019cef87-c56d-7b55-9135-c5814367ec25","","null","<div style=""background-color: white; width: 100vw; height: 100vh;""></div>","null","","","","","","","",""
"","","","","","html-keyboard-response","80","282389","0.0-80.0","B1E5B1C0D84F47DA87E7E07D8A287A76","019cefaf-fd22-73b2-83ab-e83e211f7609","019cef87-c56d-7b55-9135-c5814367ec25","","null","
                <div class=""stimulus-container"">
                    <img src=""images/causal_sequence/saving_a_cat_causal/saving_a_cat_causal_1.png"" class=""exp-image"">
                    <div class=""question-area""></div> 
                </div>","null","","","","","","","",""
"","","","","","html-button-response","81","282934","0.0-81.0","B1E5B1C0D84F47DA87E7E07D8A287A76","019cefaf-fd22-73b2-83ab-e83e211f7609","019cef87-c56d-7b55-9135-c5814367ec25","","545","
                <div class=""stimulus-container"">
                    <img src=""images/causal_sequence/saving_a_cat_causal/saving_a_cat_causal_1.png"" class=""exp-image"">
                    <div class=""question-area"">
                        <p style=""font-size: 20px; font-weight: bold; margin: 0;"">Is there a person in this image?</p>
                    </div>
                </div>","0","main_experiment_trial","1","saving_a_cat_causal","causal_sequence","","","",""
"","","","","","html-keyboard-response","82","287937","0.0-82.0","B1E5B1C0D84F47DA87E7E07D8A287A76","019cefaf-fd22-73b2-83ab-e83e211f7609","019cef87-c56d-7b55-9135-c5814367ec25","","null","
                <div class=""stimulus-container"">
                    <img src=""images/causal_sequence/saving_a_cat_causal/saving_a_cat_causal_2.png"" class=""exp-image"">
                    <div class=""question-area""></div> 
                </div>","null","","","","","","","",""
"","","","","","html-button-response","83","288701","0.0-83.0","B1E5B1C0D84F47DA87E7E07D8A287A76","019cefaf-fd22-73b2-83ab-e83e211f7609","019cef87-c56d-7b55-9135-c5814367ec25","","763","
                <div class=""stimulus-container"">
                    <img src=""images/causal_sequence/saving_a_cat_causal/saving_a_cat_causal_2.png"" class=""exp-image"">
                    <div class=""question-area"">
                        <p style=""font-size: 20px; font-weight: bold; margin: 0;"">Is there a person in this image?</p>
                    </div>
                </div>","1","main_experiment_trial","2","saving_a_cat_causal","causal_sequence","","","",""
"","","","","","html-keyboard-response","84","293703","0.0-84.0","B1E5B1C0D84F47DA87E7E07D8A287A76","019cefaf-fd22-73b2-83ab-e83e211f7609","019cef87-c56d-7b55-9135-c5814367ec25","","null","
                <div class=""stimulus-container"">
                    <img src=""images/causal_sequence/saving_a_cat_causal/saving_a_cat_causal_3.png"" class=""exp-image"">
                    <div class=""question-area""></div> 
                </div>","null","","","","","","","",""
"","","","","","html-button-response","85","294205","0.0-85.0","B1E5B1C0D84F47DA87E7E07D8A287A76","019cefaf-fd22-73b2-83ab-e83e211f7609","019cef87-c56d-7b55-9135-c5814367ec25","","502","
                <div class=""stimulus-container"">
                    <img src=""images/causal_sequence/saving_a_cat_causal/saving_a_cat_causal_3.png"" class=""exp-image"">
                    <div class=""question-area"">
                        <p style=""font-size: 20px; font-weight: bold; margin: 0;"">Is there a person in this image?</p>
                    </div>
                </div>","1","main_experiment_trial","3","saving_a_cat_causal","causal_sequence","","","",""
"","","","","","html-keyboard-response","86","299207","0.0-86.0","B1E5B1C0D84F47DA87E7E07D8A287A76","019cefaf-fd22-73b2-83ab-e83e211f7609","019cef87-c56d-7b55-9135-c5814367ec25","","null","
                <div class=""stimulus-container"">
                    <img src=""images/causal_sequence/saving_a_cat_causal/saving_a_cat_causal_4.png"" class=""exp-image"">
                    <div class=""question-area""></div> 
                </div>","null","","","","","","","",""
"","","","","","html-button-response","87","300033","0.0-87.0","B1E5B1C0D84F47DA87E7E07D8A287A76","019cefaf-fd22-73b2-83ab-e83e211f7609","019cef87-c56d-7b55-9135-c5814367ec25","","826","
                <div class=""stimulus-container"">
                    <img src=""images/causal_sequence/saving_a_cat_causal/saving_a_cat_causal_4.png"" class=""exp-image"">
                    <div class=""question-area"">
                        <p style=""font-size: 20px; font-weight: bold; margin: 0;"">Is there a person in this image?</p>
                    </div>
                </div>","0","main_experiment_trial","4","saving_a_cat_causal","causal_sequence","","","",""
"","","","","","html-keyboard-response","88","305035","0.0-88.0","B1E5B1C0D84F47DA87E7E07D8A287A76","019cefaf-fd22-73b2-83ab-e83e211f7609","019cef87-c56d-7b55-9135-c5814367ec25","","null","
                <div class=""stimulus-container"">
                    <img src=""images/causal_sequence/saving_a_cat_causal/saving_a_cat_causal_5.png"" class=""exp-image"">
                    <div class=""question-area""></div> 
                </div>","null","","","","","","","",""
"","","","","","html-button-response","89","306183","0.0-89.0","B1E5B1C0D84F47DA87E7E07D8A287A76","019cefaf-fd22-73b2-83ab-e83e211f7609","019cef87-c56d-7b55-9135-c5814367ec25","","1147","
                <div class=""stimulus-container"">
                    <img src=""images/causal_sequence/saving_a_cat_causal/saving_a_cat_causal_5.png"" class=""exp-image"">
                    <div class=""question-area"">
                        <p style=""font-size: 20px; font-weight: bold; margin: 0;"">Is there a person in this image?</p>
                    </div>
                </div>","0","main_experiment_trial","5","saving_a_cat_causal","causal_sequence","","","",""
"","","","","","html-keyboard-response","90","311185","0.0-90.0","B1E5B1C0D84F47DA87E7E07D8A287A76","019cefaf-fd22-73b2-83ab-e83e211f7609","019cef87-c56d-7b55-9135-c5814367ec25","","null","
                <div class=""stimulus-container"">
                    <img src=""images/causal_sequence/saving_a_cat_causal/saving_a_cat_causal_6.png"" class=""exp-image"">
                    <div class=""question-area""></div> 
                </div>","null","","","","","","","",""
"","","","","","html-button-response","91","313567","0.0-91.0","B1E5B1C0D84F47DA87E7E07D8A287A76","019cefaf-fd22-73b2-83ab-e83e211f7609","019cef87-c56d-7b55-9135-c5814367ec25","","2381","
                <div class=""stimulus-container"">
                    <img src=""images/causal_sequence/saving_a_cat_causal/saving_a_cat_causal_6.png"" class=""exp-image"">
                    <div class=""question-area"">
                        <p style=""font-size: 20px; font-weight: bold; margin: 0;"">Is there a person in this image?</p>
                    </div>
                </div>","0","main_experiment_trial","6","saving_a_cat_causal","causal_sequence","","","",""
"","","","","","html-keyboard-response","92","318568","0.0-92.0","B1E5B1C0D84F47DA87E7E07D8A287A76","019cefaf-fd22-73b2-83ab-e83e211f7609","019cef87-c56d-7b55-9135-c5814367ec25","","null","
                <div class=""stimulus-container"">
                    <img src=""images/causal_sequence/saving_a_cat_causal/saving_a_cat_causal_7.png"" class=""exp-image"">
                    <div class=""question-area""></div> 
                </div>","null","","","","","","","",""
"","","","","","html-button-response","93","321184","0.0-93.0","B1E5B1C0D84F47DA87E7E07D8A287A76","019cefaf-fd22-73b2-83ab-e83e211f7609","019cef87-c56d-7b55-9135-c5814367ec25","","2614","
                <div class=""stimulus-container"">
                    <img src=""images/causal_sequence/saving_a_cat_causal/saving_a_cat_causal_7.png"" class=""exp-image"">
                    <div class=""question-area"">
                        <p style=""font-size: 20px; font-weight: bold; margin: 0;"">Is there a person in this image?</p>
                    </div>
                </div>","0","main_experiment_trial","7","saving_a_cat_causal","causal_sequence","","","",""
"","","","","","html-keyboard-response","94","326186","0.0-94.0","B1E5B1C0D84F47DA87E7E07D8A287A76","019cefaf-fd22-73b2-83ab-e83e211f7609","019cef87-c56d-7b55-9135-c5814367ec25","","null","
                <div class=""stimulus-container"">
                    <img src=""images/causal_sequence/saving_a_cat_causal/saving_a_cat_causal_8.png"" class=""exp-image"">
                    <div class=""question-area""></div> 
                </div>","null","","","","","","","",""
"","","","","","html-button-response","95","326617","0.0-95.0","B1E5B1C0D84F47DA87E7E07D8A287A76","019cefaf-fd22-73b2-83ab-e83e211f7609","019cef87-c56d-7b55-9135-c5814367ec25","","430","
                <div class=""stimulus-container"">
                    <img src=""images/causal_sequence/saving_a_cat_causal/saving_a_cat_causal_8.png"" class=""exp-image"">
                    <div class=""question-area"">
                        <p style=""font-size: 20px; font-weight: bold; margin: 0;"">Is there a person in this image?</p>
                    </div>
                </div>","0","main_experiment_trial","8","saving_a_cat_causal","causal_sequence","","","",""
"","","","","","html-keyboard-response","96","331620","0.0-96.0","B1E5B1C0D84F47DA87E7E07D8A287A76","019cefaf-fd22-73b2-83ab-e83e211f7609","019cef87-c56d-7b55-9135-c5814367ec25","","null","
                <div class=""stimulus-container"">
                    <img src=""images/causal_sequence/saving_a_cat_causal/saving_a_cat_causal_9.png"" class=""exp-image"">
                    <div class=""question-area""></div> 
                </div>","null","","","","","","","",""
"","","","","","html-button-response","97","332383","0.0-97.0","B1E5B1C0D84F47DA87E7E07D8A287A76","019cefaf-fd22-73b2-83ab-e83e211f7609","019cef87-c56d-7b55-9135-c5814367ec25","","762","
                <div class=""stimulus-container"">
                    <img src=""images/causal_sequence/saving_a_cat_causal/saving_a_cat_causal_9.png"" class=""exp-image"">
                    <div class=""question-area"">
                        <p style=""font-size: 20px; font-weight: bold; margin: 0;"">Is there a person in this image?</p>
                    </div>
                </div>","0","main_experiment_trial","9","saving_a_cat_causal","causal_sequence","","","",""
"","","","","","html-keyboard-response","98","337386","0.0-98.0","B1E5B1C0D84F47DA87E7E07D8A287A76","019cefaf-fd22-73b2-83ab-e83e211f7609","019cef87-c56d-7b55-9135-c5814367ec25","","null","
                <div class=""stimulus-container"">
                    <img src=""images/causal_sequence/saving_a_cat_causal/saving_a_cat_causal_ten.png"" class=""exp-image"">
                    <div class=""question-area""></div> 
                </div>","null","","","","","","","",""
"","","","","","html-button-response","99","340388","0.0-99.0","B1E5B1C0D84F47DA87E7E07D8A287A76","019cefaf-fd22-73b2-83ab-e83e211f7609","019cef87-c56d-7b55-9135-c5814367ec25","","null","
                <div class=""stimulus-container"">
                    <img src=""images/causal_sequence/saving_a_cat_causal/saving_a_cat_causal_ten.png"" class=""exp-image"">
                    <div class=""question-area"">
                        <p style=""font-size: 20px; font-weight: bold; margin: 0;"">Is there a person in this image?</p>
                    </div>
                </div>","null","main_experiment_trial","ten","saving_a_cat_causal","causal_sequence","","","",""
"","","","","","html-keyboard-response","100","341391","0.0-100.0","B1E5B1C0D84F47DA87E7E07D8A287A76","019cefaf-fd22-73b2-83ab-e83e211f7609","019cef87-c56d-7b55-9135-c5814367ec25","","null","<div style=""background-color: white; width: 100vw; height: 100vh;""></div>","null","","","","","","","",""
"","","","","","html-keyboard-response","101","346393","0.0-101.0","B1E5B1C0D84F47DA87E7E07D8A287A76","019cefaf-fd22-73b2-83ab-e83e211f7609","019cef87-c56d-7b55-9135-c5814367ec25","","null","
                <div class=""stimulus-container"">
                    <img src=""images/schematic_sequence/flight_scheme/flight_scheme_1.png"" class=""exp-image"">
                    <div class=""question-area""></div> 
                </div>","null","","","","","","","",""
"","","","","","html-button-response","102","346852","0.0-102.0","B1E5B1C0D84F47DA87E7E07D8A287A76","019cefaf-fd22-73b2-83ab-e83e211f7609","019cef87-c56d-7b55-9135-c5814367ec25","","457","
                <div class=""stimulus-container"">
                    <img src=""images/schematic_sequence/flight_scheme/flight_scheme_1.png"" class=""exp-image"">
                    <div class=""question-area"">
                        <p style=""font-size: 20px; font-weight: bold; margin: 0;"">Is there a person in this image?</p>
                    </div>
                </div>","0","main_experiment_trial","1","flight_scheme","schematic_sequence","","","",""
"","","","","","html-keyboard-response","103","351854","0.0-103.0","B1E5B1C0D84F47DA87E7E07D8A287A76","019cefaf-fd22-73b2-83ab-e83e211f7609","019cef87-c56d-7b55-9135-c5814367ec25","","null","
                <div class=""stimulus-container"">
                    <img src=""images/schematic_sequence/flight_scheme/flight_scheme_2.png"" class=""exp-image"">
                    <div class=""question-area""></div> 
                </div>","null","","","","","","","",""
"","","","","","html-button-response","104","352684","0.0-104.0","B1E5B1C0D84F47DA87E7E07D8A287A76","019cefaf-fd22-73b2-83ab-e83e211f7609","019cef87-c56d-7b55-9135-c5814367ec25","","829","
                <div class=""stimulus-container"">
                    <img src=""images/schematic_sequence/flight_scheme/flight_scheme_2.png"" class=""exp-image"">
                    <div class=""question-area"">
                        <p style=""font-size: 20px; font-weight: bold; margin: 0;"">Is there a person in this image?</p>
                    </div>
                </div>","1","main_experiment_trial","2","flight_scheme","schematic_sequence","","","",""
"","","","","","html-keyboard-response","105","357686","0.0-105.0","B1E5B1C0D84F47DA87E7E07D8A287A76","019cefaf-fd22-73b2-83ab-e83e211f7609","019cef87-c56d-7b55-9135-c5814367ec25","","null","
                <div class=""stimulus-container"">
                    <img src=""images/schematic_sequence/flight_scheme/flight_scheme_3.png"" class=""exp-image"">
                    <div class=""question-area""></div> 
                </div>","null","","","","","","","",""
"","","","","","html-button-response","106","358049","0.0-106.0","B1E5B1C0D84F47DA87E7E07D8A287A76","019cefaf-fd22-73b2-83ab-e83e211f7609","019cef87-c56d-7b55-9135-c5814367ec25","","362","
                <div class=""stimulus-container"">
                    <img src=""images/schematic_sequence/flight_scheme/flight_scheme_3.png"" class=""exp-image"">
                    <div class=""question-area"">
                        <p style=""font-size: 20px; font-weight: bold; margin: 0;"">Is there a person in this image?</p>
                    </div>
                </div>","0","main_experiment_trial","3","flight_scheme","schematic_sequence","","","",""
"","","","","","html-keyboard-response","107","363052","0.0-107.0","B1E5B1C0D84F47DA87E7E07D8A287A76","019cefaf-fd22-73b2-83ab-e83e211f7609","019cef87-c56d-7b55-9135-c5814367ec25","","null","
                <div class=""stimulus-container"">
                    <img src=""images/schematic_sequence/flight_scheme/flight_scheme_4.png"" class=""exp-image"">
                    <div class=""question-area""></div> 
                </div>","null","","","","","","","",""
"","","","","","html-button-response","108","363700","0.0-108.0","B1E5B1C0D84F47DA87E7E07D8A287A76","019cefaf-fd22-73b2-83ab-e83e211f7609","019cef87-c56d-7b55-9135-c5814367ec25","","647","
                <div class=""stimulus-container"">
                    <img src=""images/schematic_sequence/flight_scheme/flight_scheme_4.png"" class=""exp-image"">
                    <div class=""question-area"">
                        <p style=""font-size: 20px; font-weight: bold; margin: 0;"">Is there a person in this image?</p>
                    </div>
                </div>","0","main_experiment_trial","4","flight_scheme","schematic_sequence","","","",""
"","","","","","html-keyboard-response","109","368702","0.0-109.0","B1E5B1C0D84F47DA87E7E07D8A287A76","019cefaf-fd22-73b2-83ab-e83e211f7609","019cef87-c56d-7b55-9135-c5814367ec25","","null","
                <div class=""stimulus-container"">
                    <img src=""images/schematic_sequence/flight_scheme/flight_scheme_5.png"" class=""exp-image"">
                    <div class=""question-area""></div> 
                </div>","null","","","","","","","",""
"","","","","","html-button-response","110","369383","0.0-110.0","B1E5B1C0D84F47DA87E7E07D8A287A76","019cefaf-fd22-73b2-83ab-e83e211f7609","019cef87-c56d-7b55-9135-c5814367ec25","","680","
                <div class=""stimulus-container"">
                    <img src=""images/schematic_sequence/flight_scheme/flight_scheme_5.png"" class=""exp-image"">
                    <div class=""question-area"">
                        <p style=""font-size: 20px; font-weight: bold; margin: 0;"">Is there a person in this image?</p>
                    </div>
                </div>","0","main_experiment_trial","5","flight_scheme","schematic_sequence","","","",""
"","","","","","html-keyboard-response","111","374385","0.0-111.0","B1E5B1C0D84F47DA87E7E07D8A287A76","019cefaf-fd22-73b2-83ab-e83e211f7609","019cef87-c56d-7b55-9135-c5814367ec25","","null","
                <div class=""stimulus-container"">
                    <img src=""images/schematic_sequence/flight_scheme/flight_scheme_6.png"" class=""exp-image"">
                    <div class=""question-area""></div> 
                </div>","null","","","","","","","",""
"","","","","","html-button-response","112","376000","0.0-112.0","B1E5B1C0D84F47DA87E7E07D8A287A76","019cefaf-fd22-73b2-83ab-e83e211f7609","019cef87-c56d-7b55-9135-c5814367ec25","","1614","
                <div class=""stimulus-container"">
                    <img src=""images/schematic_sequence/flight_scheme/flight_scheme_6.png"" class=""exp-image"">
                    <div class=""question-area"">
                        <p style=""font-size: 20px; font-weight: bold; margin: 0;"">Is there a person in this image?</p>
                    </div>
                </div>","1","main_experiment_trial","6","flight_scheme","schematic_sequence","","","",""
"","","","","","html-keyboard-response","113","381002","0.0-113.0","B1E5B1C0D84F47DA87E7E07D8A287A76","019cefaf-fd22-73b2-83ab-e83e211f7609","019cef87-c56d-7b55-9135-c5814367ec25","","null","
                <div class=""stimulus-container"">
                    <img src=""images/schematic_sequence/flight_scheme/flight_scheme_7.png"" class=""exp-image"">
                    <div class=""question-area""></div> 
                </div>","null","","","","","","","",""
"","","","","","html-button-response","114","381517","0.0-114.0","B1E5B1C0D84F47DA87E7E07D8A287A76","019cefaf-fd22-73b2-83ab-e83e211f7609","019cef87-c56d-7b55-9135-c5814367ec25","","514","
                <div class=""stimulus-container"">
                    <img src=""images/schematic_sequence/flight_scheme/flight_scheme_7.png"" class=""exp-image"">
                    <div class=""question-area"">
                        <p style=""font-size: 20px; font-weight: bold; margin: 0;"">Is there a person in this image?</p>
                    </div>
                </div>","0","main_experiment_trial","7","flight_scheme","schematic_sequence","","","",""
"","","","","","html-keyboard-response","115","386519","0.0-115.0","B1E5B1C0D84F47DA87E7E07D8A287A76","019cefaf-fd22-73b2-83ab-e83e211f7609","019cef87-c56d-7b55-9135-c5814367ec25","","null","
                <div class=""stimulus-container"">
                    <img src=""images/schematic_sequence/flight_scheme/flight_scheme_8.png"" class=""exp-image"">
                    <div class=""question-area""></div> 
                </div>","null","","","","","","","",""
"","","","","","html-button-response","116","387132","0.0-116.0","B1E5B1C0D84F47DA87E7E07D8A287A76","019cefaf-fd22-73b2-83ab-e83e211f7609","019cef87-c56d-7b55-9135-c5814367ec25","","612","
                <div class=""stimulus-container"">
                    <img src=""images/schematic_sequence/flight_scheme/flight_scheme_8.png"" class=""exp-image"">
                    <div class=""question-area"">
                        <p style=""font-size: 20px; font-weight: bold; margin: 0;"">Is there a person in this image?</p>
                    </div>
                </div>","1","main_experiment_trial","8","flight_scheme","schematic_sequence","","","",""
"","","","","","html-keyboard-response","117","392134","0.0-117.0","B1E5B1C0D84F47DA87E7E07D8A287A76","019cefaf-fd22-73b2-83ab-e83e211f7609","019cef87-c56d-7b55-9135-c5814367ec25","","null","
                <div class=""stimulus-container"">
                    <img src=""images/schematic_sequence/flight_scheme/flight_scheme_9.png"" class=""exp-image"">
                    <div class=""question-area""></div> 
                </div>","null","","","","","","","",""
"","","","","","html-button-response","118","392766","0.0-118.0","B1E5B1C0D84F47DA87E7E07D8A287A76","019cefaf-fd22-73b2-83ab-e83e211f7609","019cef87-c56d-7b55-9135-c5814367ec25","","632","
                <div class=""stimulus-container"">
                    <img src=""images/schematic_sequence/flight_scheme/flight_scheme_9.png"" class=""exp-image"">
                    <div class=""question-area"">
                        <p style=""font-size: 20px; font-weight: bold; margin: 0;"">Is there a person in this image?</p>
                    </div>
                </div>","0","main_experiment_trial","9","flight_scheme","schematic_sequence","","","",""
"","","","","","html-keyboard-response","119","397769","0.0-119.0","B1E5B1C0D84F47DA87E7E07D8A287A76","019cefaf-fd22-73b2-83ab-e83e211f7609","019cef87-c56d-7b55-9135-c5814367ec25","","null","
                <div class=""stimulus-container"">
                    <img src=""images/schematic_sequence/flight_scheme/flight_scheme_ten.png"" class=""exp-image"">
                    <div class=""question-area""></div> 
                </div>","null","","","","","","","",""
"","","","","","html-button-response","120","400417","0.0-120.0","B1E5B1C0D84F47DA87E7E07D8A287A76","019cefaf-fd22-73b2-83ab-e83e211f7609","019cef87-c56d-7b55-9135-c5814367ec25","","2647","
                <div class=""stimulus-container"">
                    <img src=""images/schematic_sequence/flight_scheme/flight_scheme_ten.png"" class=""exp-image"">
                    <div class=""question-area"">
                        <p style=""font-size: 20px; font-weight: bold; margin: 0;"">Is there a person in this image?</p>
                    </div>
                </div>","0","main_experiment_trial","ten","flight_scheme","schematic_sequence","","","",""
"","","","","","html-keyboard-response","121","401418","0.0-121.0","B1E5B1C0D84F47DA87E7E07D8A287A76","019cefaf-fd22-73b2-83ab-e83e211f7609","019cef87-c56d-7b55-9135-c5814367ec25","","null","<div style=""background-color: white; width: 100vw; height: 100vh;""></div>","null","","","","","","","",""
"","","","","","html-keyboard-response","122","406420","0.0-122.0","B1E5B1C0D84F47DA87E7E07D8A287A76","019cefaf-fd22-73b2-83ab-e83e211f7609","019cef87-c56d-7b55-9135-c5814367ec25","","null","
                <div class=""stimulus-container"">
                    <img src=""images/causal_sequence/coin_causal/coin_causal_1.png"" class=""exp-image"">
                    <div class=""question-area""></div> 
                </div>","null","","","","","","","",""
"","","","","","html-button-response","123","406999","0.0-123.0","B1E5B1C0D84F47DA87E7E07D8A287A76","019cefaf-fd22-73b2-83ab-e83e211f7609","019cef87-c56d-7b55-9135-c5814367ec25","","578","
                <div class=""stimulus-container"">
                    <img src=""images/causal_sequence/coin_causal/coin_causal_1.png"" class=""exp-image"">
                    <div class=""question-area"">
                        <p style=""font-size: 20px; font-weight: bold; margin: 0;"">Is there a person in this image?</p>
                    </div>
                </div>","0","main_experiment_trial","1","coin_causal","causal_sequence","","","",""
"","","","","","html-keyboard-response","124","412002","0.0-124.0","B1E5B1C0D84F47DA87E7E07D8A287A76","019cefaf-fd22-73b2-83ab-e83e211f7609","019cef87-c56d-7b55-9135-c5814367ec25","","null","
                <div class=""stimulus-container"">
                    <img src=""images/causal_sequence/coin_causal/coin_causal_2.png"" class=""exp-image"">
                    <div class=""question-area""></div> 
                </div>","null","","","","","","","",""
"","","","","","html-button-response","125","415004","0.0-125.0","B1E5B1C0D84F47DA87E7E07D8A287A76","019cefaf-fd22-73b2-83ab-e83e211f7609","019cef87-c56d-7b55-9135-c5814367ec25","","null","
                <div class=""stimulus-container"">
                    <img src=""images/causal_sequence/coin_causal/coin_causal_2.png"" class=""exp-image"">
                    <div class=""question-area"">
                        <p style=""font-size: 20px; font-weight: bold; margin: 0;"">Is there a person in this image?</p>
                    </div>
                </div>","null","main_experiment_trial","2","coin_causal","causal_sequence","","","",""
"","","","","","html-keyboard-response","126","420006","0.0-126.0","B1E5B1C0D84F47DA87E7E07D8A287A76","019cefaf-fd22-73b2-83ab-e83e211f7609","019cef87-c56d-7b55-9135-c5814367ec25","","null","
                <div class=""stimulus-container"">
                    <img src=""images/causal_sequence/coin_causal/coin_causal_3.png"" class=""exp-image"">
                    <div class=""question-area""></div> 
                </div>","null","","","","","","","",""
"","","","","","html-button-response","127","420549","0.0-127.0","B1E5B1C0D84F47DA87E7E07D8A287A76","019cefaf-fd22-73b2-83ab-e83e211f7609","019cef87-c56d-7b55-9135-c5814367ec25","","542","
                <div class=""stimulus-container"">
                    <img src=""images/causal_sequence/coin_causal/coin_causal_3.png"" class=""exp-image"">
                    <div class=""question-area"">
                        <p style=""font-size: 20px; font-weight: bold; margin: 0;"">Is there a person in this image?</p>
                    </div>
                </div>","0","main_experiment_trial","3","coin_causal","causal_sequence","","","",""
"","","","","","html-keyboard-response","128","425551","0.0-128.0","B1E5B1C0D84F47DA87E7E07D8A287A76","019cefaf-fd22-73b2-83ab-e83e211f7609","019cef87-c56d-7b55-9135-c5814367ec25","","null","
                <div class=""stimulus-container"">
                    <img src=""images/causal_sequence/coin_causal/coin_causal_4.png"" class=""exp-image"">
                    <div class=""question-area""></div> 
                </div>","null","","","","","","","",""
"","","","","","html-button-response","129","427983","0.0-129.0","B1E5B1C0D84F47DA87E7E07D8A287A76","019cefaf-fd22-73b2-83ab-e83e211f7609","019cef87-c56d-7b55-9135-c5814367ec25","","2431","
                <div class=""stimulus-container"">
                    <img src=""images/causal_sequence/coin_causal/coin_causal_4.png"" class=""exp-image"">
                    <div class=""question-area"">
                        <p style=""font-size: 20px; font-weight: bold; margin: 0;"">Is there a person in this image?</p>
                    </div>
                </div>","0","main_experiment_trial","4","coin_causal","causal_sequence","","","",""
"","","","","","html-keyboard-response","130","432985","0.0-130.0","B1E5B1C0D84F47DA87E7E07D8A287A76","019cefaf-fd22-73b2-83ab-e83e211f7609","019cef87-c56d-7b55-9135-c5814367ec25","","null","
                <div class=""stimulus-container"">
                    <img src=""images/causal_sequence/coin_causal/coin_causal_5.png"" class=""exp-image"">
                    <div class=""question-area""></div> 
                </div>","null","","","","","","","",""
"","","","","","html-button-response","131","434282","0.0-131.0","B1E5B1C0D84F47DA87E7E07D8A287A76","019cefaf-fd22-73b2-83ab-e83e211f7609","019cef87-c56d-7b55-9135-c5814367ec25","","1296","
                <div class=""stimulus-container"">
                    <img src=""images/causal_sequence/coin_causal/coin_causal_5.png"" class=""exp-image"">
                    <div class=""question-area"">
                        <p style=""font-size: 20px; font-weight: bold; margin: 0;"">Is there a person in this image?</p>
                    </div>
                </div>","0","main_experiment_trial","5","coin_causal","causal_sequence","","","",""
"","","","","","html-keyboard-response","132","439285","0.0-132.0","B1E5B1C0D84F47DA87E7E07D8A287A76","019cefaf-fd22-73b2-83ab-e83e211f7609","019cef87-c56d-7b55-9135-c5814367ec25","","null","
                <div class=""stimulus-container"">
                    <img src=""images/causal_sequence/coin_causal/coin_causal_6.png"" class=""exp-image"">
                    <div class=""question-area""></div> 
                </div>","null","","","","","","","",""
"","","","","","html-button-response","133","442099","0.0-133.0","B1E5B1C0D84F47DA87E7E07D8A287A76","019cefaf-fd22-73b2-83ab-e83e211f7609","019cef87-c56d-7b55-9135-c5814367ec25","","2813","
                <div class=""stimulus-container"">
                    <img src=""images/causal_sequence/coin_causal/coin_causal_6.png"" class=""exp-image"">
                    <div class=""question-area"">
                        <p style=""font-size: 20px; font-weight: bold; margin: 0;"">Is there a person in this image?</p>
                    </div>
                </div>","0","main_experiment_trial","6","coin_causal","causal_sequence","","","",""
"","","","","","html-keyboard-response","134","447101","0.0-134.0","B1E5B1C0D84F47DA87E7E07D8A287A76","019cefaf-fd22-73b2-83ab-e83e211f7609","019cef87-c56d-7b55-9135-c5814367ec25","","null","
                <div class=""stimulus-container"">
                    <img src=""images/causal_sequence/coin_causal/coin_causal_7.png"" class=""exp-image"">
                    <div class=""question-area""></div> 
                </div>","null","","","","","","","",""
"","","","","","html-button-response","135","448333","0.0-135.0","B1E5B1C0D84F47DA87E7E07D8A287A76","019cefaf-fd22-73b2-83ab-e83e211f7609","019cef87-c56d-7b55-9135-c5814367ec25","","1231","
                <div class=""stimulus-container"">
                    <img src=""images/causal_sequence/coin_causal/coin_causal_7.png"" class=""exp-image"">
                    <div class=""question-area"">
                        <p style=""font-size: 20px; font-weight: bold; margin: 0;"">Is there a person in this image?</p>
                    </div>
                </div>","1","main_experiment_trial","7","coin_causal","causal_sequence","","","",""
"","","","","","html-keyboard-response","136","453334","0.0-136.0","B1E5B1C0D84F47DA87E7E07D8A287A76","019cefaf-fd22-73b2-83ab-e83e211f7609","019cef87-c56d-7b55-9135-c5814367ec25","","null","
                <div class=""stimulus-container"">
                    <img src=""images/causal_sequence/coin_causal/coin_causal_8.png"" class=""exp-image"">
                    <div class=""question-area""></div> 
                </div>","null","","","","","","","",""
"","","","","","html-button-response","137","453949","0.0-137.0","B1E5B1C0D84F47DA87E7E07D8A287A76","019cefaf-fd22-73b2-83ab-e83e211f7609","019cef87-c56d-7b55-9135-c5814367ec25","","614","
                <div class=""stimulus-container"">
                    <img src=""images/causal_sequence/coin_causal/coin_causal_8.png"" class=""exp-image"">
                    <div class=""question-area"">
                        <p style=""font-size: 20px; font-weight: bold; margin: 0;"">Is there a person in this image?</p>
                    </div>
                </div>","0","main_experiment_trial","8","coin_causal","causal_sequence","","","",""
"","","","","","html-keyboard-response","138","458952","0.0-138.0","B1E5B1C0D84F47DA87E7E07D8A287A76","019cefaf-fd22-73b2-83ab-e83e211f7609","019cef87-c56d-7b55-9135-c5814367ec25","","null","
                <div class=""stimulus-container"">
                    <img src=""images/causal_sequence/coin_causal/coin_causal_9.png"" class=""exp-image"">
                    <div class=""question-area""></div> 
                </div>","null","","","","","","","",""
"","","","","","html-button-response","139","459750","0.0-139.0","B1E5B1C0D84F47DA87E7E07D8A287A76","019cefaf-fd22-73b2-83ab-e83e211f7609","019cef87-c56d-7b55-9135-c5814367ec25","","796","
                <div class=""stimulus-container"">
                    <img src=""images/causal_sequence/coin_causal/coin_causal_9.png"" class=""exp-image"">
                    <div class=""question-area"">
                        <p style=""font-size: 20px; font-weight: bold; margin: 0;"">Is there a person in this image?</p>
                    </div>
                </div>","0","main_experiment_trial","9","coin_causal","causal_sequence","","","",""
"","","","","","html-keyboard-response","140","464752","0.0-140.0","B1E5B1C0D84F47DA87E7E07D8A287A76","019cefaf-fd22-73b2-83ab-e83e211f7609","019cef87-c56d-7b55-9135-c5814367ec25","","null","
                <div class=""stimulus-container"">
                    <img src=""images/causal_sequence/coin_causal/coin_causal_ten.png"" class=""exp-image"">
                    <div class=""question-area""></div> 
                </div>","null","","","","","","","",""
"","","","","","html-button-response","141","465450","0.0-141.0","B1E5B1C0D84F47DA87E7E07D8A287A76","019cefaf-fd22-73b2-83ab-e83e211f7609","019cef87-c56d-7b55-9135-c5814367ec25","","697","
                <div class=""stimulus-container"">
                    <img src=""images/causal_sequence/coin_causal/coin_causal_ten.png"" class=""exp-image"">
                    <div class=""question-area"">
                        <p style=""font-size: 20px; font-weight: bold; margin: 0;"">Is there a person in this image?</p>
                    </div>
                </div>","0","main_experiment_trial","ten","coin_causal","causal_sequence","","","",""
"","","","","","html-keyboard-response","142","466452","0.0-142.0","B1E5B1C0D84F47DA87E7E07D8A287A76","019cefaf-fd22-73b2-83ab-e83e211f7609","019cef87-c56d-7b55-9135-c5814367ec25","","null","<div style=""background-color: white; width: 100vw; height: 100vh;""></div>","null","","","","","","","",""
"","","","","","html-keyboard-response","143","471454","0.0-143.0","B1E5B1C0D84F47DA87E7E07D8A287A76","019cefaf-fd22-73b2-83ab-e83e211f7609","019cef87-c56d-7b55-9135-c5814367ec25","","null","
                <div class=""stimulus-container"">
                    <img src=""images/schematic_sequence/hotel_scheme/hotel_scheme_1.png"" class=""exp-image"">
                    <div class=""question-area""></div> 
                </div>","null","","","","","","","",""
"","","","","","html-button-response","144","473466","0.0-144.0","B1E5B1C0D84F47DA87E7E07D8A287A76","019cefaf-fd22-73b2-83ab-e83e211f7609","019cef87-c56d-7b55-9135-c5814367ec25","","2010","
                <div class=""stimulus-container"">
                    <img src=""images/schematic_sequence/hotel_scheme/hotel_scheme_1.png"" class=""exp-image"">
                    <div class=""question-area"">
                        <p style=""font-size: 20px; font-weight: bold; margin: 0;"">Is there a person in this image?</p>
                    </div>
                </div>","1","main_experiment_trial","1","hotel_scheme","schematic_sequence","","","",""
"","","","","","html-keyboard-response","145","478467","0.0-145.0","B1E5B1C0D84F47DA87E7E07D8A287A76","019cefaf-fd22-73b2-83ab-e83e211f7609","019cef87-c56d-7b55-9135-c5814367ec25","","null","
                <div class=""stimulus-container"">
                    <img src=""images/schematic_sequence/hotel_scheme/hotel_scheme_2.png"" class=""exp-image"">
                    <div class=""question-area""></div> 
                </div>","null","","","","","","","",""
"","","","","","html-button-response","146","479466","0.0-146.0","B1E5B1C0D84F47DA87E7E07D8A287A76","019cefaf-fd22-73b2-83ab-e83e211f7609","019cef87-c56d-7b55-9135-c5814367ec25","","997","
                <div class=""stimulus-container"">
                    <img src=""images/schematic_sequence/hotel_scheme/hotel_scheme_2.png"" class=""exp-image"">
                    <div class=""question-area"">
                        <p style=""font-size: 20px; font-weight: bold; margin: 0;"">Is there a person in this image?</p>
                    </div>
                </div>","0","main_experiment_trial","2","hotel_scheme","schematic_sequence","","","",""
"","","","","","html-keyboard-response","147","484468","0.0-147.0","B1E5B1C0D84F47DA87E7E07D8A287A76","019cefaf-fd22-73b2-83ab-e83e211f7609","019cef87-c56d-7b55-9135-c5814367ec25","","null","
                <div class=""stimulus-container"">
                    <img src=""images/schematic_sequence/hotel_scheme/hotel_scheme_3.png"" class=""exp-image"">
                    <div class=""question-area""></div> 
                </div>","null","","","","","","","",""
"","","","","","html-button-response","148","486449","0.0-148.0","B1E5B1C0D84F47DA87E7E07D8A287A76","019cefaf-fd22-73b2-83ab-e83e211f7609","019cef87-c56d-7b55-9135-c5814367ec25","","1980","
                <div class=""stimulus-container"">
                    <img src=""images/schematic_sequence/hotel_scheme/hotel_scheme_3.png"" class=""exp-image"">
                    <div class=""question-area"">
                        <p style=""font-size: 20px; font-weight: bold; margin: 0;"">Is there a person in this image?</p>
                    </div>
                </div>","0","main_experiment_trial","3","hotel_scheme","schematic_sequence","","","",""
"","","","","","html-keyboard-response","149","491450","0.0-149.0","B1E5B1C0D84F47DA87E7E07D8A287A76","019cefaf-fd22-73b2-83ab-e83e211f7609","019cef87-c56d-7b55-9135-c5814367ec25","","null","
                <div class=""stimulus-container"">
                    <img src=""images/schematic_sequence/hotel_scheme/hotel_scheme_4.png"" class=""exp-image"">
                    <div class=""question-area""></div> 
                </div>","null","","","","","","","",""
"","","","","","html-button-response","150","492232","0.0-150.0","B1E5B1C0D84F47DA87E7E07D8A287A76","019cefaf-fd22-73b2-83ab-e83e211f7609","019cef87-c56d-7b55-9135-c5814367ec25","","781","
                <div class=""stimulus-container"">
                    <img src=""images/schematic_sequence/hotel_scheme/hotel_scheme_4.png"" class=""exp-image"">
                    <div class=""question-area"">
                        <p style=""font-size: 20px; font-weight: bold; margin: 0;"">Is there a person in this image?</p>
                    </div>
                </div>","1","main_experiment_trial","4","hotel_scheme","schematic_sequence","","","",""
"","","","","","html-keyboard-response","151","497235","0.0-151.0","B1E5B1C0D84F47DA87E7E07D8A287A76","019cefaf-fd22-73b2-83ab-e83e211f7609","019cef87-c56d-7b55-9135-c5814367ec25","","null","
                <div class=""stimulus-container"">
                    <img src=""images/schematic_sequence/hotel_scheme/hotel_scheme_5.png"" class=""exp-image"">
                    <div class=""question-area""></div> 
                </div>","null","","","","","","","",""
"","","","","","html-button-response","152","500238","0.0-152.0","B1E5B1C0D84F47DA87E7E07D8A287A76","019cefaf-fd22-73b2-83ab-e83e211f7609","019cef87-c56d-7b55-9135-c5814367ec25","","null","
                <div class=""stimulus-container"">
                    <img src=""images/schematic_sequence/hotel_scheme/hotel_scheme_5.png"" class=""exp-image"">
                    <div class=""question-area"">
                        <p style=""font-size: 20px; font-weight: bold; margin: 0;"">Is there a person in this image?</p>
                    </div>
                </div>","null","main_experiment_trial","5","hotel_scheme","schematic_sequence","","","",""
"","","","","","html-keyboard-response","153","505240","0.0-153.0","B1E5B1C0D84F47DA87E7E07D8A287A76","019cefaf-fd22-73b2-83ab-e83e211f7609","019cef87-c56d-7b55-9135-c5814367ec25","","null","
                <div class=""stimulus-container"">
                    <img src=""images/schematic_sequence/hotel_scheme/hotel_scheme_6.png"" class=""exp-image"">
                    <div class=""question-area""></div> 
                </div>","null","","","","","","","",""
"","","","","","html-button-response","154","506399","0.0-154.0","B1E5B1C0D84F47DA87E7E07D8A287A76","019cefaf-fd22-73b2-83ab-e83e211f7609","019cef87-c56d-7b55-9135-c5814367ec25","","1158","
                <div class=""stimulus-container"">
                    <img src=""images/schematic_sequence/hotel_scheme/hotel_scheme_6.png"" class=""exp-image"">
                    <div class=""question-area"">
                        <p style=""font-size: 20px; font-weight: bold; margin: 0;"">Is there a person in this image?</p>
                    </div>
                </div>","0","main_experiment_trial","6","hotel_scheme","schematic_sequence","","","",""
"","","","","","html-keyboard-response","155","511400","0.0-155.0","B1E5B1C0D84F47DA87E7E07D8A287A76","019cefaf-fd22-73b2-83ab-e83e211f7609","019cef87-c56d-7b55-9135-c5814367ec25","","null","
                <div class=""stimulus-container"">
                    <img src=""images/schematic_sequence/hotel_scheme/hotel_scheme_7.png"" class=""exp-image"">
                    <div class=""question-area""></div> 
                </div>","null","","","","","","","",""
"","","","","","html-button-response","156","512549","0.0-156.0","B1E5B1C0D84F47DA87E7E07D8A287A76","019cefaf-fd22-73b2-83ab-e83e211f7609","019cef87-c56d-7b55-9135-c5814367ec25","","1147","
                <div class=""stimulus-container"">
                    <img src=""images/schematic_sequence/hotel_scheme/hotel_scheme_7.png"" class=""exp-image"">
                    <div class=""question-area"">
                        <p style=""font-size: 20px; font-weight: bold; margin: 0;"">Is there a person in this image?</p>
                    </div>
                </div>","0","main_experiment_trial","7","hotel_scheme","schematic_sequence","","","",""
"","","","","","html-keyboard-response","157","517550","0.0-157.0","B1E5B1C0D84F47DA87E7E07D8A287A76","019cefaf-fd22-73b2-83ab-e83e211f7609","019cef87-c56d-7b55-9135-c5814367ec25","","null","
                <div class=""stimulus-container"">
                    <img src=""images/schematic_sequence/hotel_scheme/hotel_scheme_8.png"" class=""exp-image"">
                    <div class=""question-area""></div> 
                </div>","null","","","","","","","",""
"","","","","","html-button-response","158","518149","0.0-158.0","B1E5B1C0D84F47DA87E7E07D8A287A76","019cefaf-fd22-73b2-83ab-e83e211f7609","019cef87-c56d-7b55-9135-c5814367ec25","","597","
                <div class=""stimulus-container"">
                    <img src=""images/schematic_sequence/hotel_scheme/hotel_scheme_8.png"" class=""exp-image"">
                    <div class=""question-area"">
                        <p style=""font-size: 20px; font-weight: bold; margin: 0;"">Is there a person in this image?</p>
                    </div>
                </div>","0","main_experiment_trial","8","hotel_scheme","schematic_sequence","","","",""
"","","","","","html-keyboard-response","159","523151","0.0-159.0","B1E5B1C0D84F47DA87E7E07D8A287A76","019cefaf-fd22-73b2-83ab-e83e211f7609","019cef87-c56d-7b55-9135-c5814367ec25","","null","
                <div class=""stimulus-container"">
                    <img src=""images/schematic_sequence/hotel_scheme/hotel_scheme_9.png"" class=""exp-image"">
                    <div class=""question-area""></div> 
                </div>","null","","","","","","","",""
"","","","","","html-button-response","160","523765","0.0-160.0","B1E5B1C0D84F47DA87E7E07D8A287A76","019cefaf-fd22-73b2-83ab-e83e211f7609","019cef87-c56d-7b55-9135-c5814367ec25","","613","
                <div class=""stimulus-container"">
                    <img src=""images/schematic_sequence/hotel_scheme/hotel_scheme_9.png"" class=""exp-image"">
                    <div class=""question-area"">
                        <p style=""font-size: 20px; font-weight: bold; margin: 0;"">Is there a person in this image?</p>
                    </div>
                </div>","0","main_experiment_trial","9","hotel_scheme","schematic_sequence","","","",""
"","","","","","html-keyboard-response","161","528767","0.0-161.0","B1E5B1C0D84F47DA87E7E07D8A287A76","019cefaf-fd22-73b2-83ab-e83e211f7609","019cef87-c56d-7b55-9135-c5814367ec25","","null","
                <div class=""stimulus-container"">
                    <img src=""images/schematic_sequence/hotel_scheme/hotel_scheme_ten.png"" class=""exp-image"">
                    <div class=""question-area""></div> 
                </div>","null","","","","","","","",""
"","","","","","html-button-response","162","529348","0.0-162.0","B1E5B1C0D84F47DA87E7E07D8A287A76","019cefaf-fd22-73b2-83ab-e83e211f7609","019cef87-c56d-7b55-9135-c5814367ec25","","580","
                <div class=""stimulus-container"">
                    <img src=""images/schematic_sequence/hotel_scheme/hotel_scheme_ten.png"" class=""exp-image"">
                    <div class=""question-area"">
                        <p style=""font-size: 20px; font-weight: bold; margin: 0;"">Is there a person in this image?</p>
                    </div>
                </div>","0","main_experiment_trial","ten","hotel_scheme","schematic_sequence","","","",""
"","","","","","html-keyboard-response","163","530350","0.0-163.0","B1E5B1C0D84F47DA87E7E07D8A287A76","019cefaf-fd22-73b2-83ab-e83e211f7609","019cef87-c56d-7b55-9135-c5814367ec25","","null","<div style=""background-color: white; width: 100vw; height: 100vh;""></div>","null","","","","","","","",""
"","","","","","html-keyboard-response","164","535353","0.0-164.0","B1E5B1C0D84F47DA87E7E07D8A287A76","019cefaf-fd22-73b2-83ab-e83e211f7609","019cef87-c56d-7b55-9135-c5814367ec25","","null","
                <div class=""stimulus-container"">
                    <img src=""images/causal_sequence/museum_causal/museum_causal_1.png"" class=""exp-image"">
                    <div class=""question-area""></div> 
                </div>","null","","","","","","","",""
"","","","","","html-button-response","165","536166","0.0-165.0","B1E5B1C0D84F47DA87E7E07D8A287A76","019cefaf-fd22-73b2-83ab-e83e211f7609","019cef87-c56d-7b55-9135-c5814367ec25","","811","
                <div class=""stimulus-container"">
                    <img src=""images/causal_sequence/museum_causal/museum_causal_1.png"" class=""exp-image"">
                    <div class=""question-area"">
                        <p style=""font-size: 20px; font-weight: bold; margin: 0;"">Is there a person in this image?</p>
                    </div>
                </div>","0","main_experiment_trial","1","museum_causal","causal_sequence","","","",""
"","","","","","html-keyboard-response","166","541167","0.0-166.0","B1E5B1C0D84F47DA87E7E07D8A287A76","019cefaf-fd22-73b2-83ab-e83e211f7609","019cef87-c56d-7b55-9135-c5814367ec25","","null","
                <div class=""stimulus-container"">
                    <img src=""images/causal_sequence/museum_causal/museum_causal_2.png"" class=""exp-image"">
                    <div class=""question-area""></div> 
                </div>","null","","","","","","","",""
"","","","","","html-button-response","167","543348","0.0-167.0","B1E5B1C0D84F47DA87E7E07D8A287A76","019cefaf-fd22-73b2-83ab-e83e211f7609","019cef87-c56d-7b55-9135-c5814367ec25","","2180","
                <div class=""stimulus-container"">
                    <img src=""images/causal_sequence/museum_causal/museum_causal_2.png"" class=""exp-image"">
                    <div class=""question-area"">
                        <p style=""font-size: 20px; font-weight: bold; margin: 0;"">Is there a person in this image?</p>
                    </div>
                </div>","0","main_experiment_trial","2","museum_causal","causal_sequence","","","",""
"","","","","","html-keyboard-response","168","548351","0.0-168.0","B1E5B1C0D84F47DA87E7E07D8A287A76","019cefaf-fd22-73b2-83ab-e83e211f7609","019cef87-c56d-7b55-9135-c5814367ec25","","null","
                <div class=""stimulus-container"">
                    <img src=""images/causal_sequence/museum_causal/museum_causal_3.png"" class=""exp-image"">
                    <div class=""question-area""></div> 
                </div>","null","","","","","","","",""
"","","","","","html-button-response","169","549048","0.0-169.0","B1E5B1C0D84F47DA87E7E07D8A287A76","019cefaf-fd22-73b2-83ab-e83e211f7609","019cef87-c56d-7b55-9135-c5814367ec25","","697","
                <div class=""stimulus-container"">
                    <img src=""images/causal_sequence/museum_causal/museum_causal_3.png"" class=""exp-image"">
                    <div class=""question-area"">
                        <p style=""font-size: 20px; font-weight: bold; margin: 0;"">Is there a person in this image?</p>
                    </div>
                </div>","0","main_experiment_trial","3","museum_causal","causal_sequence","","","",""
"","","","","","html-keyboard-response","170","554049","0.0-170.0","B1E5B1C0D84F47DA87E7E07D8A287A76","019cefaf-fd22-73b2-83ab-e83e211f7609","019cef87-c56d-7b55-9135-c5814367ec25","","null","
                <div class=""stimulus-container"">
                    <img src=""images/causal_sequence/museum_causal/museum_causal_4.png"" class=""exp-image"">
                    <div class=""question-area""></div> 
                </div>","null","","","","","","","",""
"","","","","","html-button-response","171","555464","0.0-171.0","B1E5B1C0D84F47DA87E7E07D8A287A76","019cefaf-fd22-73b2-83ab-e83e211f7609","019cef87-c56d-7b55-9135-c5814367ec25","","1414","
                <div class=""stimulus-container"">
                    <img src=""images/causal_sequence/museum_causal/museum_causal_4.png"" class=""exp-image"">
                    <div class=""question-area"">
                        <p style=""font-size: 20px; font-weight: bold; margin: 0;"">Is there a person in this image?</p>
                    </div>
                </div>","1","main_experiment_trial","4","museum_causal","causal_sequence","","","",""
"","","","","","html-keyboard-response","172","560466","0.0-172.0","B1E5B1C0D84F47DA87E7E07D8A287A76","019cefaf-fd22-73b2-83ab-e83e211f7609","019cef87-c56d-7b55-9135-c5814367ec25","","null","
                <div class=""stimulus-container"">
                    <img src=""images/causal_sequence/museum_causal/museum_causal_5.png"" class=""exp-image"">
                    <div class=""question-area""></div> 
                </div>","null","","","","","","","",""
"","","","","","html-button-response","173","561832","0.0-173.0","B1E5B1C0D84F47DA87E7E07D8A287A76","019cefaf-fd22-73b2-83ab-e83e211f7609","019cef87-c56d-7b55-9135-c5814367ec25","","1365","
                <div class=""stimulus-container"">
                    <img src=""images/causal_sequence/museum_causal/museum_causal_5.png"" class=""exp-image"">
                    <div class=""question-area"">
                        <p style=""font-size: 20px; font-weight: bold; margin: 0;"">Is there a person in this image?</p>
                    </div>
                </div>","0","main_experiment_trial","5","museum_causal","causal_sequence","","","",""
"","","","","","html-keyboard-response","174","566834","0.0-174.0","B1E5B1C0D84F47DA87E7E07D8A287A76","019cefaf-fd22-73b2-83ab-e83e211f7609","019cef87-c56d-7b55-9135-c5814367ec25","","null","
                <div class=""stimulus-container"">
                    <img src=""images/causal_sequence/museum_causal/museum_causal_6.png"" class=""exp-image"">
                    <div class=""question-area""></div> 
                </div>","null","","","","","","","",""
"","","","","","html-button-response","175","567499","0.0-175.0","B1E5B1C0D84F47DA87E7E07D8A287A76","019cefaf-fd22-73b2-83ab-e83e211f7609","019cef87-c56d-7b55-9135-c5814367ec25","","664","
                <div class=""stimulus-container"">
                    <img src=""images/causal_sequence/museum_causal/museum_causal_6.png"" class=""exp-image"">
                    <div class=""question-area"">
                        <p style=""font-size: 20px; font-weight: bold; margin: 0;"">Is there a person in this image?</p>
                    </div>
                </div>","0","main_experiment_trial","6","museum_causal","causal_sequence","","","",""
"","","","","","html-keyboard-response","176","572501","0.0-176.0","B1E5B1C0D84F47DA87E7E07D8A287A76","019cefaf-fd22-73b2-83ab-e83e211f7609","019cef87-c56d-7b55-9135-c5814367ec25","","null","
                <div class=""stimulus-container"">
                    <img src=""images/causal_sequence/museum_causal/museum_causal_7.png"" class=""exp-image"">
                    <div class=""question-area""></div> 
                </div>","null","","","","","","","",""
"","","","","","html-button-response","177","573481","0.0-177.0","B1E5B1C0D84F47DA87E7E07D8A287A76","019cefaf-fd22-73b2-83ab-e83e211f7609","019cef87-c56d-7b55-9135-c5814367ec25","","979","
                <div class=""stimulus-container"">
                    <img src=""images/causal_sequence/museum_causal/museum_causal_7.png"" class=""exp-image"">
                    <div class=""question-area"">
                        <p style=""font-size: 20px; font-weight: bold; margin: 0;"">Is there a person in this image?</p>
                    </div>
                </div>","1","main_experiment_trial","7","museum_causal","causal_sequence","","","",""
"","","","","","html-keyboard-response","178","578484","0.0-178.0","B1E5B1C0D84F47DA87E7E07D8A287A76","019cefaf-fd22-73b2-83ab-e83e211f7609","019cef87-c56d-7b55-9135-c5814367ec25","","null","
                <div class=""stimulus-container"">
                    <img src=""images/causal_sequence/museum_causal/museum_causal_8.png"" class=""exp-image"">
                    <div class=""question-area""></div> 
                </div>","null","","","","","","","",""
"","","","","","html-button-response","179","579881","0.0-179.0","B1E5B1C0D84F47DA87E7E07D8A287A76","019cefaf-fd22-73b2-83ab-e83e211f7609","019cef87-c56d-7b55-9135-c5814367ec25","","1396","
                <div class=""stimulus-container"">
                    <img src=""images/causal_sequence/museum_causal/museum_causal_8.png"" class=""exp-image"">
                    <div class=""question-area"">
                        <p style=""font-size: 20px; font-weight: bold; margin: 0;"">Is there a person in this image?</p>
                    </div>
                </div>","0","main_experiment_trial","8","museum_causal","causal_sequence","","","",""
"","","","","","html-keyboard-response","180","584883","0.0-180.0","B1E5B1C0D84F47DA87E7E07D8A287A76","019cefaf-fd22-73b2-83ab-e83e211f7609","019cef87-c56d-7b55-9135-c5814367ec25","","null","
                <div class=""stimulus-container"">
                    <img src=""images/causal_sequence/museum_causal/museum_causal_9.png"" class=""exp-image"">
                    <div class=""question-area""></div> 
                </div>","null","","","","","","","",""
"","","","","","html-button-response","181","585348","0.0-181.0","B1E5B1C0D84F47DA87E7E07D8A287A76","019cefaf-fd22-73b2-83ab-e83e211f7609","019cef87-c56d-7b55-9135-c5814367ec25","","464","
                <div class=""stimulus-container"">
                    <img src=""images/causal_sequence/museum_causal/museum_causal_9.png"" class=""exp-image"">
                    <div class=""question-area"">
                        <p style=""font-size: 20px; font-weight: bold; margin: 0;"">Is there a person in this image?</p>
                    </div>
                </div>","1","main_experiment_trial","9","museum_causal","causal_sequence","","","",""
"","","","","","html-keyboard-response","182","590350","0.0-182.0","B1E5B1C0D84F47DA87E7E07D8A287A76","019cefaf-fd22-73b2-83ab-e83e211f7609","019cef87-c56d-7b55-9135-c5814367ec25","","null","
                <div class=""stimulus-container"">
                    <img src=""images/causal_sequence/museum_causal/museum_causal_ten.png"" class=""exp-image"">
                    <div class=""question-area""></div> 
                </div>","null","","","","","","","",""
"","","","","","html-button-response","183","590715","0.0-183.0","B1E5B1C0D84F47DA87E7E07D8A287A76","019cefaf-fd22-73b2-83ab-e83e211f7609","019cef87-c56d-7b55-9135-c5814367ec25","","364","
                <div class=""stimulus-container"">
                    <img src=""images/causal_sequence/museum_causal/museum_causal_ten.png"" class=""exp-image"">
                    <div class=""question-area"">
                        <p style=""font-size: 20px; font-weight: bold; margin: 0;"">Is there a person in this image?</p>
                    </div>
                </div>","0","main_experiment_trial","ten","museum_causal","causal_sequence","","","",""
"","","","","","html-keyboard-response","184","591717","0.0-184.0","B1E5B1C0D84F47DA87E7E07D8A287A76","019cefaf-fd22-73b2-83ab-e83e211f7609","019cef87-c56d-7b55-9135-c5814367ec25","","null","<div style=""background-color: white; width: 100vw; height: 100vh;""></div>","null","","","","","","","",""
