"success","timeout","failed_images","failed_audio","failed_video","trial_type","trial_index","time_elapsed","internal_node_id","subject_id","study_id","session_id","view_history","rt","stimulus","response","task","image_index","folder","sequence_type","presentation_order","valuable_image_index","reward_type","distance_from_x","target_X","chosen_image_index","is_x_plus_dist","correct_choice"
"true","false","[]","[]","[]","preload","0","11053","0.0-0.0","093E49E85F5F41DDAEF6E4B61079FF92","019cfc3b-38be-73ab-9867-1ff1d77a1c73","019cfc28-2143-7934-89cc-ce6402563331","","","","","","","","","","","","","","","",""
"","","","","","instructions","1","17522","0.0-1.0","093E49E85F5F41DDAEF6E4B61079FF92","019cfc3b-38be-73ab-9867-1ff1d77a1c73","019cfc28-2143-7934-89cc-ce6402563331","[{""page_index"":0,""viewing_time"":6467}]","6467","","","","","","","","","","","","","",""
"","","","","","instructions","2","22568","0.0-2.0","093E49E85F5F41DDAEF6E4B61079FF92","019cfc3b-38be-73ab-9867-1ff1d77a1c73","019cfc28-2143-7934-89cc-ce6402563331","[{""page_index"":0,""viewing_time"":5035}]","5036","","","","","","","","","","","","","",""
"true","","","","","fullscreen","3","25022","0.0-3.0","093E49E85F5F41DDAEF6E4B61079FF92","019cfc3b-38be-73ab-9867-1ff1d77a1c73","019cfc28-2143-7934-89cc-ce6402563331","","1446","","","","","","","","","","","","","",""
"","","","","","instructions","4","34207","0.0-4.0","093E49E85F5F41DDAEF6E4B61079FF92","019cfc3b-38be-73ab-9867-1ff1d77a1c73","019cfc28-2143-7934-89cc-ce6402563331","[{""page_index"":0,""viewing_time"":9183}]","9184","","","","","","","","","","","","","",""
"","","","","","instructions","5","43662","0.0-5.0","093E49E85F5F41DDAEF6E4B61079FF92","019cfc3b-38be-73ab-9867-1ff1d77a1c73","019cfc28-2143-7934-89cc-ce6402563331","[{""page_index"":0,""viewing_time"":9453}]","9453","","","","","","","","","","","","","",""
"","","","","","html-keyboard-response","6","47664","0.0-6.0","093E49E85F5F41DDAEF6E4B61079FF92","019cfc3b-38be-73ab-9867-1ff1d77a1c73","019cfc28-2143-7934-89cc-ce6402563331","","null","
                <div class=""stimulus-container"">
                    <img src=""images/instructions/movie_1.png"" class=""exp-image"">
                    <div class=""question-area""></div> 
                </div>","null","","","","","","","","","","","",""
"","","","","","html-button-response","7","49734","0.0-7.0","093E49E85F5F41DDAEF6E4B61079FF92","019cfc3b-38be-73ab-9867-1ff1d77a1c73","019cfc28-2143-7934-89cc-ce6402563331","","2067","
                <div class=""stimulus-container"">
                    <img src=""images/instructions/movie_1.png"" class=""exp-image"">
                    <div class=""question-area"">
                        <p style=""font-size: 20px; font-weight: bold; margin: 0;"">Was there a person in this image?</p>
                    </div>
                </div>","0","example_question","1","","","","","","","","","",""
"","","","","","html-keyboard-response","8","53741","0.0-8.0","093E49E85F5F41DDAEF6E4B61079FF92","019cfc3b-38be-73ab-9867-1ff1d77a1c73","019cfc28-2143-7934-89cc-ce6402563331","","null","
                <div class=""stimulus-container"">
                    <img src=""images/instructions/movie_2.png"" class=""exp-image"">
                    <div class=""question-area""></div> 
                </div>","null","","","","","","","","","","","",""
"","","","","","html-button-response","9","56548","0.0-9.0","093E49E85F5F41DDAEF6E4B61079FF92","019cfc3b-38be-73ab-9867-1ff1d77a1c73","019cfc28-2143-7934-89cc-ce6402563331","","2805","
                <div class=""stimulus-container"">
                    <img src=""images/instructions/movie_2.png"" class=""exp-image"">
                    <div class=""question-area"">
                        <p style=""font-size: 20px; font-weight: bold; margin: 0;"">Was there a person in this image?</p>
                    </div>
                </div>","0","example_question","2","","","","","","","","","",""
"","","","","","html-keyboard-response","10","60554","0.0-10.0","093E49E85F5F41DDAEF6E4B61079FF92","019cfc3b-38be-73ab-9867-1ff1d77a1c73","019cfc28-2143-7934-89cc-ce6402563331","","null","
                <div class=""stimulus-container"">
                    <img src=""images/instructions/movie_3.png"" class=""exp-image"">
                    <div class=""question-area""></div> 
                </div>","null","","","","","","","","","","","",""
"","","","","","html-button-response","11","61492","0.0-11.0","093E49E85F5F41DDAEF6E4B61079FF92","019cfc3b-38be-73ab-9867-1ff1d77a1c73","019cfc28-2143-7934-89cc-ce6402563331","","936","
                <div class=""stimulus-container"">
                    <img src=""images/instructions/movie_3.png"" class=""exp-image"">
                    <div class=""question-area"">
                        <p style=""font-size: 20px; font-weight: bold; margin: 0;"">Was there a person in this image?</p>
                    </div>
                </div>","0","example_question","3","","","","","","","","","",""
"","","","","","html-keyboard-response","12","65493","0.0-12.0","093E49E85F5F41DDAEF6E4B61079FF92","019cfc3b-38be-73ab-9867-1ff1d77a1c73","019cfc28-2143-7934-89cc-ce6402563331","","null","
                <div class=""stimulus-container"">
                    <img src=""images/instructions/movie_4.png"" class=""exp-image"">
                    <div class=""question-area""></div> 
                </div>","null","","","","","","","","","","","",""
"","","","","","html-button-response","13","67803","0.0-13.0","093E49E85F5F41DDAEF6E4B61079FF92","019cfc3b-38be-73ab-9867-1ff1d77a1c73","019cfc28-2143-7934-89cc-ce6402563331","","2308","
                <div class=""stimulus-container"">
                    <img src=""images/instructions/movie_4.png"" class=""exp-image"">
                    <div class=""question-area"">
                        <p style=""font-size: 20px; font-weight: bold; margin: 0;"">Was there a person in this image?</p>
                    </div>
                </div>","0","example_question","4","","","","","","","","","",""
"","","","","","instructions","14","70402","0.0-14.0","093E49E85F5F41DDAEF6E4B61079FF92","019cfc3b-38be-73ab-9867-1ff1d77a1c73","019cfc28-2143-7934-89cc-ce6402563331","[{""page_index"":0,""viewing_time"":2598}]","2599","","","","","","","","","","","","","",""
"","","","","","instructions","15","88623","0.0-15.0","093E49E85F5F41DDAEF6E4B61079FF92","019cfc3b-38be-73ab-9867-1ff1d77a1c73","019cfc28-2143-7934-89cc-ce6402563331","[{""page_index"":0,""viewing_time"":18220}]","18221","","","","","","","","","","","","","",""
"","","","","","html-keyboard-response","16","93632","0.0-16.0","093E49E85F5F41DDAEF6E4B61079FF92","019cfc3b-38be-73ab-9867-1ff1d77a1c73","019cfc28-2143-7934-89cc-ce6402563331","","null","<div style=""background-color: white; width: 100vw; height: 100vh;""></div>","null","","","","","","","","","","","",""
"","","","","","html-keyboard-response","17","98647","0.0-17.0","093E49E85F5F41DDAEF6E4B61079FF92","019cfc3b-38be-73ab-9867-1ff1d77a1c73","019cfc28-2143-7934-89cc-ce6402563331","","null","
                <div class=""stimulus-container"">
                    <img src=""images/semantic_sequence/self_care_activities_semantic/self_care_activities_semantic_1.png"" class=""exp-image"">
                    <div class=""question-area""></div> 
                </div>","null","","","","","","","","","","","",""
"","","","","","html-button-response","18","100006","0.0-18.0","093E49E85F5F41DDAEF6E4B61079FF92","019cfc3b-38be-73ab-9867-1ff1d77a1c73","019cfc28-2143-7934-89cc-ce6402563331","","1357","
                <div class=""stimulus-container"">
                    <img src=""images/semantic_sequence/self_care_activities_semantic/self_care_activities_semantic_1.png"" class=""exp-image"">
                    <div class=""question-area"">
                        <p style=""font-size: 20px; font-weight: bold; margin: 0;"">Is there a person in this image?</p>
                    </div>
                </div>","0","main_experiment_trial","1","self_care_activities_semantic","semantic_sequence","chronological","","","","","","",""
"","","","","","html-keyboard-response","19","105023","0.0-19.0","093E49E85F5F41DDAEF6E4B61079FF92","019cfc3b-38be-73ab-9867-1ff1d77a1c73","019cfc28-2143-7934-89cc-ce6402563331","","null","
                <div class=""stimulus-container"">
                    <img src=""images/semantic_sequence/self_care_activities_semantic/self_care_activities_semantic_2.png"" class=""exp-image"">
                    <div class=""question-area""></div> 
                </div>","null","","","","","","","","","","","",""
"","","","","","html-button-response","20","105733","0.0-20.0","093E49E85F5F41DDAEF6E4B61079FF92","019cfc3b-38be-73ab-9867-1ff1d77a1c73","019cfc28-2143-7934-89cc-ce6402563331","","709","
                <div class=""stimulus-container"">
                    <img src=""images/semantic_sequence/self_care_activities_semantic/self_care_activities_semantic_2.png"" class=""exp-image"">
                    <div class=""question-area"">
                        <p style=""font-size: 20px; font-weight: bold; margin: 0;"">Is there a person in this image?</p>
                    </div>
                </div>","0","main_experiment_trial","2","self_care_activities_semantic","semantic_sequence","chronological","","","","","","",""
"","","","","","html-keyboard-response","21","110742","0.0-21.0","093E49E85F5F41DDAEF6E4B61079FF92","019cfc3b-38be-73ab-9867-1ff1d77a1c73","019cfc28-2143-7934-89cc-ce6402563331","","null","
                <div class=""stimulus-container"">
                    <img src=""images/semantic_sequence/self_care_activities_semantic/self_care_activities_semantic_3.png"" class=""exp-image"">
                    <div class=""question-area""></div> 
                </div>","null","","","","","","","","","","","",""
"","","","","","html-button-response","22","111477","0.0-22.0","093E49E85F5F41DDAEF6E4B61079FF92","019cfc3b-38be-73ab-9867-1ff1d77a1c73","019cfc28-2143-7934-89cc-ce6402563331","","733","
                <div class=""stimulus-container"">
                    <img src=""images/semantic_sequence/self_care_activities_semantic/self_care_activities_semantic_3.png"" class=""exp-image"">
                    <div class=""question-area"">
                        <p style=""font-size: 20px; font-weight: bold; margin: 0;"">Is there a person in this image?</p>
                    </div>
                </div>","0","main_experiment_trial","3","self_care_activities_semantic","semantic_sequence","chronological","","","","","","",""
"","","","","","html-keyboard-response","23","116492","0.0-23.0","093E49E85F5F41DDAEF6E4B61079FF92","019cfc3b-38be-73ab-9867-1ff1d77a1c73","019cfc28-2143-7934-89cc-ce6402563331","","null","
                <div class=""stimulus-container"">
                    <img src=""images/semantic_sequence/self_care_activities_semantic/self_care_activities_semantic_4.png"" class=""exp-image"">
                    <div class=""question-area""></div> 
                </div>","null","","","","","","","","","","","",""
"","","","","","html-button-response","24","117076","0.0-24.0","093E49E85F5F41DDAEF6E4B61079FF92","019cfc3b-38be-73ab-9867-1ff1d77a1c73","019cfc28-2143-7934-89cc-ce6402563331","","582","
                <div class=""stimulus-container"">
                    <img src=""images/semantic_sequence/self_care_activities_semantic/self_care_activities_semantic_4.png"" class=""exp-image"">
                    <div class=""question-area"">
                        <p style=""font-size: 20px; font-weight: bold; margin: 0;"">Is there a person in this image?</p>
                    </div>
                </div>","0","main_experiment_trial","4","self_care_activities_semantic","semantic_sequence","chronological","","","","","","",""
"","","","","","html-keyboard-response","25","122080","0.0-25.0","093E49E85F5F41DDAEF6E4B61079FF92","019cfc3b-38be-73ab-9867-1ff1d77a1c73","019cfc28-2143-7934-89cc-ce6402563331","","null","
                <div class=""stimulus-container"">
                    <img src=""images/semantic_sequence/self_care_activities_semantic/self_care_activities_semantic_5.png"" class=""exp-image"">
                    <div class=""question-area""></div> 
                </div>","null","","","","","","","","","","","",""
"","","","","","html-button-response","26","123587","0.0-26.0","093E49E85F5F41DDAEF6E4B61079FF92","019cfc3b-38be-73ab-9867-1ff1d77a1c73","019cfc28-2143-7934-89cc-ce6402563331","","1506","
                <div class=""stimulus-container"">
                    <img src=""images/semantic_sequence/self_care_activities_semantic/self_care_activities_semantic_5.png"" class=""exp-image"">
                    <div class=""question-area"">
                        <p style=""font-size: 20px; font-weight: bold; margin: 0;"">Is there a person in this image?</p>
                    </div>
                </div>","0","main_experiment_trial","5","self_care_activities_semantic","semantic_sequence","chronological","","","","","","",""
"","","","","","html-keyboard-response","27","128591","0.0-27.0","093E49E85F5F41DDAEF6E4B61079FF92","019cfc3b-38be-73ab-9867-1ff1d77a1c73","019cfc28-2143-7934-89cc-ce6402563331","","null","
                <div class=""stimulus-container"">
                    <img src=""images/semantic_sequence/self_care_activities_semantic/self_care_activities_semantic_6.png"" class=""exp-image"">
                    <div class=""question-area""></div> 
                </div>","null","","","","","","","","","","","",""
"","","","","","html-button-response","28","130907","0.0-28.0","093E49E85F5F41DDAEF6E4B61079FF92","019cfc3b-38be-73ab-9867-1ff1d77a1c73","019cfc28-2143-7934-89cc-ce6402563331","","2314","
                <div class=""stimulus-container"">
                    <img src=""images/semantic_sequence/self_care_activities_semantic/self_care_activities_semantic_6.png"" class=""exp-image"">
                    <div class=""question-area"">
                        <p style=""font-size: 20px; font-weight: bold; margin: 0;"">Is there a person in this image?</p>
                    </div>
                </div>","1","main_experiment_trial","6","self_care_activities_semantic","semantic_sequence","chronological","","","","","","",""
"","","","","","html-keyboard-response","29","135913","0.0-29.0","093E49E85F5F41DDAEF6E4B61079FF92","019cfc3b-38be-73ab-9867-1ff1d77a1c73","019cfc28-2143-7934-89cc-ce6402563331","","null","
                <div class=""stimulus-container"">
                    <img src=""images/semantic_sequence/self_care_activities_semantic/self_care_activities_semantic_7.png"" class=""exp-image"">
                    <div class=""question-area""></div> 
                </div>","null","","","","","","","","","","","",""
"","","","","","html-button-response","30","137857","0.0-30.0","093E49E85F5F41DDAEF6E4B61079FF92","019cfc3b-38be-73ab-9867-1ff1d77a1c73","019cfc28-2143-7934-89cc-ce6402563331","","1942","
                <div class=""stimulus-container"">
                    <img src=""images/semantic_sequence/self_care_activities_semantic/self_care_activities_semantic_7.png"" class=""exp-image"">
                    <div class=""question-area"">
                        <p style=""font-size: 20px; font-weight: bold; margin: 0;"">Is there a person in this image?</p>
                    </div>
                </div>","0","main_experiment_trial","7","self_care_activities_semantic","semantic_sequence","chronological","","","","","","",""
"","","","","","html-keyboard-response","31","142868","0.0-31.0","093E49E85F5F41DDAEF6E4B61079FF92","019cfc3b-38be-73ab-9867-1ff1d77a1c73","019cfc28-2143-7934-89cc-ce6402563331","","null","
                <div class=""stimulus-container"">
                    <img src=""images/semantic_sequence/self_care_activities_semantic/self_care_activities_semantic_8.png"" class=""exp-image"">
                    <div class=""question-area""></div> 
                </div>","null","","","","","","","","","","","",""
"","","","","","html-button-response","32","144464","0.0-32.0","093E49E85F5F41DDAEF6E4B61079FF92","019cfc3b-38be-73ab-9867-1ff1d77a1c73","019cfc28-2143-7934-89cc-ce6402563331","","1595","
                <div class=""stimulus-container"">
                    <img src=""images/semantic_sequence/self_care_activities_semantic/self_care_activities_semantic_8.png"" class=""exp-image"">
                    <div class=""question-area"">
                        <p style=""font-size: 20px; font-weight: bold; margin: 0;"">Is there a person in this image?</p>
                    </div>
                </div>","0","main_experiment_trial","8","self_care_activities_semantic","semantic_sequence","chronological","","","","","","",""
"","","","","","html-keyboard-response","33","149476","0.0-33.0","093E49E85F5F41DDAEF6E4B61079FF92","019cfc3b-38be-73ab-9867-1ff1d77a1c73","019cfc28-2143-7934-89cc-ce6402563331","","null","
                <div class=""stimulus-container"">
                    <img src=""images/semantic_sequence/self_care_activities_semantic/self_care_activities_semantic_9.png"" class=""exp-image"">
                    <div class=""question-area""></div> 
                </div>","null","","","","","","","","","","","",""
"","","","","","html-button-response","34","150471","0.0-34.0","093E49E85F5F41DDAEF6E4B61079FF92","019cfc3b-38be-73ab-9867-1ff1d77a1c73","019cfc28-2143-7934-89cc-ce6402563331","","994","
                <div class=""stimulus-container"">
                    <img src=""images/semantic_sequence/self_care_activities_semantic/self_care_activities_semantic_9.png"" class=""exp-image"">
                    <div class=""question-area"">
                        <p style=""font-size: 20px; font-weight: bold; margin: 0;"">Is there a person in this image?</p>
                    </div>
                </div>","0","main_experiment_trial","9","self_care_activities_semantic","semantic_sequence","chronological","","","","","","",""
"","","","","","html-keyboard-response","35","155473","0.0-35.0","093E49E85F5F41DDAEF6E4B61079FF92","019cfc3b-38be-73ab-9867-1ff1d77a1c73","019cfc28-2143-7934-89cc-ce6402563331","","null","
                <div class=""stimulus-container"">
                    <img src=""images/semantic_sequence/self_care_activities_semantic/self_care_activities_semantic_ten.png"" class=""exp-image"">
                    <div class=""question-area""></div> 
                </div>","null","","","","","","","","","","","",""
"","","","","","html-button-response","36","156367","0.0-36.0","093E49E85F5F41DDAEF6E4B61079FF92","019cfc3b-38be-73ab-9867-1ff1d77a1c73","019cfc28-2143-7934-89cc-ce6402563331","","893","
                <div class=""stimulus-container"">
                    <img src=""images/semantic_sequence/self_care_activities_semantic/self_care_activities_semantic_ten.png"" class=""exp-image"">
                    <div class=""question-area"">
                        <p style=""font-size: 20px; font-weight: bold; margin: 0;"">Is there a person in this image?</p>
                    </div>
                </div>","0","main_experiment_trial","ten","self_care_activities_semantic","semantic_sequence","chronological","","","","","","",""
"","","","","","html-keyboard-response","37","161382","0.0-37.0","093E49E85F5F41DDAEF6E4B61079FF92","019cfc3b-38be-73ab-9867-1ff1d77a1c73","019cfc28-2143-7934-89cc-ce6402563331","","null","<div style=""background-color: white; width: 100vw; height: 100vh;""></div>","null","","","","","","","","","","","",""
"","","","","","html-keyboard-response","38","166395","0.0-38.0","093E49E85F5F41DDAEF6E4B61079FF92","019cfc3b-38be-73ab-9867-1ff1d77a1c73","019cfc28-2143-7934-89cc-ce6402563331","","null","
                <div class=""stimulus-container"">
                    <img src=""images/schematic_sequence/flight_scheme/flight_scheme_1.png"" class=""exp-image"">
                    <div class=""question-area""></div> 
                </div>","null","","","","","","","","","","","",""
"","","","","","html-button-response","39","167061","0.0-39.0","093E49E85F5F41DDAEF6E4B61079FF92","019cfc3b-38be-73ab-9867-1ff1d77a1c73","019cfc28-2143-7934-89cc-ce6402563331","","665","
                <div class=""stimulus-container"">
                    <img src=""images/schematic_sequence/flight_scheme/flight_scheme_1.png"" class=""exp-image"">
                    <div class=""question-area"">
                        <p style=""font-size: 20px; font-weight: bold; margin: 0;"">Is there a person in this image?</p>
                    </div>
                </div>","0","main_experiment_trial","1","flight_scheme","schematic_sequence","chronological","","","","","","",""
"","","","","","html-keyboard-response","40","172066","0.0-40.0","093E49E85F5F41DDAEF6E4B61079FF92","019cfc3b-38be-73ab-9867-1ff1d77a1c73","019cfc28-2143-7934-89cc-ce6402563331","","null","
                <div class=""stimulus-container"">
                    <img src=""images/schematic_sequence/flight_scheme/flight_scheme_2.png"" class=""exp-image"">
                    <div class=""question-area""></div> 
                </div>","null","","","","","","","","","","","",""
"","","","","","html-button-response","41","172813","0.0-41.0","093E49E85F5F41DDAEF6E4B61079FF92","019cfc3b-38be-73ab-9867-1ff1d77a1c73","019cfc28-2143-7934-89cc-ce6402563331","","745","
                <div class=""stimulus-container"">
                    <img src=""images/schematic_sequence/flight_scheme/flight_scheme_2.png"" class=""exp-image"">
                    <div class=""question-area"">
                        <p style=""font-size: 20px; font-weight: bold; margin: 0;"">Is there a person in this image?</p>
                    </div>
                </div>","1","main_experiment_trial","2","flight_scheme","schematic_sequence","chronological","","","","","","",""
"","","","","","html-keyboard-response","42","177814","0.0-42.0","093E49E85F5F41DDAEF6E4B61079FF92","019cfc3b-38be-73ab-9867-1ff1d77a1c73","019cfc28-2143-7934-89cc-ce6402563331","","null","
                <div class=""stimulus-container"">
                    <img src=""images/schematic_sequence/flight_scheme/flight_scheme_3.png"" class=""exp-image"">
                    <div class=""question-area""></div> 
                </div>","null","","","","","","","","","","","",""
"","","","","","html-button-response","43","178900","0.0-43.0","093E49E85F5F41DDAEF6E4B61079FF92","019cfc3b-38be-73ab-9867-1ff1d77a1c73","019cfc28-2143-7934-89cc-ce6402563331","","1084","
                <div class=""stimulus-container"">
                    <img src=""images/schematic_sequence/flight_scheme/flight_scheme_3.png"" class=""exp-image"">
                    <div class=""question-area"">
                        <p style=""font-size: 20px; font-weight: bold; margin: 0;"">Is there a person in this image?</p>
                    </div>
                </div>","0","main_experiment_trial","3","flight_scheme","schematic_sequence","chronological","","","","","","",""
"","","","","","html-keyboard-response","44","183913","0.0-44.0","093E49E85F5F41DDAEF6E4B61079FF92","019cfc3b-38be-73ab-9867-1ff1d77a1c73","019cfc28-2143-7934-89cc-ce6402563331","","null","
                <div class=""stimulus-container"">
                    <img src=""images/schematic_sequence/flight_scheme/flight_scheme_4.png"" class=""exp-image"">
                    <div class=""question-area""></div> 
                </div>","null","","","","","","","","","","","",""
"","","","","","html-button-response","45","184844","0.0-45.0","093E49E85F5F41DDAEF6E4B61079FF92","019cfc3b-38be-73ab-9867-1ff1d77a1c73","019cfc28-2143-7934-89cc-ce6402563331","","929","
                <div class=""stimulus-container"">
                    <img src=""images/schematic_sequence/flight_scheme/flight_scheme_4.png"" class=""exp-image"">
                    <div class=""question-area"">
                        <p style=""font-size: 20px; font-weight: bold; margin: 0;"">Is there a person in this image?</p>
                    </div>
                </div>","0","main_experiment_trial","4","flight_scheme","schematic_sequence","chronological","","","","","","",""
"","","","","","html-keyboard-response","46","189851","0.0-46.0","093E49E85F5F41DDAEF6E4B61079FF92","019cfc3b-38be-73ab-9867-1ff1d77a1c73","019cfc28-2143-7934-89cc-ce6402563331","","null","
                <div class=""stimulus-container"">
                    <img src=""images/schematic_sequence/flight_scheme/flight_scheme_5.png"" class=""exp-image"">
                    <div class=""question-area""></div> 
                </div>","null","","","","","","","","","","","",""
"","","","","","html-button-response","47","192082","0.0-47.0","093E49E85F5F41DDAEF6E4B61079FF92","019cfc3b-38be-73ab-9867-1ff1d77a1c73","019cfc28-2143-7934-89cc-ce6402563331","","2230","
                <div class=""stimulus-container"">
                    <img src=""images/schematic_sequence/flight_scheme/flight_scheme_5.png"" class=""exp-image"">
                    <div class=""question-area"">
                        <p style=""font-size: 20px; font-weight: bold; margin: 0;"">Is there a person in this image?</p>
                    </div>
                </div>","0","main_experiment_trial","5","flight_scheme","schematic_sequence","chronological","","","","","","",""
"","","","","","html-keyboard-response","48","197085","0.0-48.0","093E49E85F5F41DDAEF6E4B61079FF92","019cfc3b-38be-73ab-9867-1ff1d77a1c73","019cfc28-2143-7934-89cc-ce6402563331","","null","
                <div class=""stimulus-container"">
                    <img src=""images/schematic_sequence/flight_scheme/flight_scheme_6.png"" class=""exp-image"">
                    <div class=""question-area""></div> 
                </div>","null","","","","","","","","","","","",""
"","","","","","html-button-response","49","198865","0.0-49.0","093E49E85F5F41DDAEF6E4B61079FF92","019cfc3b-38be-73ab-9867-1ff1d77a1c73","019cfc28-2143-7934-89cc-ce6402563331","","1778","
                <div class=""stimulus-container"">
                    <img src=""images/schematic_sequence/flight_scheme/flight_scheme_6.png"" class=""exp-image"">
                    <div class=""question-area"">
                        <p style=""font-size: 20px; font-weight: bold; margin: 0;"">Is there a person in this image?</p>
                    </div>
                </div>","1","main_experiment_trial","6","flight_scheme","schematic_sequence","chronological","","","","","","",""
"","","","","","html-keyboard-response","50","203882","0.0-50.0","093E49E85F5F41DDAEF6E4B61079FF92","019cfc3b-38be-73ab-9867-1ff1d77a1c73","019cfc28-2143-7934-89cc-ce6402563331","","null","
                <div class=""stimulus-container"">
                    <img src=""images/schematic_sequence/flight_scheme/flight_scheme_7.png"" class=""exp-image"">
                    <div class=""question-area""></div> 
                </div>","null","","","","","","","","","","","",""
"","","","","","html-button-response","51","205160","0.0-51.0","093E49E85F5F41DDAEF6E4B61079FF92","019cfc3b-38be-73ab-9867-1ff1d77a1c73","019cfc28-2143-7934-89cc-ce6402563331","","1277","
                <div class=""stimulus-container"">
                    <img src=""images/schematic_sequence/flight_scheme/flight_scheme_7.png"" class=""exp-image"">
                    <div class=""question-area"">
                        <p style=""font-size: 20px; font-weight: bold; margin: 0;"">Is there a person in this image?</p>
                    </div>
                </div>","1","main_experiment_trial","7","flight_scheme","schematic_sequence","chronological","","","","","","",""
"","","","","","html-keyboard-response","52","210163","0.0-52.0","093E49E85F5F41DDAEF6E4B61079FF92","019cfc3b-38be-73ab-9867-1ff1d77a1c73","019cfc28-2143-7934-89cc-ce6402563331","","null","
                <div class=""stimulus-container"">
                    <img src=""images/schematic_sequence/flight_scheme/flight_scheme_8.png"" class=""exp-image"">
                    <div class=""question-area""></div> 
                </div>","null","","","","","","","","","","","",""
"","","","","","html-button-response","53","211191","0.0-53.0","093E49E85F5F41DDAEF6E4B61079FF92","019cfc3b-38be-73ab-9867-1ff1d77a1c73","019cfc28-2143-7934-89cc-ce6402563331","","1026","
                <div class=""stimulus-container"">
                    <img src=""images/schematic_sequence/flight_scheme/flight_scheme_8.png"" class=""exp-image"">
                    <div class=""question-area"">
                        <p style=""font-size: 20px; font-weight: bold; margin: 0;"">Is there a person in this image?</p>
                    </div>
                </div>","1","main_experiment_trial","8","flight_scheme","schematic_sequence","chronological","","","","","","",""
"","","","","","html-keyboard-response","54","216194","0.0-54.0","093E49E85F5F41DDAEF6E4B61079FF92","019cfc3b-38be-73ab-9867-1ff1d77a1c73","019cfc28-2143-7934-89cc-ce6402563331","","null","
                <div class=""stimulus-container"">
                    <img src=""images/schematic_sequence/flight_scheme/flight_scheme_9.png"" class=""exp-image"">
                    <div class=""question-area""></div> 
                </div>","null","","","","","","","","","","","",""
"","","","","","html-button-response","55","216639","0.0-55.0","093E49E85F5F41DDAEF6E4B61079FF92","019cfc3b-38be-73ab-9867-1ff1d77a1c73","019cfc28-2143-7934-89cc-ce6402563331","","443","
                <div class=""stimulus-container"">
                    <img src=""images/schematic_sequence/flight_scheme/flight_scheme_9.png"" class=""exp-image"">
                    <div class=""question-area"">
                        <p style=""font-size: 20px; font-weight: bold; margin: 0;"">Is there a person in this image?</p>
                    </div>
                </div>","0","main_experiment_trial","9","flight_scheme","schematic_sequence","chronological","","","","","","",""
"","","","","","html-keyboard-response","56","221648","0.0-56.0","093E49E85F5F41DDAEF6E4B61079FF92","019cfc3b-38be-73ab-9867-1ff1d77a1c73","019cfc28-2143-7934-89cc-ce6402563331","","null","
                <div class=""stimulus-container"">
                    <img src=""images/schematic_sequence/flight_scheme/flight_scheme_ten.png"" class=""exp-image"">
                    <div class=""question-area""></div> 
                </div>","null","","","","","","","","","","","",""
"","","","","","html-button-response","57","222405","0.0-57.0","093E49E85F5F41DDAEF6E4B61079FF92","019cfc3b-38be-73ab-9867-1ff1d77a1c73","019cfc28-2143-7934-89cc-ce6402563331","","756","
                <div class=""stimulus-container"">
                    <img src=""images/schematic_sequence/flight_scheme/flight_scheme_ten.png"" class=""exp-image"">
                    <div class=""question-area"">
                        <p style=""font-size: 20px; font-weight: bold; margin: 0;"">Is there a person in this image?</p>
                    </div>
                </div>","0","main_experiment_trial","ten","flight_scheme","schematic_sequence","chronological","","","","","","",""
"","","","","","html-keyboard-response","58","227414","0.0-58.0","093E49E85F5F41DDAEF6E4B61079FF92","019cfc3b-38be-73ab-9867-1ff1d77a1c73","019cfc28-2143-7934-89cc-ce6402563331","","null","<div style=""background-color: white; width: 100vw; height: 100vh;""></div>","null","","","","","","","","","","","",""
"","","","","","html-keyboard-response","59","232428","0.0-59.0","093E49E85F5F41DDAEF6E4B61079FF92","019cfc3b-38be-73ab-9867-1ff1d77a1c73","019cfc28-2143-7934-89cc-ce6402563331","","null","
                <div class=""stimulus-container"">
                    <img src=""images/schematic_sequence/interview_scheme/interview_scheme_1.png"" class=""exp-image"">
                    <div class=""question-area""></div> 
                </div>","null","","","","","","","","","","","",""
"","","","","","html-button-response","60","232900","0.0-60.0","093E49E85F5F41DDAEF6E4B61079FF92","019cfc3b-38be-73ab-9867-1ff1d77a1c73","019cfc28-2143-7934-89cc-ce6402563331","","470","
                <div class=""stimulus-container"">
                    <img src=""images/schematic_sequence/interview_scheme/interview_scheme_1.png"" class=""exp-image"">
                    <div class=""question-area"">
                        <p style=""font-size: 20px; font-weight: bold; margin: 0;"">Is there a person in this image?</p>
                    </div>
                </div>","1","main_experiment_trial","1","interview_scheme","schematic_sequence","chronological","","","","","","",""
"","","","","","html-keyboard-response","61","237913","0.0-61.0","093E49E85F5F41DDAEF6E4B61079FF92","019cfc3b-38be-73ab-9867-1ff1d77a1c73","019cfc28-2143-7934-89cc-ce6402563331","","null","
                <div class=""stimulus-container"">
                    <img src=""images/schematic_sequence/interview_scheme/interview_scheme_2.png"" class=""exp-image"">
                    <div class=""question-area""></div> 
                </div>","null","","","","","","","","","","","",""
"","","","","","html-button-response","62","239339","0.0-62.0","093E49E85F5F41DDAEF6E4B61079FF92","019cfc3b-38be-73ab-9867-1ff1d77a1c73","019cfc28-2143-7934-89cc-ce6402563331","","1424","
                <div class=""stimulus-container"">
                    <img src=""images/schematic_sequence/interview_scheme/interview_scheme_2.png"" class=""exp-image"">
                    <div class=""question-area"">
                        <p style=""font-size: 20px; font-weight: bold; margin: 0;"">Is there a person in this image?</p>
                    </div>
                </div>","0","main_experiment_trial","2","interview_scheme","schematic_sequence","chronological","","","","","","",""
"","","","","","html-keyboard-response","63","244351","0.0-63.0","093E49E85F5F41DDAEF6E4B61079FF92","019cfc3b-38be-73ab-9867-1ff1d77a1c73","019cfc28-2143-7934-89cc-ce6402563331","","null","
                <div class=""stimulus-container"">
                    <img src=""images/schematic_sequence/interview_scheme/interview_scheme_3.png"" class=""exp-image"">
                    <div class=""question-area""></div> 
                </div>","null","","","","","","","","","","","",""
"","","","","","html-button-response","64","245234","0.0-64.0","093E49E85F5F41DDAEF6E4B61079FF92","019cfc3b-38be-73ab-9867-1ff1d77a1c73","019cfc28-2143-7934-89cc-ce6402563331","","882","
                <div class=""stimulus-container"">
                    <img src=""images/schematic_sequence/interview_scheme/interview_scheme_3.png"" class=""exp-image"">
                    <div class=""question-area"">
                        <p style=""font-size: 20px; font-weight: bold; margin: 0;"">Is there a person in this image?</p>
                    </div>
                </div>","1","main_experiment_trial","3","interview_scheme","schematic_sequence","chronological","","","","","","",""
"","","","","","html-keyboard-response","65","250241","0.0-65.0","093E49E85F5F41DDAEF6E4B61079FF92","019cfc3b-38be-73ab-9867-1ff1d77a1c73","019cfc28-2143-7934-89cc-ce6402563331","","null","
                <div class=""stimulus-container"">
                    <img src=""images/schematic_sequence/interview_scheme/interview_scheme_4.png"" class=""exp-image"">
                    <div class=""question-area""></div> 
                </div>","null","","","","","","","","","","","",""
"","","","","","html-button-response","66","250818","0.0-66.0","093E49E85F5F41DDAEF6E4B61079FF92","019cfc3b-38be-73ab-9867-1ff1d77a1c73","019cfc28-2143-7934-89cc-ce6402563331","","575","
                <div class=""stimulus-container"">
                    <img src=""images/schematic_sequence/interview_scheme/interview_scheme_4.png"" class=""exp-image"">
                    <div class=""question-area"">
                        <p style=""font-size: 20px; font-weight: bold; margin: 0;"">Is there a person in this image?</p>
                    </div>
                </div>","1","main_experiment_trial","4","interview_scheme","schematic_sequence","chronological","","","","","","",""
"","","","","","html-keyboard-response","67","255820","0.0-67.0","093E49E85F5F41DDAEF6E4B61079FF92","019cfc3b-38be-73ab-9867-1ff1d77a1c73","019cfc28-2143-7934-89cc-ce6402563331","","null","
                <div class=""stimulus-container"">
                    <img src=""images/schematic_sequence/interview_scheme/interview_scheme_5.png"" class=""exp-image"">
                    <div class=""question-area""></div> 
                </div>","null","","","","","","","","","","","",""
"","","","","","html-button-response","68","256249","0.0-68.0","093E49E85F5F41DDAEF6E4B61079FF92","019cfc3b-38be-73ab-9867-1ff1d77a1c73","019cfc28-2143-7934-89cc-ce6402563331","","427","
                <div class=""stimulus-container"">
                    <img src=""images/schematic_sequence/interview_scheme/interview_scheme_5.png"" class=""exp-image"">
                    <div class=""question-area"">
                        <p style=""font-size: 20px; font-weight: bold; margin: 0;"">Is there a person in this image?</p>
                    </div>
                </div>","0","main_experiment_trial","5","interview_scheme","schematic_sequence","chronological","","","","","","",""
"","","","","","html-keyboard-response","69","261256","0.0-69.0","093E49E85F5F41DDAEF6E4B61079FF92","019cfc3b-38be-73ab-9867-1ff1d77a1c73","019cfc28-2143-7934-89cc-ce6402563331","","null","
                <div class=""stimulus-container"">
                    <img src=""images/schematic_sequence/interview_scheme/interview_scheme_6.png"" class=""exp-image"">
                    <div class=""question-area""></div> 
                </div>","null","","","","","","","","","","","",""
"","","","","","html-button-response","70","261776","0.0-70.0","093E49E85F5F41DDAEF6E4B61079FF92","019cfc3b-38be-73ab-9867-1ff1d77a1c73","019cfc28-2143-7934-89cc-ce6402563331","","518","
                <div class=""stimulus-container"">
                    <img src=""images/schematic_sequence/interview_scheme/interview_scheme_6.png"" class=""exp-image"">
                    <div class=""question-area"">
                        <p style=""font-size: 20px; font-weight: bold; margin: 0;"">Is there a person in this image?</p>
                    </div>
                </div>","0","main_experiment_trial","6","interview_scheme","schematic_sequence","chronological","","","","","","",""
"","","","","","html-keyboard-response","71","266788","0.0-71.0","093E49E85F5F41DDAEF6E4B61079FF92","019cfc3b-38be-73ab-9867-1ff1d77a1c73","019cfc28-2143-7934-89cc-ce6402563331","","null","
                <div class=""stimulus-container"">
                    <img src=""images/schematic_sequence/interview_scheme/interview_scheme_7.png"" class=""exp-image"">
                    <div class=""question-area""></div> 
                </div>","null","","","","","","","","","","","",""
"","","","","","html-button-response","72","267287","0.0-72.0","093E49E85F5F41DDAEF6E4B61079FF92","019cfc3b-38be-73ab-9867-1ff1d77a1c73","019cfc28-2143-7934-89cc-ce6402563331","","498","
                <div class=""stimulus-container"">
                    <img src=""images/schematic_sequence/interview_scheme/interview_scheme_7.png"" class=""exp-image"">
                    <div class=""question-area"">
                        <p style=""font-size: 20px; font-weight: bold; margin: 0;"">Is there a person in this image?</p>
                    </div>
                </div>","0","main_experiment_trial","7","interview_scheme","schematic_sequence","chronological","","","","","","",""
"","","","","","html-keyboard-response","73","272289","0.0-73.0","093E49E85F5F41DDAEF6E4B61079FF92","019cfc3b-38be-73ab-9867-1ff1d77a1c73","019cfc28-2143-7934-89cc-ce6402563331","","null","
                <div class=""stimulus-container"">
                    <img src=""images/schematic_sequence/interview_scheme/interview_scheme_8.png"" class=""exp-image"">
                    <div class=""question-area""></div> 
                </div>","null","","","","","","","","","","","",""
"","","","","","html-button-response","74","272695","0.0-74.0","093E49E85F5F41DDAEF6E4B61079FF92","019cfc3b-38be-73ab-9867-1ff1d77a1c73","019cfc28-2143-7934-89cc-ce6402563331","","405","
                <div class=""stimulus-container"">
                    <img src=""images/schematic_sequence/interview_scheme/interview_scheme_8.png"" class=""exp-image"">
                    <div class=""question-area"">
                        <p style=""font-size: 20px; font-weight: bold; margin: 0;"">Is there a person in this image?</p>
                    </div>
                </div>","0","main_experiment_trial","8","interview_scheme","schematic_sequence","chronological","","","","","","",""
"","","","","","html-keyboard-response","75","277710","0.0-75.0","093E49E85F5F41DDAEF6E4B61079FF92","019cfc3b-38be-73ab-9867-1ff1d77a1c73","019cfc28-2143-7934-89cc-ce6402563331","","null","
                <div class=""stimulus-container"">
                    <img src=""images/schematic_sequence/interview_scheme/interview_scheme_9.png"" class=""exp-image"">
                    <div class=""question-area""></div> 
                </div>","null","","","","","","","","","","","",""
"","","","","","html-button-response","76","278158","0.0-76.0","093E49E85F5F41DDAEF6E4B61079FF92","019cfc3b-38be-73ab-9867-1ff1d77a1c73","019cfc28-2143-7934-89cc-ce6402563331","","446","
                <div class=""stimulus-container"">
                    <img src=""images/schematic_sequence/interview_scheme/interview_scheme_9.png"" class=""exp-image"">
                    <div class=""question-area"">
                        <p style=""font-size: 20px; font-weight: bold; margin: 0;"">Is there a person in this image?</p>
                    </div>
                </div>","0","main_experiment_trial","9","interview_scheme","schematic_sequence","chronological","","","","","","",""
"","","","","","html-keyboard-response","77","283174","0.0-77.0","093E49E85F5F41DDAEF6E4B61079FF92","019cfc3b-38be-73ab-9867-1ff1d77a1c73","019cfc28-2143-7934-89cc-ce6402563331","","null","
                <div class=""stimulus-container"">
                    <img src=""images/schematic_sequence/interview_scheme/interview_scheme_ten.png"" class=""exp-image"">
                    <div class=""question-area""></div> 
                </div>","null","","","","","","","","","","","",""
"","","","","","html-button-response","78","284277","0.0-78.0","093E49E85F5F41DDAEF6E4B61079FF92","019cfc3b-38be-73ab-9867-1ff1d77a1c73","019cfc28-2143-7934-89cc-ce6402563331","","1102","
                <div class=""stimulus-container"">
                    <img src=""images/schematic_sequence/interview_scheme/interview_scheme_ten.png"" class=""exp-image"">
                    <div class=""question-area"">
                        <p style=""font-size: 20px; font-weight: bold; margin: 0;"">Is there a person in this image?</p>
                    </div>
                </div>","0","main_experiment_trial","ten","interview_scheme","schematic_sequence","chronological","","","","","","",""
"","","","","","html-keyboard-response","79","289288","0.0-79.0","093E49E85F5F41DDAEF6E4B61079FF92","019cfc3b-38be-73ab-9867-1ff1d77a1c73","019cfc28-2143-7934-89cc-ce6402563331","","null","<div style=""background-color: white; width: 100vw; height: 100vh;""></div>","null","","","","","","","","","","","",""
"","","","","","html-keyboard-response","80","294290","0.0-80.0","093E49E85F5F41DDAEF6E4B61079FF92","019cfc3b-38be-73ab-9867-1ff1d77a1c73","019cfc28-2143-7934-89cc-ce6402563331","","null","
                <div class=""stimulus-container"">
                    <img src=""images/schematic_sequence/dinner_party_scheme/dinner_party_scheme_1.png"" class=""exp-image"">
                    <div class=""question-area""></div> 
                </div>","null","","","","","","","","","","","",""
"","","","","","html-button-response","81","295052","0.0-81.0","093E49E85F5F41DDAEF6E4B61079FF92","019cfc3b-38be-73ab-9867-1ff1d77a1c73","019cfc28-2143-7934-89cc-ce6402563331","","760","
                <div class=""stimulus-container"">
                    <img src=""images/schematic_sequence/dinner_party_scheme/dinner_party_scheme_1.png"" class=""exp-image"">
                    <div class=""question-area"">
                        <p style=""font-size: 20px; font-weight: bold; margin: 0;"">Is there a person in this image?</p>
                    </div>
                </div>","0","main_experiment_trial","1","dinner_party_scheme","schematic_sequence","chronological","","","","","","",""
"","","","","","html-keyboard-response","82","300054","0.0-82.0","093E49E85F5F41DDAEF6E4B61079FF92","019cfc3b-38be-73ab-9867-1ff1d77a1c73","019cfc28-2143-7934-89cc-ce6402563331","","null","
                <div class=""stimulus-container"">
                    <img src=""images/schematic_sequence/dinner_party_scheme/dinner_party_scheme_2.png"" class=""exp-image"">
                    <div class=""question-area""></div> 
                </div>","null","","","","","","","","","","","",""
"","","","","","html-button-response","83","300651","0.0-83.0","093E49E85F5F41DDAEF6E4B61079FF92","019cfc3b-38be-73ab-9867-1ff1d77a1c73","019cfc28-2143-7934-89cc-ce6402563331","","595","
                <div class=""stimulus-container"">
                    <img src=""images/schematic_sequence/dinner_party_scheme/dinner_party_scheme_2.png"" class=""exp-image"">
                    <div class=""question-area"">
                        <p style=""font-size: 20px; font-weight: bold; margin: 0;"">Is there a person in this image?</p>
                    </div>
                </div>","0","main_experiment_trial","2","dinner_party_scheme","schematic_sequence","chronological","","","","","","",""
"","","","","","html-keyboard-response","84","305664","0.0-84.0","093E49E85F5F41DDAEF6E4B61079FF92","019cfc3b-38be-73ab-9867-1ff1d77a1c73","019cfc28-2143-7934-89cc-ce6402563331","","null","
                <div class=""stimulus-container"">
                    <img src=""images/schematic_sequence/dinner_party_scheme/dinner_party_scheme_3.png"" class=""exp-image"">
                    <div class=""question-area""></div> 
                </div>","null","","","","","","","","","","","",""
"","","","","","html-button-response","85","306306","0.0-85.0","093E49E85F5F41DDAEF6E4B61079FF92","019cfc3b-38be-73ab-9867-1ff1d77a1c73","019cfc28-2143-7934-89cc-ce6402563331","","641","
                <div class=""stimulus-container"">
                    <img src=""images/schematic_sequence/dinner_party_scheme/dinner_party_scheme_3.png"" class=""exp-image"">
                    <div class=""question-area"">
                        <p style=""font-size: 20px; font-weight: bold; margin: 0;"">Is there a person in this image?</p>
                    </div>
                </div>","0","main_experiment_trial","3","dinner_party_scheme","schematic_sequence","chronological","","","","","","",""
"","","","","","html-keyboard-response","86","311321","0.0-86.0","093E49E85F5F41DDAEF6E4B61079FF92","019cfc3b-38be-73ab-9867-1ff1d77a1c73","019cfc28-2143-7934-89cc-ce6402563331","","null","
                <div class=""stimulus-container"">
                    <img src=""images/schematic_sequence/dinner_party_scheme/dinner_party_scheme_4.png"" class=""exp-image"">
                    <div class=""question-area""></div> 
                </div>","null","","","","","","","","","","","",""
"","","","","","html-button-response","87","312865","0.0-87.0","093E49E85F5F41DDAEF6E4B61079FF92","019cfc3b-38be-73ab-9867-1ff1d77a1c73","019cfc28-2143-7934-89cc-ce6402563331","","1543","
                <div class=""stimulus-container"">
                    <img src=""images/schematic_sequence/dinner_party_scheme/dinner_party_scheme_4.png"" class=""exp-image"">
                    <div class=""question-area"">
                        <p style=""font-size: 20px; font-weight: bold; margin: 0;"">Is there a person in this image?</p>
                    </div>
                </div>","0","main_experiment_trial","4","dinner_party_scheme","schematic_sequence","chronological","","","","","","",""
"","","","","","html-keyboard-response","88","317882","0.0-88.0","093E49E85F5F41DDAEF6E4B61079FF92","019cfc3b-38be-73ab-9867-1ff1d77a1c73","019cfc28-2143-7934-89cc-ce6402563331","","null","
                <div class=""stimulus-container"">
                    <img src=""images/schematic_sequence/dinner_party_scheme/dinner_party_scheme_5.png"" class=""exp-image"">
                    <div class=""question-area""></div> 
                </div>","null","","","","","","","","","","","",""
"","","","","","html-button-response","89","319328","0.0-89.0","093E49E85F5F41DDAEF6E4B61079FF92","019cfc3b-38be-73ab-9867-1ff1d77a1c73","019cfc28-2143-7934-89cc-ce6402563331","","1445","
                <div class=""stimulus-container"">
                    <img src=""images/schematic_sequence/dinner_party_scheme/dinner_party_scheme_5.png"" class=""exp-image"">
                    <div class=""question-area"">
                        <p style=""font-size: 20px; font-weight: bold; margin: 0;"">Is there a person in this image?</p>
                    </div>
                </div>","0","main_experiment_trial","5","dinner_party_scheme","schematic_sequence","chronological","","","","","","",""
"","","","","","html-keyboard-response","90","324335","0.0-90.0","093E49E85F5F41DDAEF6E4B61079FF92","019cfc3b-38be-73ab-9867-1ff1d77a1c73","019cfc28-2143-7934-89cc-ce6402563331","","null","
                <div class=""stimulus-container"">
                    <img src=""images/schematic_sequence/dinner_party_scheme/dinner_party_scheme_6.png"" class=""exp-image"">
                    <div class=""question-area""></div> 
                </div>","null","","","","","","","","","","","",""
"","","","","","html-button-response","91","325943","0.0-91.0","093E49E85F5F41DDAEF6E4B61079FF92","019cfc3b-38be-73ab-9867-1ff1d77a1c73","019cfc28-2143-7934-89cc-ce6402563331","","1607","
                <div class=""stimulus-container"">
                    <img src=""images/schematic_sequence/dinner_party_scheme/dinner_party_scheme_6.png"" class=""exp-image"">
                    <div class=""question-area"">
                        <p style=""font-size: 20px; font-weight: bold; margin: 0;"">Is there a person in this image?</p>
                    </div>
                </div>","0","main_experiment_trial","6","dinner_party_scheme","schematic_sequence","chronological","","","","","","",""
"","","","","","html-keyboard-response","92","330949","0.0-92.0","093E49E85F5F41DDAEF6E4B61079FF92","019cfc3b-38be-73ab-9867-1ff1d77a1c73","019cfc28-2143-7934-89cc-ce6402563331","","null","
                <div class=""stimulus-container"">
                    <img src=""images/schematic_sequence/dinner_party_scheme/dinner_party_scheme_7.png"" class=""exp-image"">
                    <div class=""question-area""></div> 
                </div>","null","","","","","","","","","","","",""
"","","","","","html-button-response","93","331831","0.0-93.0","093E49E85F5F41DDAEF6E4B61079FF92","019cfc3b-38be-73ab-9867-1ff1d77a1c73","019cfc28-2143-7934-89cc-ce6402563331","","880","
                <div class=""stimulus-container"">
                    <img src=""images/schematic_sequence/dinner_party_scheme/dinner_party_scheme_7.png"" class=""exp-image"">
                    <div class=""question-area"">
                        <p style=""font-size: 20px; font-weight: bold; margin: 0;"">Is there a person in this image?</p>
                    </div>
                </div>","0","main_experiment_trial","7","dinner_party_scheme","schematic_sequence","chronological","","","","","","",""
"","","","","","html-keyboard-response","94","336835","0.0-94.0","093E49E85F5F41DDAEF6E4B61079FF92","019cfc3b-38be-73ab-9867-1ff1d77a1c73","019cfc28-2143-7934-89cc-ce6402563331","","null","
                <div class=""stimulus-container"">
                    <img src=""images/schematic_sequence/dinner_party_scheme/dinner_party_scheme_8.png"" class=""exp-image"">
                    <div class=""question-area""></div> 
                </div>","null","","","","","","","","","","","",""
"","","","","","html-button-response","95","339398","0.0-95.0","093E49E85F5F41DDAEF6E4B61079FF92","019cfc3b-38be-73ab-9867-1ff1d77a1c73","019cfc28-2143-7934-89cc-ce6402563331","","2561","
                <div class=""stimulus-container"">
                    <img src=""images/schematic_sequence/dinner_party_scheme/dinner_party_scheme_8.png"" class=""exp-image"">
                    <div class=""question-area"">
                        <p style=""font-size: 20px; font-weight: bold; margin: 0;"">Is there a person in this image?</p>
                    </div>
                </div>","0","main_experiment_trial","8","dinner_party_scheme","schematic_sequence","chronological","","","","","","",""
"","","","","","html-keyboard-response","96","344414","0.0-96.0","093E49E85F5F41DDAEF6E4B61079FF92","019cfc3b-38be-73ab-9867-1ff1d77a1c73","019cfc28-2143-7934-89cc-ce6402563331","","null","
                <div class=""stimulus-container"">
                    <img src=""images/schematic_sequence/dinner_party_scheme/dinner_party_scheme_9.png"" class=""exp-image"">
                    <div class=""question-area""></div> 
                </div>","null","","","","","","","","","","","",""
"","","","","","html-button-response","97","346005","0.0-97.0","093E49E85F5F41DDAEF6E4B61079FF92","019cfc3b-38be-73ab-9867-1ff1d77a1c73","019cfc28-2143-7934-89cc-ce6402563331","","1590","
                <div class=""stimulus-container"">
                    <img src=""images/schematic_sequence/dinner_party_scheme/dinner_party_scheme_9.png"" class=""exp-image"">
                    <div class=""question-area"">
                        <p style=""font-size: 20px; font-weight: bold; margin: 0;"">Is there a person in this image?</p>
                    </div>
                </div>","0","main_experiment_trial","9","dinner_party_scheme","schematic_sequence","chronological","","","","","","",""
"","","","","","html-keyboard-response","98","351019","0.0-98.0","093E49E85F5F41DDAEF6E4B61079FF92","019cfc3b-38be-73ab-9867-1ff1d77a1c73","019cfc28-2143-7934-89cc-ce6402563331","","null","
                <div class=""stimulus-container"">
                    <img src=""images/schematic_sequence/dinner_party_scheme/dinner_party_scheme_ten.png"" class=""exp-image"">
                    <div class=""question-area""></div> 
                </div>","null","","","","","","","","","","","",""
"","","","","","html-button-response","99","352124","0.0-99.0","093E49E85F5F41DDAEF6E4B61079FF92","019cfc3b-38be-73ab-9867-1ff1d77a1c73","019cfc28-2143-7934-89cc-ce6402563331","","1103","
                <div class=""stimulus-container"">
                    <img src=""images/schematic_sequence/dinner_party_scheme/dinner_party_scheme_ten.png"" class=""exp-image"">
                    <div class=""question-area"">
                        <p style=""font-size: 20px; font-weight: bold; margin: 0;"">Is there a person in this image?</p>
                    </div>
                </div>","0","main_experiment_trial","ten","dinner_party_scheme","schematic_sequence","chronological","","","","","","",""
"","","","","","html-keyboard-response","100","357132","0.0-100.0","093E49E85F5F41DDAEF6E4B61079FF92","019cfc3b-38be-73ab-9867-1ff1d77a1c73","019cfc28-2143-7934-89cc-ce6402563331","","null","<div style=""background-color: white; width: 100vw; height: 100vh;""></div>","null","","","","","","","","","","","",""
"","","","","","html-keyboard-response","101","362134","0.0-101.0","093E49E85F5F41DDAEF6E4B61079FF92","019cfc3b-38be-73ab-9867-1ff1d77a1c73","019cfc28-2143-7934-89cc-ce6402563331","","null","
                <div class=""stimulus-container"">
                    <img src=""images/schematic_sequence/hotel_scheme/hotel_scheme_1.png"" class=""exp-image"">
                    <div class=""question-area""></div> 
                </div>","null","","","","","","","","","","","",""
"","","","","","html-button-response","102","363570","0.0-102.0","093E49E85F5F41DDAEF6E4B61079FF92","019cfc3b-38be-73ab-9867-1ff1d77a1c73","019cfc28-2143-7934-89cc-ce6402563331","","1435","
                <div class=""stimulus-container"">
                    <img src=""images/schematic_sequence/hotel_scheme/hotel_scheme_1.png"" class=""exp-image"">
                    <div class=""question-area"">
                        <p style=""font-size: 20px; font-weight: bold; margin: 0;"">Is there a person in this image?</p>
                    </div>
                </div>","1","main_experiment_trial","1","hotel_scheme","schematic_sequence","chronological","","","","","","",""
"","","","","","html-keyboard-response","103","368584","0.0-103.0","093E49E85F5F41DDAEF6E4B61079FF92","019cfc3b-38be-73ab-9867-1ff1d77a1c73","019cfc28-2143-7934-89cc-ce6402563331","","null","
                <div class=""stimulus-container"">
                    <img src=""images/schematic_sequence/hotel_scheme/hotel_scheme_2.png"" class=""exp-image"">
                    <div class=""question-area""></div> 
                </div>","null","","","","","","","","","","","",""
"","","","","","html-button-response","104","370913","0.0-104.0","093E49E85F5F41DDAEF6E4B61079FF92","019cfc3b-38be-73ab-9867-1ff1d77a1c73","019cfc28-2143-7934-89cc-ce6402563331","","2327","
                <div class=""stimulus-container"">
                    <img src=""images/schematic_sequence/hotel_scheme/hotel_scheme_2.png"" class=""exp-image"">
                    <div class=""question-area"">
                        <p style=""font-size: 20px; font-weight: bold; margin: 0;"">Is there a person in this image?</p>
                    </div>
                </div>","0","main_experiment_trial","2","hotel_scheme","schematic_sequence","chronological","","","","","","",""
"","","","","","html-keyboard-response","105","375929","0.0-105.0","093E49E85F5F41DDAEF6E4B61079FF92","019cfc3b-38be-73ab-9867-1ff1d77a1c73","019cfc28-2143-7934-89cc-ce6402563331","","null","
                <div class=""stimulus-container"">
                    <img src=""images/schematic_sequence/hotel_scheme/hotel_scheme_3.png"" class=""exp-image"">
                    <div class=""question-area""></div> 
                </div>","null","","","","","","","","","","","",""
"","","","","","html-button-response","106","377673","0.0-106.0","093E49E85F5F41DDAEF6E4B61079FF92","019cfc3b-38be-73ab-9867-1ff1d77a1c73","019cfc28-2143-7934-89cc-ce6402563331","","1742","
                <div class=""stimulus-container"">
                    <img src=""images/schematic_sequence/hotel_scheme/hotel_scheme_3.png"" class=""exp-image"">
                    <div class=""question-area"">
                        <p style=""font-size: 20px; font-weight: bold; margin: 0;"">Is there a person in this image?</p>
                    </div>
                </div>","0","main_experiment_trial","3","hotel_scheme","schematic_sequence","chronological","","","","","","",""
"","","","","","html-keyboard-response","107","382678","0.0-107.0","093E49E85F5F41DDAEF6E4B61079FF92","019cfc3b-38be-73ab-9867-1ff1d77a1c73","019cfc28-2143-7934-89cc-ce6402563331","","null","
                <div class=""stimulus-container"">
                    <img src=""images/schematic_sequence/hotel_scheme/hotel_scheme_4.png"" class=""exp-image"">
                    <div class=""question-area""></div> 
                </div>","null","","","","","","","","","","","",""
"","","","","","html-button-response","108","384303","0.0-108.0","093E49E85F5F41DDAEF6E4B61079FF92","019cfc3b-38be-73ab-9867-1ff1d77a1c73","019cfc28-2143-7934-89cc-ce6402563331","","1623","
                <div class=""stimulus-container"">
                    <img src=""images/schematic_sequence/hotel_scheme/hotel_scheme_4.png"" class=""exp-image"">
                    <div class=""question-area"">
                        <p style=""font-size: 20px; font-weight: bold; margin: 0;"">Is there a person in this image?</p>
                    </div>
                </div>","1","main_experiment_trial","4","hotel_scheme","schematic_sequence","chronological","","","","","","",""
"","","","","","html-keyboard-response","109","389320","0.0-109.0","093E49E85F5F41DDAEF6E4B61079FF92","019cfc3b-38be-73ab-9867-1ff1d77a1c73","019cfc28-2143-7934-89cc-ce6402563331","","null","
                <div class=""stimulus-container"">
                    <img src=""images/schematic_sequence/hotel_scheme/hotel_scheme_5.png"" class=""exp-image"">
                    <div class=""question-area""></div> 
                </div>","null","","","","","","","","","","","",""
"","","","","","html-button-response","110","390375","0.0-110.0","093E49E85F5F41DDAEF6E4B61079FF92","019cfc3b-38be-73ab-9867-1ff1d77a1c73","019cfc28-2143-7934-89cc-ce6402563331","","1054","
                <div class=""stimulus-container"">
                    <img src=""images/schematic_sequence/hotel_scheme/hotel_scheme_5.png"" class=""exp-image"">
                    <div class=""question-area"">
                        <p style=""font-size: 20px; font-weight: bold; margin: 0;"">Is there a person in this image?</p>
                    </div>
                </div>","0","main_experiment_trial","5","hotel_scheme","schematic_sequence","chronological","","","","","","",""
"","","","","","html-keyboard-response","111","395382","0.0-111.0","093E49E85F5F41DDAEF6E4B61079FF92","019cfc3b-38be-73ab-9867-1ff1d77a1c73","019cfc28-2143-7934-89cc-ce6402563331","","null","
                <div class=""stimulus-container"">
                    <img src=""images/schematic_sequence/hotel_scheme/hotel_scheme_6.png"" class=""exp-image"">
                    <div class=""question-area""></div> 
                </div>","null","","","","","","","","","","","",""
"","","","","","html-button-response","112","395774","0.0-112.0","093E49E85F5F41DDAEF6E4B61079FF92","019cfc3b-38be-73ab-9867-1ff1d77a1c73","019cfc28-2143-7934-89cc-ce6402563331","","390","
                <div class=""stimulus-container"">
                    <img src=""images/schematic_sequence/hotel_scheme/hotel_scheme_6.png"" class=""exp-image"">
                    <div class=""question-area"">
                        <p style=""font-size: 20px; font-weight: bold; margin: 0;"">Is there a person in this image?</p>
                    </div>
                </div>","0","main_experiment_trial","6","hotel_scheme","schematic_sequence","chronological","","","","","","",""
"","","","","","html-keyboard-response","113","400788","0.0-113.0","093E49E85F5F41DDAEF6E4B61079FF92","019cfc3b-38be-73ab-9867-1ff1d77a1c73","019cfc28-2143-7934-89cc-ce6402563331","","null","
                <div class=""stimulus-container"">
                    <img src=""images/schematic_sequence/hotel_scheme/hotel_scheme_7.png"" class=""exp-image"">
                    <div class=""question-area""></div> 
                </div>","null","","","","","","","","","","","",""
"","","","","","html-button-response","114","401341","0.0-114.0","093E49E85F5F41DDAEF6E4B61079FF92","019cfc3b-38be-73ab-9867-1ff1d77a1c73","019cfc28-2143-7934-89cc-ce6402563331","","551","
                <div class=""stimulus-container"">
                    <img src=""images/schematic_sequence/hotel_scheme/hotel_scheme_7.png"" class=""exp-image"">
                    <div class=""question-area"">
                        <p style=""font-size: 20px; font-weight: bold; margin: 0;"">Is there a person in this image?</p>
                    </div>
                </div>","0","main_experiment_trial","7","hotel_scheme","schematic_sequence","chronological","","","","","","",""
"","","","","","html-keyboard-response","115","406351","0.0-115.0","093E49E85F5F41DDAEF6E4B61079FF92","019cfc3b-38be-73ab-9867-1ff1d77a1c73","019cfc28-2143-7934-89cc-ce6402563331","","null","
                <div class=""stimulus-container"">
                    <img src=""images/schematic_sequence/hotel_scheme/hotel_scheme_8.png"" class=""exp-image"">
                    <div class=""question-area""></div> 
                </div>","null","","","","","","","","","","","",""
"","","","","","html-button-response","116","407269","0.0-116.0","093E49E85F5F41DDAEF6E4B61079FF92","019cfc3b-38be-73ab-9867-1ff1d77a1c73","019cfc28-2143-7934-89cc-ce6402563331","","916","
                <div class=""stimulus-container"">
                    <img src=""images/schematic_sequence/hotel_scheme/hotel_scheme_8.png"" class=""exp-image"">
                    <div class=""question-area"">
                        <p style=""font-size: 20px; font-weight: bold; margin: 0;"">Is there a person in this image?</p>
                    </div>
                </div>","0","main_experiment_trial","8","hotel_scheme","schematic_sequence","chronological","","","","","","",""
"","","","","","html-keyboard-response","117","412273","0.0-117.0","093E49E85F5F41DDAEF6E4B61079FF92","019cfc3b-38be-73ab-9867-1ff1d77a1c73","019cfc28-2143-7934-89cc-ce6402563331","","null","
                <div class=""stimulus-container"">
                    <img src=""images/schematic_sequence/hotel_scheme/hotel_scheme_9.png"" class=""exp-image"">
                    <div class=""question-area""></div> 
                </div>","null","","","","","","","","","","","",""
"","","","","","html-button-response","118","413979","0.0-118.0","093E49E85F5F41DDAEF6E4B61079FF92","019cfc3b-38be-73ab-9867-1ff1d77a1c73","019cfc28-2143-7934-89cc-ce6402563331","","1705","
                <div class=""stimulus-container"">
                    <img src=""images/schematic_sequence/hotel_scheme/hotel_scheme_9.png"" class=""exp-image"">
                    <div class=""question-area"">
                        <p style=""font-size: 20px; font-weight: bold; margin: 0;"">Is there a person in this image?</p>
                    </div>
                </div>","0","main_experiment_trial","9","hotel_scheme","schematic_sequence","chronological","","","","","","",""
"","","","","","html-keyboard-response","119","418992","0.0-119.0","093E49E85F5F41DDAEF6E4B61079FF92","019cfc3b-38be-73ab-9867-1ff1d77a1c73","019cfc28-2143-7934-89cc-ce6402563331","","null","
                <div class=""stimulus-container"">
                    <img src=""images/schematic_sequence/hotel_scheme/hotel_scheme_ten.png"" class=""exp-image"">
                    <div class=""question-area""></div> 
                </div>","null","","","","","","","","","","","",""
"","","","","","html-button-response","120","419466","0.0-120.0","093E49E85F5F41DDAEF6E4B61079FF92","019cfc3b-38be-73ab-9867-1ff1d77a1c73","019cfc28-2143-7934-89cc-ce6402563331","","473","
                <div class=""stimulus-container"">
                    <img src=""images/schematic_sequence/hotel_scheme/hotel_scheme_ten.png"" class=""exp-image"">
                    <div class=""question-area"">
                        <p style=""font-size: 20px; font-weight: bold; margin: 0;"">Is there a person in this image?</p>
                    </div>
                </div>","0","main_experiment_trial","ten","hotel_scheme","schematic_sequence","chronological","","","","","","",""
"","","","","","html-keyboard-response","121","424476","0.0-121.0","093E49E85F5F41DDAEF6E4B61079FF92","019cfc3b-38be-73ab-9867-1ff1d77a1c73","019cfc28-2143-7934-89cc-ce6402563331","","null","<div style=""background-color: white; width: 100vw; height: 100vh;""></div>","null","","","","","","","","","","","",""
"","","","","","html-keyboard-response","122","429492","0.0-122.0","093E49E85F5F41DDAEF6E4B61079FF92","019cfc3b-38be-73ab-9867-1ff1d77a1c73","019cfc28-2143-7934-89cc-ce6402563331","","null","
                <div class=""stimulus-container"">
                    <img src=""images/semantic_sequence/exploring_nature_semantic/exploring_nature_semantic_1.png"" class=""exp-image"">
                    <div class=""question-area""></div> 
                </div>","null","","","","","","","","","","","",""
"","","","","","html-button-response","123","430697","0.0-123.0","093E49E85F5F41DDAEF6E4B61079FF92","019cfc3b-38be-73ab-9867-1ff1d77a1c73","019cfc28-2143-7934-89cc-ce6402563331","","1203","
                <div class=""stimulus-container"">
                    <img src=""images/semantic_sequence/exploring_nature_semantic/exploring_nature_semantic_1.png"" class=""exp-image"">
                    <div class=""question-area"">
                        <p style=""font-size: 20px; font-weight: bold; margin: 0;"">Is there a person in this image?</p>
                    </div>
                </div>","0","main_experiment_trial","1","exploring_nature_semantic","semantic_sequence","chronological","","","","","","",""
"","","","","","html-keyboard-response","124","435710","0.0-124.0","093E49E85F5F41DDAEF6E4B61079FF92","019cfc3b-38be-73ab-9867-1ff1d77a1c73","019cfc28-2143-7934-89cc-ce6402563331","","null","
                <div class=""stimulus-container"">
                    <img src=""images/semantic_sequence/exploring_nature_semantic/exploring_nature_semantic_2.png"" class=""exp-image"">
                    <div class=""question-area""></div> 
                </div>","null","","","","","","","","","","","",""
"","","","","","html-button-response","125","438656","0.0-125.0","093E49E85F5F41DDAEF6E4B61079FF92","019cfc3b-38be-73ab-9867-1ff1d77a1c73","019cfc28-2143-7934-89cc-ce6402563331","","2945","
                <div class=""stimulus-container"">
                    <img src=""images/semantic_sequence/exploring_nature_semantic/exploring_nature_semantic_2.png"" class=""exp-image"">
                    <div class=""question-area"">
                        <p style=""font-size: 20px; font-weight: bold; margin: 0;"">Is there a person in this image?</p>
                    </div>
                </div>","0","main_experiment_trial","2","exploring_nature_semantic","semantic_sequence","chronological","","","","","","",""
"","","","","","html-keyboard-response","126","443663","0.0-126.0","093E49E85F5F41DDAEF6E4B61079FF92","019cfc3b-38be-73ab-9867-1ff1d77a1c73","019cfc28-2143-7934-89cc-ce6402563331","","null","
                <div class=""stimulus-container"">
                    <img src=""images/semantic_sequence/exploring_nature_semantic/exploring_nature_semantic_3.png"" class=""exp-image"">
                    <div class=""question-area""></div> 
                </div>","null","","","","","","","","","","","",""
"","","","","","html-button-response","127","446679","0.0-127.0","093E49E85F5F41DDAEF6E4B61079FF92","019cfc3b-38be-73ab-9867-1ff1d77a1c73","019cfc28-2143-7934-89cc-ce6402563331","","null","
                <div class=""stimulus-container"">
                    <img src=""images/semantic_sequence/exploring_nature_semantic/exploring_nature_semantic_3.png"" class=""exp-image"">
                    <div class=""question-area"">
                        <p style=""font-size: 20px; font-weight: bold; margin: 0;"">Is there a person in this image?</p>
                    </div>
                </div>","null","main_experiment_trial","3","exploring_nature_semantic","semantic_sequence","chronological","","","","","","",""
"","","","","","html-keyboard-response","128","451694","0.0-128.0","093E49E85F5F41DDAEF6E4B61079FF92","019cfc3b-38be-73ab-9867-1ff1d77a1c73","019cfc28-2143-7934-89cc-ce6402563331","","null","
                <div class=""stimulus-container"">
                    <img src=""images/semantic_sequence/exploring_nature_semantic/exploring_nature_semantic_4.png"" class=""exp-image"">
                    <div class=""question-area""></div> 
                </div>","null","","","","","","","","","","","",""
"","","","","","html-button-response","129","452279","0.0-129.0","093E49E85F5F41DDAEF6E4B61079FF92","019cfc3b-38be-73ab-9867-1ff1d77a1c73","019cfc28-2143-7934-89cc-ce6402563331","","583","
                <div class=""stimulus-container"">
                    <img src=""images/semantic_sequence/exploring_nature_semantic/exploring_nature_semantic_4.png"" class=""exp-image"">
                    <div class=""question-area"">
                        <p style=""font-size: 20px; font-weight: bold; margin: 0;"">Is there a person in this image?</p>
                    </div>
                </div>","0","main_experiment_trial","4","exploring_nature_semantic","semantic_sequence","chronological","","","","","","",""
"","","","","","html-keyboard-response","130","457288","0.0-130.0","093E49E85F5F41DDAEF6E4B61079FF92","019cfc3b-38be-73ab-9867-1ff1d77a1c73","019cfc28-2143-7934-89cc-ce6402563331","","null","
                <div class=""stimulus-container"">
                    <img src=""images/semantic_sequence/exploring_nature_semantic/exploring_nature_semantic_5.png"" class=""exp-image"">
                    <div class=""question-area""></div> 
                </div>","null","","","","","","","","","","","",""
"","","","","","html-button-response","131","458085","0.0-131.0","093E49E85F5F41DDAEF6E4B61079FF92","019cfc3b-38be-73ab-9867-1ff1d77a1c73","019cfc28-2143-7934-89cc-ce6402563331","","796","
                <div class=""stimulus-container"">
                    <img src=""images/semantic_sequence/exploring_nature_semantic/exploring_nature_semantic_5.png"" class=""exp-image"">
                    <div class=""question-area"">
                        <p style=""font-size: 20px; font-weight: bold; margin: 0;"">Is there a person in this image?</p>
                    </div>
                </div>","0","main_experiment_trial","5","exploring_nature_semantic","semantic_sequence","chronological","","","","","","",""
"","","","","","html-keyboard-response","132","463101","0.0-132.0","093E49E85F5F41DDAEF6E4B61079FF92","019cfc3b-38be-73ab-9867-1ff1d77a1c73","019cfc28-2143-7934-89cc-ce6402563331","","null","
                <div class=""stimulus-container"">
                    <img src=""images/semantic_sequence/exploring_nature_semantic/exploring_nature_semantic_6.png"" class=""exp-image"">
                    <div class=""question-area""></div> 
                </div>","null","","","","","","","","","","","",""
"","","","","","html-button-response","133","463597","0.0-133.0","093E49E85F5F41DDAEF6E4B61079FF92","019cfc3b-38be-73ab-9867-1ff1d77a1c73","019cfc28-2143-7934-89cc-ce6402563331","","495","
                <div class=""stimulus-container"">
                    <img src=""images/semantic_sequence/exploring_nature_semantic/exploring_nature_semantic_6.png"" class=""exp-image"">
                    <div class=""question-area"">
                        <p style=""font-size: 20px; font-weight: bold; margin: 0;"">Is there a person in this image?</p>
                    </div>
                </div>","0","main_experiment_trial","6","exploring_nature_semantic","semantic_sequence","chronological","","","","","","",""
"","","","","","html-keyboard-response","134","468601","0.0-134.0","093E49E85F5F41DDAEF6E4B61079FF92","019cfc3b-38be-73ab-9867-1ff1d77a1c73","019cfc28-2143-7934-89cc-ce6402563331","","null","
                <div class=""stimulus-container"">
                    <img src=""images/semantic_sequence/exploring_nature_semantic/exploring_nature_semantic_7.png"" class=""exp-image"">
                    <div class=""question-area""></div> 
                </div>","null","","","","","","","","","","","",""
"","","","","","html-button-response","135","469132","0.0-135.0","093E49E85F5F41DDAEF6E4B61079FF92","019cfc3b-38be-73ab-9867-1ff1d77a1c73","019cfc28-2143-7934-89cc-ce6402563331","","529","
                <div class=""stimulus-container"">
                    <img src=""images/semantic_sequence/exploring_nature_semantic/exploring_nature_semantic_7.png"" class=""exp-image"">
                    <div class=""question-area"">
                        <p style=""font-size: 20px; font-weight: bold; margin: 0;"">Is there a person in this image?</p>
                    </div>
                </div>","0","main_experiment_trial","7","exploring_nature_semantic","semantic_sequence","chronological","","","","","","",""
"","","","","","html-keyboard-response","136","474139","0.0-136.0","093E49E85F5F41DDAEF6E4B61079FF92","019cfc3b-38be-73ab-9867-1ff1d77a1c73","019cfc28-2143-7934-89cc-ce6402563331","","null","
                <div class=""stimulus-container"">
                    <img src=""images/semantic_sequence/exploring_nature_semantic/exploring_nature_semantic_8.png"" class=""exp-image"">
                    <div class=""question-area""></div> 
                </div>","null","","","","","","","","","","","",""
"","","","","","html-button-response","137","474635","0.0-137.0","093E49E85F5F41DDAEF6E4B61079FF92","019cfc3b-38be-73ab-9867-1ff1d77a1c73","019cfc28-2143-7934-89cc-ce6402563331","","495","
                <div class=""stimulus-container"">
                    <img src=""images/semantic_sequence/exploring_nature_semantic/exploring_nature_semantic_8.png"" class=""exp-image"">
                    <div class=""question-area"">
                        <p style=""font-size: 20px; font-weight: bold; margin: 0;"">Is there a person in this image?</p>
                    </div>
                </div>","0","main_experiment_trial","8","exploring_nature_semantic","semantic_sequence","chronological","","","","","","",""
"","","","","","html-keyboard-response","138","479648","0.0-138.0","093E49E85F5F41DDAEF6E4B61079FF92","019cfc3b-38be-73ab-9867-1ff1d77a1c73","019cfc28-2143-7934-89cc-ce6402563331","","null","
                <div class=""stimulus-container"">
                    <img src=""images/semantic_sequence/exploring_nature_semantic/exploring_nature_semantic_9.png"" class=""exp-image"">
                    <div class=""question-area""></div> 
                </div>","null","","","","","","","","","","","",""
"","","","","","html-button-response","139","480298","0.0-139.0","093E49E85F5F41DDAEF6E4B61079FF92","019cfc3b-38be-73ab-9867-1ff1d77a1c73","019cfc28-2143-7934-89cc-ce6402563331","","649","
                <div class=""stimulus-container"">
                    <img src=""images/semantic_sequence/exploring_nature_semantic/exploring_nature_semantic_9.png"" class=""exp-image"">
                    <div class=""question-area"">
                        <p style=""font-size: 20px; font-weight: bold; margin: 0;"">Is there a person in this image?</p>
                    </div>
                </div>","0","main_experiment_trial","9","exploring_nature_semantic","semantic_sequence","chronological","","","","","","",""
"","","","","","html-keyboard-response","140","485304","0.0-140.0","093E49E85F5F41DDAEF6E4B61079FF92","019cfc3b-38be-73ab-9867-1ff1d77a1c73","019cfc28-2143-7934-89cc-ce6402563331","","null","
                <div class=""stimulus-container"">
                    <img src=""images/semantic_sequence/exploring_nature_semantic/exploring_nature_semantic_ten.png"" class=""exp-image"">
                    <div class=""question-area""></div> 
                </div>","null","","","","","","","","","","","",""
"","","","","","html-button-response","141","485825","0.0-141.0","093E49E85F5F41DDAEF6E4B61079FF92","019cfc3b-38be-73ab-9867-1ff1d77a1c73","019cfc28-2143-7934-89cc-ce6402563331","","520","
                <div class=""stimulus-container"">
                    <img src=""images/semantic_sequence/exploring_nature_semantic/exploring_nature_semantic_ten.png"" class=""exp-image"">
                    <div class=""question-area"">
                        <p style=""font-size: 20px; font-weight: bold; margin: 0;"">Is there a person in this image?</p>
                    </div>
                </div>","0","main_experiment_trial","ten","exploring_nature_semantic","semantic_sequence","chronological","","","","","","",""
"","","","","","html-keyboard-response","142","490835","0.0-142.0","093E49E85F5F41DDAEF6E4B61079FF92","019cfc3b-38be-73ab-9867-1ff1d77a1c73","019cfc28-2143-7934-89cc-ce6402563331","","null","<div style=""background-color: white; width: 100vw; height: 100vh;""></div>","null","","","","","","","","","","","",""
"","","","","","html-keyboard-response","143","495851","0.0-143.0","093E49E85F5F41DDAEF6E4B61079FF92","019cfc3b-38be-73ab-9867-1ff1d77a1c73","019cfc28-2143-7934-89cc-ce6402563331","","null","
                <div class=""stimulus-container"">
                    <img src=""images/semantic_sequence/maintaining_a_car_semantic/maintaining_a_car_semantic_1.png"" class=""exp-image"">
                    <div class=""question-area""></div> 
                </div>","null","","","","","","","","","","","",""
"","","","","","html-button-response","144","496816","0.0-144.0","093E49E85F5F41DDAEF6E4B61079FF92","019cfc3b-38be-73ab-9867-1ff1d77a1c73","019cfc28-2143-7934-89cc-ce6402563331","","964","
                <div class=""stimulus-container"">
                    <img src=""images/semantic_sequence/maintaining_a_car_semantic/maintaining_a_car_semantic_1.png"" class=""exp-image"">
                    <div class=""question-area"">
                        <p style=""font-size: 20px; font-weight: bold; margin: 0;"">Is there a person in this image?</p>
                    </div>
                </div>","0","main_experiment_trial","1","maintaining_a_car_semantic","semantic_sequence","chronological","","","","","","",""
"","","","","","html-keyboard-response","145","501820","0.0-145.0","093E49E85F5F41DDAEF6E4B61079FF92","019cfc3b-38be-73ab-9867-1ff1d77a1c73","019cfc28-2143-7934-89cc-ce6402563331","","null","
                <div class=""stimulus-container"">
                    <img src=""images/semantic_sequence/maintaining_a_car_semantic/maintaining_a_car_semantic_2.png"" class=""exp-image"">
                    <div class=""question-area""></div> 
                </div>","null","","","","","","","","","","","",""
"","","","","","html-button-response","146","502704","0.0-146.0","093E49E85F5F41DDAEF6E4B61079FF92","019cfc3b-38be-73ab-9867-1ff1d77a1c73","019cfc28-2143-7934-89cc-ce6402563331","","883","
                <div class=""stimulus-container"">
                    <img src=""images/semantic_sequence/maintaining_a_car_semantic/maintaining_a_car_semantic_2.png"" class=""exp-image"">
                    <div class=""question-area"">
                        <p style=""font-size: 20px; font-weight: bold; margin: 0;"">Is there a person in this image?</p>
                    </div>
                </div>","0","main_experiment_trial","2","maintaining_a_car_semantic","semantic_sequence","chronological","","","","","","",""
"","","","","","html-keyboard-response","147","507710","0.0-147.0","093E49E85F5F41DDAEF6E4B61079FF92","019cfc3b-38be-73ab-9867-1ff1d77a1c73","019cfc28-2143-7934-89cc-ce6402563331","","null","
                <div class=""stimulus-container"">
                    <img src=""images/semantic_sequence/maintaining_a_car_semantic/maintaining_a_car_semantic_3.png"" class=""exp-image"">
                    <div class=""question-area""></div> 
                </div>","null","","","","","","","","","","","",""
"","","","","","html-button-response","148","508487","0.0-148.0","093E49E85F5F41DDAEF6E4B61079FF92","019cfc3b-38be-73ab-9867-1ff1d77a1c73","019cfc28-2143-7934-89cc-ce6402563331","","775","
                <div class=""stimulus-container"">
                    <img src=""images/semantic_sequence/maintaining_a_car_semantic/maintaining_a_car_semantic_3.png"" class=""exp-image"">
                    <div class=""question-area"">
                        <p style=""font-size: 20px; font-weight: bold; margin: 0;"">Is there a person in this image?</p>
                    </div>
                </div>","0","main_experiment_trial","3","maintaining_a_car_semantic","semantic_sequence","chronological","","","","","","",""
"","","","","","html-keyboard-response","149","513492","0.0-149.0","093E49E85F5F41DDAEF6E4B61079FF92","019cfc3b-38be-73ab-9867-1ff1d77a1c73","019cfc28-2143-7934-89cc-ce6402563331","","null","
                <div class=""stimulus-container"">
                    <img src=""images/semantic_sequence/maintaining_a_car_semantic/maintaining_a_car_semantic_4.png"" class=""exp-image"">
                    <div class=""question-area""></div> 
                </div>","null","","","","","","","","","","","",""
"","","","","","html-button-response","150","514278","0.0-150.0","093E49E85F5F41DDAEF6E4B61079FF92","019cfc3b-38be-73ab-9867-1ff1d77a1c73","019cfc28-2143-7934-89cc-ce6402563331","","785","
                <div class=""stimulus-container"">
                    <img src=""images/semantic_sequence/maintaining_a_car_semantic/maintaining_a_car_semantic_4.png"" class=""exp-image"">
                    <div class=""question-area"">
                        <p style=""font-size: 20px; font-weight: bold; margin: 0;"">Is there a person in this image?</p>
                    </div>
                </div>","0","main_experiment_trial","4","maintaining_a_car_semantic","semantic_sequence","chronological","","","","","","",""
"","","","","","html-keyboard-response","151","519288","0.0-151.0","093E49E85F5F41DDAEF6E4B61079FF92","019cfc3b-38be-73ab-9867-1ff1d77a1c73","019cfc28-2143-7934-89cc-ce6402563331","","null","
                <div class=""stimulus-container"">
                    <img src=""images/semantic_sequence/maintaining_a_car_semantic/maintaining_a_car_semantic_5.png"" class=""exp-image"">
                    <div class=""question-area""></div> 
                </div>","null","","","","","","","","","","","",""
"","","","","","html-button-response","152","520125","0.0-152.0","093E49E85F5F41DDAEF6E4B61079FF92","019cfc3b-38be-73ab-9867-1ff1d77a1c73","019cfc28-2143-7934-89cc-ce6402563331","","835","
                <div class=""stimulus-container"">
                    <img src=""images/semantic_sequence/maintaining_a_car_semantic/maintaining_a_car_semantic_5.png"" class=""exp-image"">
                    <div class=""question-area"">
                        <p style=""font-size: 20px; font-weight: bold; margin: 0;"">Is there a person in this image?</p>
                    </div>
                </div>","0","main_experiment_trial","5","maintaining_a_car_semantic","semantic_sequence","chronological","","","","","","",""
"","","","","","html-keyboard-response","153","525131","0.0-153.0","093E49E85F5F41DDAEF6E4B61079FF92","019cfc3b-38be-73ab-9867-1ff1d77a1c73","019cfc28-2143-7934-89cc-ce6402563331","","null","
                <div class=""stimulus-container"">
                    <img src=""images/semantic_sequence/maintaining_a_car_semantic/maintaining_a_car_semantic_6.png"" class=""exp-image"">
                    <div class=""question-area""></div> 
                </div>","null","","","","","","","","","","","",""
"","","","","","html-button-response","154","525964","0.0-154.0","093E49E85F5F41DDAEF6E4B61079FF92","019cfc3b-38be-73ab-9867-1ff1d77a1c73","019cfc28-2143-7934-89cc-ce6402563331","","831","
                <div class=""stimulus-container"">
                    <img src=""images/semantic_sequence/maintaining_a_car_semantic/maintaining_a_car_semantic_6.png"" class=""exp-image"">
                    <div class=""question-area"">
                        <p style=""font-size: 20px; font-weight: bold; margin: 0;"">Is there a person in this image?</p>
                    </div>
                </div>","0","main_experiment_trial","6","maintaining_a_car_semantic","semantic_sequence","chronological","","","","","","",""
"","","","","","html-keyboard-response","155","530976","0.0-155.0","093E49E85F5F41DDAEF6E4B61079FF92","019cfc3b-38be-73ab-9867-1ff1d77a1c73","019cfc28-2143-7934-89cc-ce6402563331","","null","
                <div class=""stimulus-container"">
                    <img src=""images/semantic_sequence/maintaining_a_car_semantic/maintaining_a_car_semantic_7.png"" class=""exp-image"">
                    <div class=""question-area""></div> 
                </div>","null","","","","","","","","","","","",""
"","","","","","html-button-response","156","531539","0.0-156.0","093E49E85F5F41DDAEF6E4B61079FF92","019cfc3b-38be-73ab-9867-1ff1d77a1c73","019cfc28-2143-7934-89cc-ce6402563331","","562","
                <div class=""stimulus-container"">
                    <img src=""images/semantic_sequence/maintaining_a_car_semantic/maintaining_a_car_semantic_7.png"" class=""exp-image"">
                    <div class=""question-area"">
                        <p style=""font-size: 20px; font-weight: bold; margin: 0;"">Is there a person in this image?</p>
                    </div>
                </div>","0","main_experiment_trial","7","maintaining_a_car_semantic","semantic_sequence","chronological","","","","","","",""
"","","","","","html-keyboard-response","157","536553","0.0-157.0","093E49E85F5F41DDAEF6E4B61079FF92","019cfc3b-38be-73ab-9867-1ff1d77a1c73","019cfc28-2143-7934-89cc-ce6402563331","","null","
                <div class=""stimulus-container"">
                    <img src=""images/semantic_sequence/maintaining_a_car_semantic/maintaining_a_car_semantic_8.png"" class=""exp-image"">
                    <div class=""question-area""></div> 
                </div>","null","","","","","","","","","","","",""
"","","","","","html-button-response","158","537179","0.0-158.0","093E49E85F5F41DDAEF6E4B61079FF92","019cfc3b-38be-73ab-9867-1ff1d77a1c73","019cfc28-2143-7934-89cc-ce6402563331","","624","
                <div class=""stimulus-container"">
                    <img src=""images/semantic_sequence/maintaining_a_car_semantic/maintaining_a_car_semantic_8.png"" class=""exp-image"">
                    <div class=""question-area"">
                        <p style=""font-size: 20px; font-weight: bold; margin: 0;"">Is there a person in this image?</p>
                    </div>
                </div>","0","main_experiment_trial","8","maintaining_a_car_semantic","semantic_sequence","chronological","","","","","","",""
"","","","","","html-keyboard-response","159","542196","0.0-159.0","093E49E85F5F41DDAEF6E4B61079FF92","019cfc3b-38be-73ab-9867-1ff1d77a1c73","019cfc28-2143-7934-89cc-ce6402563331","","null","
                <div class=""stimulus-container"">
                    <img src=""images/semantic_sequence/maintaining_a_car_semantic/maintaining_a_car_semantic_9.png"" class=""exp-image"">
                    <div class=""question-area""></div> 
                </div>","null","","","","","","","","","","","",""
"","","","","","html-button-response","160","542762","0.0-160.0","093E49E85F5F41DDAEF6E4B61079FF92","019cfc3b-38be-73ab-9867-1ff1d77a1c73","019cfc28-2143-7934-89cc-ce6402563331","","565","
                <div class=""stimulus-container"">
                    <img src=""images/semantic_sequence/maintaining_a_car_semantic/maintaining_a_car_semantic_9.png"" class=""exp-image"">
                    <div class=""question-area"">
                        <p style=""font-size: 20px; font-weight: bold; margin: 0;"">Is there a person in this image?</p>
                    </div>
                </div>","0","main_experiment_trial","9","maintaining_a_car_semantic","semantic_sequence","chronological","","","","","","",""
"","","","","","html-keyboard-response","161","547772","0.0-161.0","093E49E85F5F41DDAEF6E4B61079FF92","019cfc3b-38be-73ab-9867-1ff1d77a1c73","019cfc28-2143-7934-89cc-ce6402563331","","null","
                <div class=""stimulus-container"">
                    <img src=""images/semantic_sequence/maintaining_a_car_semantic/maintaining_a_car_semantic_ten.png"" class=""exp-image"">
                    <div class=""question-area""></div> 
                </div>","null","","","","","","","","","","","",""
"","","","","","html-button-response","162","548361","0.0-162.0","093E49E85F5F41DDAEF6E4B61079FF92","019cfc3b-38be-73ab-9867-1ff1d77a1c73","019cfc28-2143-7934-89cc-ce6402563331","","587","
                <div class=""stimulus-container"">
                    <img src=""images/semantic_sequence/maintaining_a_car_semantic/maintaining_a_car_semantic_ten.png"" class=""exp-image"">
                    <div class=""question-area"">
                        <p style=""font-size: 20px; font-weight: bold; margin: 0;"">Is there a person in this image?</p>
                    </div>
                </div>","0","main_experiment_trial","ten","maintaining_a_car_semantic","semantic_sequence","chronological","","","","","","",""
"","","","","","html-keyboard-response","163","553370","0.0-163.0","093E49E85F5F41DDAEF6E4B61079FF92","019cfc3b-38be-73ab-9867-1ff1d77a1c73","019cfc28-2143-7934-89cc-ce6402563331","","null","<div style=""background-color: white; width: 100vw; height: 100vh;""></div>","null","","","","","","","","","","","",""
"","","","","","html-keyboard-response","164","558382","0.0-164.0","093E49E85F5F41DDAEF6E4B61079FF92","019cfc3b-38be-73ab-9867-1ff1d77a1c73","019cfc28-2143-7934-89cc-ce6402563331","","null","
                <div class=""stimulus-container"">
                    <img src=""images/semantic_sequence/visiting_cities_semantic/visiting_cities_semantic_1.png"" class=""exp-image"">
                    <div class=""question-area""></div> 
                </div>","null","","","","","","","","","","","",""
"","","","","","html-button-response","165","558968","0.0-165.0","093E49E85F5F41DDAEF6E4B61079FF92","019cfc3b-38be-73ab-9867-1ff1d77a1c73","019cfc28-2143-7934-89cc-ce6402563331","","584","
                <div class=""stimulus-container"">
                    <img src=""images/semantic_sequence/visiting_cities_semantic/visiting_cities_semantic_1.png"" class=""exp-image"">
                    <div class=""question-area"">
                        <p style=""font-size: 20px; font-weight: bold; margin: 0;"">Is there a person in this image?</p>
                    </div>
                </div>","0","main_experiment_trial","1","visiting_cities_semantic","semantic_sequence","chronological","","","","","","",""
"","","","","","html-keyboard-response","166","563976","0.0-166.0","093E49E85F5F41DDAEF6E4B61079FF92","019cfc3b-38be-73ab-9867-1ff1d77a1c73","019cfc28-2143-7934-89cc-ce6402563331","","null","
                <div class=""stimulus-container"">
                    <img src=""images/semantic_sequence/visiting_cities_semantic/visiting_cities_semantic_2.png"" class=""exp-image"">
                    <div class=""question-area""></div> 
                </div>","null","","","","","","","","","","","",""
"","","","","","html-button-response","167","564623","0.0-167.0","093E49E85F5F41DDAEF6E4B61079FF92","019cfc3b-38be-73ab-9867-1ff1d77a1c73","019cfc28-2143-7934-89cc-ce6402563331","","645","
                <div class=""stimulus-container"">
                    <img src=""images/semantic_sequence/visiting_cities_semantic/visiting_cities_semantic_2.png"" class=""exp-image"">
                    <div class=""question-area"">
                        <p style=""font-size: 20px; font-weight: bold; margin: 0;"">Is there a person in this image?</p>
                    </div>
                </div>","1","main_experiment_trial","2","visiting_cities_semantic","semantic_sequence","chronological","","","","","","",""
"","","","","","html-keyboard-response","168","569632","0.0-168.0","093E49E85F5F41DDAEF6E4B61079FF92","019cfc3b-38be-73ab-9867-1ff1d77a1c73","019cfc28-2143-7934-89cc-ce6402563331","","null","
                <div class=""stimulus-container"">
                    <img src=""images/semantic_sequence/visiting_cities_semantic/visiting_cities_semantic_3.png"" class=""exp-image"">
                    <div class=""question-area""></div> 
                </div>","null","","","","","","","","","","","",""
"","","","","","html-button-response","169","571254","0.0-169.0","093E49E85F5F41DDAEF6E4B61079FF92","019cfc3b-38be-73ab-9867-1ff1d77a1c73","019cfc28-2143-7934-89cc-ce6402563331","","1620","
                <div class=""stimulus-container"">
                    <img src=""images/semantic_sequence/visiting_cities_semantic/visiting_cities_semantic_3.png"" class=""exp-image"">
                    <div class=""question-area"">
                        <p style=""font-size: 20px; font-weight: bold; margin: 0;"">Is there a person in this image?</p>
                    </div>
                </div>","1","main_experiment_trial","3","visiting_cities_semantic","semantic_sequence","chronological","","","","","","",""
"","","","","","html-keyboard-response","170","576257","0.0-170.0","093E49E85F5F41DDAEF6E4B61079FF92","019cfc3b-38be-73ab-9867-1ff1d77a1c73","019cfc28-2143-7934-89cc-ce6402563331","","null","
                <div class=""stimulus-container"">
                    <img src=""images/semantic_sequence/visiting_cities_semantic/visiting_cities_semantic_4.png"" class=""exp-image"">
                    <div class=""question-area""></div> 
                </div>","null","","","","","","","","","","","",""
"","","","","","html-button-response","171","577518","0.0-171.0","093E49E85F5F41DDAEF6E4B61079FF92","019cfc3b-38be-73ab-9867-1ff1d77a1c73","019cfc28-2143-7934-89cc-ce6402563331","","1260","
                <div class=""stimulus-container"">
                    <img src=""images/semantic_sequence/visiting_cities_semantic/visiting_cities_semantic_4.png"" class=""exp-image"">
                    <div class=""question-area"">
                        <p style=""font-size: 20px; font-weight: bold; margin: 0;"">Is there a person in this image?</p>
                    </div>
                </div>","1","main_experiment_trial","4","visiting_cities_semantic","semantic_sequence","chronological","","","","","","",""
"","","","","","html-keyboard-response","172","582523","0.0-172.0","093E49E85F5F41DDAEF6E4B61079FF92","019cfc3b-38be-73ab-9867-1ff1d77a1c73","019cfc28-2143-7934-89cc-ce6402563331","","null","
                <div class=""stimulus-container"">
                    <img src=""images/semantic_sequence/visiting_cities_semantic/visiting_cities_semantic_5.png"" class=""exp-image"">
                    <div class=""question-area""></div> 
                </div>","null","","","","","","","","","","","",""
"","","","","","html-button-response","173","583509","0.0-173.0","093E49E85F5F41DDAEF6E4B61079FF92","019cfc3b-38be-73ab-9867-1ff1d77a1c73","019cfc28-2143-7934-89cc-ce6402563331","","984","
                <div class=""stimulus-container"">
                    <img src=""images/semantic_sequence/visiting_cities_semantic/visiting_cities_semantic_5.png"" class=""exp-image"">
                    <div class=""question-area"">
                        <p style=""font-size: 20px; font-weight: bold; margin: 0;"">Is there a person in this image?</p>
                    </div>
                </div>","1","main_experiment_trial","5","visiting_cities_semantic","semantic_sequence","chronological","","","","","","",""
"","","","","","html-keyboard-response","174","588522","0.0-174.0","093E49E85F5F41DDAEF6E4B61079FF92","019cfc3b-38be-73ab-9867-1ff1d77a1c73","019cfc28-2143-7934-89cc-ce6402563331","","null","
                <div class=""stimulus-container"">
                    <img src=""images/semantic_sequence/visiting_cities_semantic/visiting_cities_semantic_6.png"" class=""exp-image"">
                    <div class=""question-area""></div> 
                </div>","null","","","","","","","","","","","",""
"","","","","","html-button-response","175","589123","0.0-175.0","093E49E85F5F41DDAEF6E4B61079FF92","019cfc3b-38be-73ab-9867-1ff1d77a1c73","019cfc28-2143-7934-89cc-ce6402563331","","599","
                <div class=""stimulus-container"">
                    <img src=""images/semantic_sequence/visiting_cities_semantic/visiting_cities_semantic_6.png"" class=""exp-image"">
                    <div class=""question-area"">
