"success","timeout","failed_images","failed_audio","failed_video","trial_type","trial_index","time_elapsed","internal_node_id","subject_id","study_id","session_id","view_history","rt","stimulus","response","task","image_index","folder","sequence_type","valuable_image_index","reward_type","lucky_X","chosen_image_index"
"true","false","[]","[]","[]","preload","0","19416","0.0-0.0","C26E207D61F94497895EF589F2E6CF26","019ceda6-b4d6-720c-904f-7d068608f305","019ceda4-7502-7cd5-b642-b8a83a30c71c","","","","","","","","","","","",""
"","","","","","instructions","1","27005","0.0-1.0","C26E207D61F94497895EF589F2E6CF26","019ceda6-b4d6-720c-904f-7d068608f305","019ceda4-7502-7cd5-b642-b8a83a30c71c","[{""page_index"":0,""viewing_time"":7588}]","7588","","","","","","","","","",""
"","","","","","instructions","2","28916","0.0-2.0","C26E207D61F94497895EF589F2E6CF26","019ceda6-b4d6-720c-904f-7d068608f305","019ceda4-7502-7cd5-b642-b8a83a30c71c","[{""page_index"":0,""viewing_time"":1911}]","1911","","","","","","","","","",""
"true","","","","","fullscreen","3","32543","0.0-3.0","C26E207D61F94497895EF589F2E6CF26","019ceda6-b4d6-720c-904f-7d068608f305","019ceda4-7502-7cd5-b642-b8a83a30c71c","","2618","","","","","","","","","",""
"","","","","","instructions","4","38845","0.0-4.0","C26E207D61F94497895EF589F2E6CF26","019ceda6-b4d6-720c-904f-7d068608f305","019ceda4-7502-7cd5-b642-b8a83a30c71c","[{""page_index"":0,""viewing_time"":6301}]","6301","","","","","","","","","",""
"","","","","","instructions","5","44054","0.0-5.0","C26E207D61F94497895EF589F2E6CF26","019ceda6-b4d6-720c-904f-7d068608f305","019ceda4-7502-7cd5-b642-b8a83a30c71c","[{""page_index"":0,""viewing_time"":5208}]","5209","","","","","","","","","",""
"","","","","","html-keyboard-response","6","48058","0.0-6.0","C26E207D61F94497895EF589F2E6CF26","019ceda6-b4d6-720c-904f-7d068608f305","019ceda4-7502-7cd5-b642-b8a83a30c71c","","null","
                <div class=""stimulus-container"">
                    <img src=""images/instructions/movie_1.png"" class=""exp-image"">
                    <div class=""question-area""></div> 
                </div>","null","","","","","","","",""
"","","","","","html-button-response","7","49615","0.0-7.0","C26E207D61F94497895EF589F2E6CF26","019ceda6-b4d6-720c-904f-7d068608f305","019ceda4-7502-7cd5-b642-b8a83a30c71c","","1556","
                <div class=""stimulus-container"">
                    <img src=""images/instructions/movie_1.png"" class=""exp-image"">
                    <div class=""question-area"">
                        <p style=""font-size: 20px; font-weight: bold; margin: 0;"">Was there a person in this image?</p>
                    </div>
                </div>","0","example_question","1","","","","","",""
"","","","","","html-keyboard-response","8","53620","0.0-8.0","C26E207D61F94497895EF589F2E6CF26","019ceda6-b4d6-720c-904f-7d068608f305","019ceda4-7502-7cd5-b642-b8a83a30c71c","","null","
                <div class=""stimulus-container"">
                    <img src=""images/instructions/movie_2.png"" class=""exp-image"">
                    <div class=""question-area""></div> 
                </div>","null","","","","","","","",""
"","","","","","html-button-response","9","54751","0.0-9.0","C26E207D61F94497895EF589F2E6CF26","019ceda6-b4d6-720c-904f-7d068608f305","019ceda4-7502-7cd5-b642-b8a83a30c71c","","1131","
                <div class=""stimulus-container"">
                    <img src=""images/instructions/movie_2.png"" class=""exp-image"">
                    <div class=""question-area"">
                        <p style=""font-size: 20px; font-weight: bold; margin: 0;"">Was there a person in this image?</p>
                    </div>
                </div>","0","example_question","2","","","","","",""
"","","","","","html-keyboard-response","10","58756","0.0-10.0","C26E207D61F94497895EF589F2E6CF26","019ceda6-b4d6-720c-904f-7d068608f305","019ceda4-7502-7cd5-b642-b8a83a30c71c","","null","
                <div class=""stimulus-container"">
                    <img src=""images/instructions/movie_3.png"" class=""exp-image"">
                    <div class=""question-area""></div> 
                </div>","null","","","","","","","",""
"","","","","","html-button-response","11","59304","0.0-11.0","C26E207D61F94497895EF589F2E6CF26","019ceda6-b4d6-720c-904f-7d068608f305","019ceda4-7502-7cd5-b642-b8a83a30c71c","","547","
                <div class=""stimulus-container"">
                    <img src=""images/instructions/movie_3.png"" class=""exp-image"">
                    <div class=""question-area"">
                        <p style=""font-size: 20px; font-weight: bold; margin: 0;"">Was there a person in this image?</p>
                    </div>
                </div>","0","example_question","3","","","","","",""
"","","","","","html-keyboard-response","12","63305","0.0-12.0","C26E207D61F94497895EF589F2E6CF26","019ceda6-b4d6-720c-904f-7d068608f305","019ceda4-7502-7cd5-b642-b8a83a30c71c","","null","
                <div class=""stimulus-container"">
                    <img src=""images/instructions/movie_4.png"" class=""exp-image"">
                    <div class=""question-area""></div> 
                </div>","null","","","","","","","",""
"","","","","","html-button-response","13","64401","0.0-13.0","C26E207D61F94497895EF589F2E6CF26","019ceda6-b4d6-720c-904f-7d068608f305","019ceda4-7502-7cd5-b642-b8a83a30c71c","","1096","
                <div class=""stimulus-container"">
                    <img src=""images/instructions/movie_4.png"" class=""exp-image"">
                    <div class=""question-area"">
                        <p style=""font-size: 20px; font-weight: bold; margin: 0;"">Was there a person in this image?</p>
                    </div>
                </div>","0","example_question","4","","","","","",""
"","","","","","instructions","14","67265","0.0-14.0","C26E207D61F94497895EF589F2E6CF26","019ceda6-b4d6-720c-904f-7d068608f305","019ceda4-7502-7cd5-b642-b8a83a30c71c","[{""page_index"":0,""viewing_time"":2864}]","2864","","","","","","","","","",""
"","","","","","instructions","15","75218","0.0-15.0","C26E207D61F94497895EF589F2E6CF26","019ceda6-b4d6-720c-904f-7d068608f305","019ceda4-7502-7cd5-b642-b8a83a30c71c","[{""page_index"":0,""viewing_time"":7953}]","7953","","","","","","","","","",""
"","","","","","html-keyboard-response","16","76228","0.0-16.0","C26E207D61F94497895EF589F2E6CF26","019ceda6-b4d6-720c-904f-7d068608f305","019ceda4-7502-7cd5-b642-b8a83a30c71c","","null","<div style=""background-color: white; width: 100vw; height: 100vh;""></div>","null","","","","","","","",""
"","","","","","html-keyboard-response","17","81232","0.0-17.0","C26E207D61F94497895EF589F2E6CF26","019ceda6-b4d6-720c-904f-7d068608f305","019ceda4-7502-7cd5-b642-b8a83a30c71c","","null","
                <div class=""stimulus-container"">
                    <img src=""images/schematic_sequence/hotel_scheme/hotel_scheme_1.png"" class=""exp-image"">
                    <div class=""question-area""></div> 
                </div>","null","","","","","","","",""
"","","","","","html-button-response","18","82220","0.0-18.0","C26E207D61F94497895EF589F2E6CF26","019ceda6-b4d6-720c-904f-7d068608f305","019ceda4-7502-7cd5-b642-b8a83a30c71c","","987","
                <div class=""stimulus-container"">
                    <img src=""images/schematic_sequence/hotel_scheme/hotel_scheme_1.png"" class=""exp-image"">
                    <div class=""question-area"">
                        <p style=""font-size: 20px; font-weight: bold; margin: 0;"">Is there a person in this image?</p>
                    </div>
                </div>","1","main_experiment_trial","1","hotel_scheme","schematic_sequence","","","",""
"","","","","","html-keyboard-response","19","87236","0.0-19.0","C26E207D61F94497895EF589F2E6CF26","019ceda6-b4d6-720c-904f-7d068608f305","019ceda4-7502-7cd5-b642-b8a83a30c71c","","null","
                <div class=""stimulus-container"">
                    <img src=""images/schematic_sequence/hotel_scheme/hotel_scheme_2.png"" class=""exp-image"">
                    <div class=""question-area""></div> 
                </div>","null","","","","","","","",""
"","","","","","html-button-response","20","87916","0.0-20.0","C26E207D61F94497895EF589F2E6CF26","019ceda6-b4d6-720c-904f-7d068608f305","019ceda4-7502-7cd5-b642-b8a83a30c71c","","679","
                <div class=""stimulus-container"">
                    <img src=""images/schematic_sequence/hotel_scheme/hotel_scheme_2.png"" class=""exp-image"">
                    <div class=""question-area"">
                        <p style=""font-size: 20px; font-weight: bold; margin: 0;"">Is there a person in this image?</p>
                    </div>
                </div>","0","main_experiment_trial","2","hotel_scheme","schematic_sequence","","","",""
"","","","","","html-keyboard-response","21","92931","0.0-21.0","C26E207D61F94497895EF589F2E6CF26","019ceda6-b4d6-720c-904f-7d068608f305","019ceda4-7502-7cd5-b642-b8a83a30c71c","","null","
                <div class=""stimulus-container"">
                    <img src=""images/schematic_sequence/hotel_scheme/hotel_scheme_3.png"" class=""exp-image"">
                    <div class=""question-area""></div> 
                </div>","null","","","","","","","",""
"","","","","","html-button-response","22","93693","0.0-22.0","C26E207D61F94497895EF589F2E6CF26","019ceda6-b4d6-720c-904f-7d068608f305","019ceda4-7502-7cd5-b642-b8a83a30c71c","","762","
                <div class=""stimulus-container"">
                    <img src=""images/schematic_sequence/hotel_scheme/hotel_scheme_3.png"" class=""exp-image"">
                    <div class=""question-area"">
                        <p style=""font-size: 20px; font-weight: bold; margin: 0;"">Is there a person in this image?</p>
                    </div>
                </div>","0","main_experiment_trial","3","hotel_scheme","schematic_sequence","","","",""
"","","","","","html-keyboard-response","23","98701","0.0-23.0","C26E207D61F94497895EF589F2E6CF26","019ceda6-b4d6-720c-904f-7d068608f305","019ceda4-7502-7cd5-b642-b8a83a30c71c","","null","
                <div class=""stimulus-container"">
                    <img src=""images/schematic_sequence/hotel_scheme/hotel_scheme_4.png"" class=""exp-image"">
                    <div class=""question-area""></div> 
                </div>","null","","","","","","","",""
"","","","","","html-button-response","24","100038","0.0-24.0","C26E207D61F94497895EF589F2E6CF26","019ceda6-b4d6-720c-904f-7d068608f305","019ceda4-7502-7cd5-b642-b8a83a30c71c","","1337","
                <div class=""stimulus-container"">
                    <img src=""images/schematic_sequence/hotel_scheme/hotel_scheme_4.png"" class=""exp-image"">
                    <div class=""question-area"">
                        <p style=""font-size: 20px; font-weight: bold; margin: 0;"">Is there a person in this image?</p>
                    </div>
                </div>","1","main_experiment_trial","4","hotel_scheme","schematic_sequence","","","",""
"","","","","","html-keyboard-response","25","105046","0.0-25.0","C26E207D61F94497895EF589F2E6CF26","019ceda6-b4d6-720c-904f-7d068608f305","019ceda4-7502-7cd5-b642-b8a83a30c71c","","null","
                <div class=""stimulus-container"">
                    <img src=""images/schematic_sequence/hotel_scheme/hotel_scheme_5.png"" class=""exp-image"">
                    <div class=""question-area""></div> 
                </div>","null","","","","","","","",""
"","","","","","html-button-response","26","105991","0.0-26.0","C26E207D61F94497895EF589F2E6CF26","019ceda6-b4d6-720c-904f-7d068608f305","019ceda4-7502-7cd5-b642-b8a83a30c71c","","945","
                <div class=""stimulus-container"">
                    <img src=""images/schematic_sequence/hotel_scheme/hotel_scheme_5.png"" class=""exp-image"">
                    <div class=""question-area"">
                        <p style=""font-size: 20px; font-weight: bold; margin: 0;"">Is there a person in this image?</p>
                    </div>
                </div>","0","main_experiment_trial","5","hotel_scheme","schematic_sequence","","","",""
"","","","","","html-keyboard-response","27","111004","0.0-27.0","C26E207D61F94497895EF589F2E6CF26","019ceda6-b4d6-720c-904f-7d068608f305","019ceda4-7502-7cd5-b642-b8a83a30c71c","","null","
                <div class=""stimulus-container"">
                    <img src=""images/schematic_sequence/hotel_scheme/hotel_scheme_6.png"" class=""exp-image"">
                    <div class=""question-area""></div> 
                </div>","null","","","","","","","",""
"","","","","","html-button-response","28","111832","0.0-28.0","C26E207D61F94497895EF589F2E6CF26","019ceda6-b4d6-720c-904f-7d068608f305","019ceda4-7502-7cd5-b642-b8a83a30c71c","","827","
                <div class=""stimulus-container"">
                    <img src=""images/schematic_sequence/hotel_scheme/hotel_scheme_6.png"" class=""exp-image"">
                    <div class=""question-area"">
                        <p style=""font-size: 20px; font-weight: bold; margin: 0;"">Is there a person in this image?</p>
                    </div>
                </div>","0","main_experiment_trial","6","hotel_scheme","schematic_sequence","","","",""
"","","","","","html-keyboard-response","29","116836","0.0-29.0","C26E207D61F94497895EF589F2E6CF26","019ceda6-b4d6-720c-904f-7d068608f305","019ceda4-7502-7cd5-b642-b8a83a30c71c","","null","
                <div class=""stimulus-container"">
                    <img src=""images/schematic_sequence/hotel_scheme/hotel_scheme_7.png"" class=""exp-image"">
                    <div class=""question-area""></div> 
                </div>","null","","","","","","","",""
"","","","","","html-button-response","30","117801","0.0-30.0","C26E207D61F94497895EF589F2E6CF26","019ceda6-b4d6-720c-904f-7d068608f305","019ceda4-7502-7cd5-b642-b8a83a30c71c","","964","
                <div class=""stimulus-container"">
                    <img src=""images/schematic_sequence/hotel_scheme/hotel_scheme_7.png"" class=""exp-image"">
                    <div class=""question-area"">
                        <p style=""font-size: 20px; font-weight: bold; margin: 0;"">Is there a person in this image?</p>
                    </div>
                </div>","0","main_experiment_trial","7","hotel_scheme","schematic_sequence","","","",""
"","","","","","html-keyboard-response","31","122804","0.0-31.0","C26E207D61F94497895EF589F2E6CF26","019ceda6-b4d6-720c-904f-7d068608f305","019ceda4-7502-7cd5-b642-b8a83a30c71c","","null","
                <div class=""stimulus-container"">
                    <img src=""images/schematic_sequence/hotel_scheme/hotel_scheme_8.png"" class=""exp-image"">
                    <div class=""question-area""></div> 
                </div>","null","","","","","","","",""
"","","","","","html-button-response","32","123417","0.0-32.0","C26E207D61F94497895EF589F2E6CF26","019ceda6-b4d6-720c-904f-7d068608f305","019ceda4-7502-7cd5-b642-b8a83a30c71c","","613","
                <div class=""stimulus-container"">
                    <img src=""images/schematic_sequence/hotel_scheme/hotel_scheme_8.png"" class=""exp-image"">
                    <div class=""question-area"">
                        <p style=""font-size: 20px; font-weight: bold; margin: 0;"">Is there a person in this image?</p>
                    </div>
                </div>","0","main_experiment_trial","8","hotel_scheme","schematic_sequence","","","",""
"","","","","","html-keyboard-response","33","128418","0.0-33.0","C26E207D61F94497895EF589F2E6CF26","019ceda6-b4d6-720c-904f-7d068608f305","019ceda4-7502-7cd5-b642-b8a83a30c71c","","null","
                <div class=""stimulus-container"">
                    <img src=""images/schematic_sequence/hotel_scheme/hotel_scheme_9.png"" class=""exp-image"">
                    <div class=""question-area""></div> 
                </div>","null","","","","","","","",""
"","","","","","html-button-response","34","128922","0.0-34.0","C26E207D61F94497895EF589F2E6CF26","019ceda6-b4d6-720c-904f-7d068608f305","019ceda4-7502-7cd5-b642-b8a83a30c71c","","504","
                <div class=""stimulus-container"">
                    <img src=""images/schematic_sequence/hotel_scheme/hotel_scheme_9.png"" class=""exp-image"">
                    <div class=""question-area"">
                        <p style=""font-size: 20px; font-weight: bold; margin: 0;"">Is there a person in this image?</p>
                    </div>
                </div>","0","main_experiment_trial","9","hotel_scheme","schematic_sequence","","","",""
"","","","","","html-keyboard-response","35","133931","0.0-35.0","C26E207D61F94497895EF589F2E6CF26","019ceda6-b4d6-720c-904f-7d068608f305","019ceda4-7502-7cd5-b642-b8a83a30c71c","","null","
                <div class=""stimulus-container"">
                    <img src=""images/schematic_sequence/hotel_scheme/hotel_scheme_ten.png"" class=""exp-image"">
                    <div class=""question-area""></div> 
                </div>","null","","","","","","","",""
"","","","","","html-button-response","36","134715","0.0-36.0","C26E207D61F94497895EF589F2E6CF26","019ceda6-b4d6-720c-904f-7d068608f305","019ceda4-7502-7cd5-b642-b8a83a30c71c","","783","
                <div class=""stimulus-container"">
                    <img src=""images/schematic_sequence/hotel_scheme/hotel_scheme_ten.png"" class=""exp-image"">
                    <div class=""question-area"">
                        <p style=""font-size: 20px; font-weight: bold; margin: 0;"">Is there a person in this image?</p>
                    </div>
                </div>","0","main_experiment_trial","ten","hotel_scheme","schematic_sequence","","","",""
"","","","","","html-keyboard-response","37","135725","0.0-37.0","C26E207D61F94497895EF589F2E6CF26","019ceda6-b4d6-720c-904f-7d068608f305","019ceda4-7502-7cd5-b642-b8a83a30c71c","","null","<div style=""background-color: white; width: 100vw; height: 100vh;""></div>","null","","","","","","","",""
"","","","","","html-keyboard-response","38","140739","0.0-38.0","C26E207D61F94497895EF589F2E6CF26","019ceda6-b4d6-720c-904f-7d068608f305","019ceda4-7502-7cd5-b642-b8a83a30c71c","","null","
                <div class=""stimulus-container"">
                    <img src=""images/schematic_sequence/supermarket_scheme/supermarket_scheme_1.png"" class=""exp-image"">
                    <div class=""question-area""></div> 
                </div>","null","","","","","","","",""
"","","","","","html-button-response","39","141460","0.0-39.0","C26E207D61F94497895EF589F2E6CF26","019ceda6-b4d6-720c-904f-7d068608f305","019ceda4-7502-7cd5-b642-b8a83a30c71c","","721","
                <div class=""stimulus-container"">
                    <img src=""images/schematic_sequence/supermarket_scheme/supermarket_scheme_1.png"" class=""exp-image"">
                    <div class=""question-area"">
                        <p style=""font-size: 20px; font-weight: bold; margin: 0;"">Is there a person in this image?</p>
                    </div>
                </div>","1","main_experiment_trial","1","supermarket_scheme","schematic_sequence","","","",""
"","","","","","html-keyboard-response","40","146467","0.0-40.0","C26E207D61F94497895EF589F2E6CF26","019ceda6-b4d6-720c-904f-7d068608f305","019ceda4-7502-7cd5-b642-b8a83a30c71c","","null","
                <div class=""stimulus-container"">
                    <img src=""images/schematic_sequence/supermarket_scheme/supermarket_scheme_2.png"" class=""exp-image"">
                    <div class=""question-area""></div> 
                </div>","null","","","","","","","",""
"","","","","","html-button-response","41","147085","0.0-41.0","C26E207D61F94497895EF589F2E6CF26","019ceda6-b4d6-720c-904f-7d068608f305","019ceda4-7502-7cd5-b642-b8a83a30c71c","","617","
                <div class=""stimulus-container"">
                    <img src=""images/schematic_sequence/supermarket_scheme/supermarket_scheme_2.png"" class=""exp-image"">
                    <div class=""question-area"">
                        <p style=""font-size: 20px; font-weight: bold; margin: 0;"">Is there a person in this image?</p>
                    </div>
                </div>","1","main_experiment_trial","2","supermarket_scheme","schematic_sequence","","","",""
"","","","","","html-keyboard-response","42","152090","0.0-42.0","C26E207D61F94497895EF589F2E6CF26","019ceda6-b4d6-720c-904f-7d068608f305","019ceda4-7502-7cd5-b642-b8a83a30c71c","","null","
                <div class=""stimulus-container"">
                    <img src=""images/schematic_sequence/supermarket_scheme/supermarket_scheme_3.png"" class=""exp-image"">
                    <div class=""question-area""></div> 
                </div>","null","","","","","","","",""
"","","","","","html-button-response","43","152798","0.0-43.0","C26E207D61F94497895EF589F2E6CF26","019ceda6-b4d6-720c-904f-7d068608f305","019ceda4-7502-7cd5-b642-b8a83a30c71c","","707","
                <div class=""stimulus-container"">
                    <img src=""images/schematic_sequence/supermarket_scheme/supermarket_scheme_3.png"" class=""exp-image"">
                    <div class=""question-area"">
                        <p style=""font-size: 20px; font-weight: bold; margin: 0;"">Is there a person in this image?</p>
                    </div>
                </div>","1","main_experiment_trial","3","supermarket_scheme","schematic_sequence","","","",""
"","","","","","html-keyboard-response","44","157807","0.0-44.0","C26E207D61F94497895EF589F2E6CF26","019ceda6-b4d6-720c-904f-7d068608f305","019ceda4-7502-7cd5-b642-b8a83a30c71c","","null","
                <div class=""stimulus-container"">
                    <img src=""images/schematic_sequence/supermarket_scheme/supermarket_scheme_4.png"" class=""exp-image"">
                    <div class=""question-area""></div> 
                </div>","null","","","","","","","",""
"","","","","","html-button-response","45","159143","0.0-45.0","C26E207D61F94497895EF589F2E6CF26","019ceda6-b4d6-720c-904f-7d068608f305","019ceda4-7502-7cd5-b642-b8a83a30c71c","","1335","
                <div class=""stimulus-container"">
                    <img src=""images/schematic_sequence/supermarket_scheme/supermarket_scheme_4.png"" class=""exp-image"">
                    <div class=""question-area"">
                        <p style=""font-size: 20px; font-weight: bold; margin: 0;"">Is there a person in this image?</p>
                    </div>
                </div>","0","main_experiment_trial","4","supermarket_scheme","schematic_sequence","","","",""
"","","","","","html-keyboard-response","46","164150","0.0-46.0","C26E207D61F94497895EF589F2E6CF26","019ceda6-b4d6-720c-904f-7d068608f305","019ceda4-7502-7cd5-b642-b8a83a30c71c","","null","
                <div class=""stimulus-container"">
                    <img src=""images/schematic_sequence/supermarket_scheme/supermarket_scheme_5.png"" class=""exp-image"">
                    <div class=""question-area""></div> 
                </div>","null","","","","","","","",""
"","","","","","html-button-response","47","164615","0.0-47.0","C26E207D61F94497895EF589F2E6CF26","019ceda6-b4d6-720c-904f-7d068608f305","019ceda4-7502-7cd5-b642-b8a83a30c71c","","465","
                <div class=""stimulus-container"">
                    <img src=""images/schematic_sequence/supermarket_scheme/supermarket_scheme_5.png"" class=""exp-image"">
                    <div class=""question-area"">
                        <p style=""font-size: 20px; font-weight: bold; margin: 0;"">Is there a person in this image?</p>
                    </div>
                </div>","1","main_experiment_trial","5","supermarket_scheme","schematic_sequence","","","",""
"","","","","","html-keyboard-response","48","169617","0.0-48.0","C26E207D61F94497895EF589F2E6CF26","019ceda6-b4d6-720c-904f-7d068608f305","019ceda4-7502-7cd5-b642-b8a83a30c71c","","null","
                <div class=""stimulus-container"">
                    <img src=""images/schematic_sequence/supermarket_scheme/supermarket_scheme_6.png"" class=""exp-image"">
                    <div class=""question-area""></div> 
                </div>","null","","","","","","","",""
"","","","","","html-button-response","49","170648","0.0-49.0","C26E207D61F94497895EF589F2E6CF26","019ceda6-b4d6-720c-904f-7d068608f305","019ceda4-7502-7cd5-b642-b8a83a30c71c","","1030","
                <div class=""stimulus-container"">
                    <img src=""images/schematic_sequence/supermarket_scheme/supermarket_scheme_6.png"" class=""exp-image"">
                    <div class=""question-area"">
                        <p style=""font-size: 20px; font-weight: bold; margin: 0;"">Is there a person in this image?</p>
                    </div>
                </div>","0","main_experiment_trial","6","supermarket_scheme","schematic_sequence","","","",""
"","","","","","html-keyboard-response","50","175664","0.0-50.0","C26E207D61F94497895EF589F2E6CF26","019ceda6-b4d6-720c-904f-7d068608f305","019ceda4-7502-7cd5-b642-b8a83a30c71c","","null","
                <div class=""stimulus-container"">
                    <img src=""images/schematic_sequence/supermarket_scheme/supermarket_scheme_7.png"" class=""exp-image"">
                    <div class=""question-area""></div> 
                </div>","null","","","","","","","",""
"","","","","","html-button-response","51","177097","0.0-51.0","C26E207D61F94497895EF589F2E6CF26","019ceda6-b4d6-720c-904f-7d068608f305","019ceda4-7502-7cd5-b642-b8a83a30c71c","","1433","
                <div class=""stimulus-container"">
                    <img src=""images/schematic_sequence/supermarket_scheme/supermarket_scheme_7.png"" class=""exp-image"">
                    <div class=""question-area"">
                        <p style=""font-size: 20px; font-weight: bold; margin: 0;"">Is there a person in this image?</p>
                    </div>
                </div>","0","main_experiment_trial","7","supermarket_scheme","schematic_sequence","","","",""
"","","","","","html-keyboard-response","52","182113","0.0-52.0","C26E207D61F94497895EF589F2E6CF26","019ceda6-b4d6-720c-904f-7d068608f305","019ceda4-7502-7cd5-b642-b8a83a30c71c","","null","
                <div class=""stimulus-container"">
                    <img src=""images/schematic_sequence/supermarket_scheme/supermarket_scheme_8.png"" class=""exp-image"">
                    <div class=""question-area""></div> 
                </div>","null","","","","","","","",""
"","","","","","html-button-response","53","183442","0.0-53.0","C26E207D61F94497895EF589F2E6CF26","019ceda6-b4d6-720c-904f-7d068608f305","019ceda4-7502-7cd5-b642-b8a83a30c71c","","1328","
                <div class=""stimulus-container"">
                    <img src=""images/schematic_sequence/supermarket_scheme/supermarket_scheme_8.png"" class=""exp-image"">
                    <div class=""question-area"">
                        <p style=""font-size: 20px; font-weight: bold; margin: 0;"">Is there a person in this image?</p>
                    </div>
                </div>","0","main_experiment_trial","8","supermarket_scheme","schematic_sequence","","","",""
"","","","","","html-keyboard-response","54","188449","0.0-54.0","C26E207D61F94497895EF589F2E6CF26","019ceda6-b4d6-720c-904f-7d068608f305","019ceda4-7502-7cd5-b642-b8a83a30c71c","","null","
                <div class=""stimulus-container"">
                    <img src=""images/schematic_sequence/supermarket_scheme/supermarket_scheme_9.png"" class=""exp-image"">
                    <div class=""question-area""></div> 
                </div>","null","","","","","","","",""
"","","","","","html-button-response","55","189003","0.0-55.0","C26E207D61F94497895EF589F2E6CF26","019ceda6-b4d6-720c-904f-7d068608f305","019ceda4-7502-7cd5-b642-b8a83a30c71c","","554","
                <div class=""stimulus-container"">
                    <img src=""images/schematic_sequence/supermarket_scheme/supermarket_scheme_9.png"" class=""exp-image"">
                    <div class=""question-area"">
                        <p style=""font-size: 20px; font-weight: bold; margin: 0;"">Is there a person in this image?</p>
                    </div>
                </div>","0","main_experiment_trial","9","supermarket_scheme","schematic_sequence","","","",""
"","","","","","html-keyboard-response","56","194007","0.0-56.0","C26E207D61F94497895EF589F2E6CF26","019ceda6-b4d6-720c-904f-7d068608f305","019ceda4-7502-7cd5-b642-b8a83a30c71c","","null","
                <div class=""stimulus-container"">
                    <img src=""images/schematic_sequence/supermarket_scheme/supermarket_scheme_ten.png"" class=""exp-image"">
                    <div class=""question-area""></div> 
                </div>","null","","","","","","","",""
"","","","","","html-button-response","57","194532","0.0-57.0","C26E207D61F94497895EF589F2E6CF26","019ceda6-b4d6-720c-904f-7d068608f305","019ceda4-7502-7cd5-b642-b8a83a30c71c","","524","
                <div class=""stimulus-container"">
                    <img src=""images/schematic_sequence/supermarket_scheme/supermarket_scheme_ten.png"" class=""exp-image"">
                    <div class=""question-area"">
                        <p style=""font-size: 20px; font-weight: bold; margin: 0;"">Is there a person in this image?</p>
                    </div>
                </div>","1","main_experiment_trial","ten","supermarket_scheme","schematic_sequence","","","",""
"","","","","","html-keyboard-response","58","195540","0.0-58.0","C26E207D61F94497895EF589F2E6CF26","019ceda6-b4d6-720c-904f-7d068608f305","019ceda4-7502-7cd5-b642-b8a83a30c71c","","null","<div style=""background-color: white; width: 100vw; height: 100vh;""></div>","null","","","","","","","",""
"","","","","","html-keyboard-response","59","200555","0.0-59.0","C26E207D61F94497895EF589F2E6CF26","019ceda6-b4d6-720c-904f-7d068608f305","019ceda4-7502-7cd5-b642-b8a83a30c71c","","null","
                <div class=""stimulus-container"">
                    <img src=""images/causal_sequence/package_causal/package_causal_1.png"" class=""exp-image"">
                    <div class=""question-area""></div> 
                </div>","null","","","","","","","",""
"","","","","","html-button-response","60","201429","0.0-60.0","C26E207D61F94497895EF589F2E6CF26","019ceda6-b4d6-720c-904f-7d068608f305","019ceda4-7502-7cd5-b642-b8a83a30c71c","","873","
                <div class=""stimulus-container"">
                    <img src=""images/causal_sequence/package_causal/package_causal_1.png"" class=""exp-image"">
                    <div class=""question-area"">
                        <p style=""font-size: 20px; font-weight: bold; margin: 0;"">Is there a person in this image?</p>
                    </div>
                </div>","0","main_experiment_trial","1","package_causal","causal_sequence","","","",""
"","","","","","html-keyboard-response","61","206431","0.0-61.0","C26E207D61F94497895EF589F2E6CF26","019ceda6-b4d6-720c-904f-7d068608f305","019ceda4-7502-7cd5-b642-b8a83a30c71c","","null","
                <div class=""stimulus-container"">
                    <img src=""images/causal_sequence/package_causal/package_causal_2.png"" class=""exp-image"">
                    <div class=""question-area""></div> 
                </div>","null","","","","","","","",""
"","","","","","html-button-response","62","207029","0.0-62.0","C26E207D61F94497895EF589F2E6CF26","019ceda6-b4d6-720c-904f-7d068608f305","019ceda4-7502-7cd5-b642-b8a83a30c71c","","598","
                <div class=""stimulus-container"">
                    <img src=""images/causal_sequence/package_causal/package_causal_2.png"" class=""exp-image"">
                    <div class=""question-area"">
                        <p style=""font-size: 20px; font-weight: bold; margin: 0;"">Is there a person in this image?</p>
                    </div>
                </div>","0","main_experiment_trial","2","package_causal","causal_sequence","","","",""
"","","","","","html-keyboard-response","63","212032","0.0-63.0","C26E207D61F94497895EF589F2E6CF26","019ceda6-b4d6-720c-904f-7d068608f305","019ceda4-7502-7cd5-b642-b8a83a30c71c","","null","
                <div class=""stimulus-container"">
                    <img src=""images/causal_sequence/package_causal/package_causal_3.png"" class=""exp-image"">
                    <div class=""question-area""></div> 
                </div>","null","","","","","","","",""
"","","","","","html-button-response","64","213014","0.0-64.0","C26E207D61F94497895EF589F2E6CF26","019ceda6-b4d6-720c-904f-7d068608f305","019ceda4-7502-7cd5-b642-b8a83a30c71c","","982","
                <div class=""stimulus-container"">
                    <img src=""images/causal_sequence/package_causal/package_causal_3.png"" class=""exp-image"">
                    <div class=""question-area"">
                        <p style=""font-size: 20px; font-weight: bold; margin: 0;"">Is there a person in this image?</p>
                    </div>
                </div>","0","main_experiment_trial","3","package_causal","causal_sequence","","","",""
"","","","","","html-keyboard-response","65","218020","0.0-65.0","C26E207D61F94497895EF589F2E6CF26","019ceda6-b4d6-720c-904f-7d068608f305","019ceda4-7502-7cd5-b642-b8a83a30c71c","","null","
                <div class=""stimulus-container"">
                    <img src=""images/causal_sequence/package_causal/package_causal_4.png"" class=""exp-image"">
                    <div class=""question-area""></div> 
                </div>","null","","","","","","","",""
"","","","","","html-button-response","66","219527","0.0-66.0","C26E207D61F94497895EF589F2E6CF26","019ceda6-b4d6-720c-904f-7d068608f305","019ceda4-7502-7cd5-b642-b8a83a30c71c","","1507","
                <div class=""stimulus-container"">
                    <img src=""images/causal_sequence/package_causal/package_causal_4.png"" class=""exp-image"">
                    <div class=""question-area"">
                        <p style=""font-size: 20px; font-weight: bold; margin: 0;"">Is there a person in this image?</p>
                    </div>
                </div>","1","main_experiment_trial","4","package_causal","causal_sequence","","","",""
"","","","","","html-keyboard-response","67","224536","0.0-67.0","C26E207D61F94497895EF589F2E6CF26","019ceda6-b4d6-720c-904f-7d068608f305","019ceda4-7502-7cd5-b642-b8a83a30c71c","","null","
                <div class=""stimulus-container"">
                    <img src=""images/causal_sequence/package_causal/package_causal_5.png"" class=""exp-image"">
                    <div class=""question-area""></div> 
                </div>","null","","","","","","","",""
"","","","","","html-button-response","68","225288","0.0-68.0","C26E207D61F94497895EF589F2E6CF26","019ceda6-b4d6-720c-904f-7d068608f305","019ceda4-7502-7cd5-b642-b8a83a30c71c","","752","
                <div class=""stimulus-container"">
                    <img src=""images/causal_sequence/package_causal/package_causal_5.png"" class=""exp-image"">
                    <div class=""question-area"">
                        <p style=""font-size: 20px; font-weight: bold; margin: 0;"">Is there a person in this image?</p>
                    </div>
                </div>","0","main_experiment_trial","5","package_causal","causal_sequence","","","",""
"","","","","","html-keyboard-response","69","230293","0.0-69.0","C26E207D61F94497895EF589F2E6CF26","019ceda6-b4d6-720c-904f-7d068608f305","019ceda4-7502-7cd5-b642-b8a83a30c71c","","null","
                <div class=""stimulus-container"">
                    <img src=""images/causal_sequence/package_causal/package_causal_6.png"" class=""exp-image"">
                    <div class=""question-area""></div> 
                </div>","null","","","","","","","",""
"","","","","","html-button-response","70","230681","0.0-70.0","C26E207D61F94497895EF589F2E6CF26","019ceda6-b4d6-720c-904f-7d068608f305","019ceda4-7502-7cd5-b642-b8a83a30c71c","","387","
                <div class=""stimulus-container"">
                    <img src=""images/causal_sequence/package_causal/package_causal_6.png"" class=""exp-image"">
                    <div class=""question-area"">
                        <p style=""font-size: 20px; font-weight: bold; margin: 0;"">Is there a person in this image?</p>
                    </div>
                </div>","0","main_experiment_trial","6","package_causal","causal_sequence","","","",""
"","","","","","html-keyboard-response","71","235687","0.0-71.0","C26E207D61F94497895EF589F2E6CF26","019ceda6-b4d6-720c-904f-7d068608f305","019ceda4-7502-7cd5-b642-b8a83a30c71c","","null","
                <div class=""stimulus-container"">
                    <img src=""images/causal_sequence/package_causal/package_causal_7.png"" class=""exp-image"">
                    <div class=""question-area""></div> 
                </div>","null","","","","","","","",""
"","","","","","html-button-response","72","236218","0.0-72.0","C26E207D61F94497895EF589F2E6CF26","019ceda6-b4d6-720c-904f-7d068608f305","019ceda4-7502-7cd5-b642-b8a83a30c71c","","531","
                <div class=""stimulus-container"">
                    <img src=""images/causal_sequence/package_causal/package_causal_7.png"" class=""exp-image"">
                    <div class=""question-area"">
                        <p style=""font-size: 20px; font-weight: bold; margin: 0;"">Is there a person in this image?</p>
                    </div>
                </div>","0","main_experiment_trial","7","package_causal","causal_sequence","","","",""
"","","","","","html-keyboard-response","73","241234","0.0-73.0","C26E207D61F94497895EF589F2E6CF26","019ceda6-b4d6-720c-904f-7d068608f305","019ceda4-7502-7cd5-b642-b8a83a30c71c","","null","
                <div class=""stimulus-container"">
                    <img src=""images/causal_sequence/package_causal/package_causal_8.png"" class=""exp-image"">
                    <div class=""question-area""></div> 
                </div>","null","","","","","","","",""
"","","","","","html-button-response","74","241650","0.0-74.0","C26E207D61F94497895EF589F2E6CF26","019ceda6-b4d6-720c-904f-7d068608f305","019ceda4-7502-7cd5-b642-b8a83a30c71c","","416","
                <div class=""stimulus-container"">
                    <img src=""images/causal_sequence/package_causal/package_causal_8.png"" class=""exp-image"">
                    <div class=""question-area"">
                        <p style=""font-size: 20px; font-weight: bold; margin: 0;"">Is there a person in this image?</p>
                    </div>
                </div>","0","main_experiment_trial","8","package_causal","causal_sequence","","","",""
"","","","","","html-keyboard-response","75","246657","0.0-75.0","C26E207D61F94497895EF589F2E6CF26","019ceda6-b4d6-720c-904f-7d068608f305","019ceda4-7502-7cd5-b642-b8a83a30c71c","","null","
                <div class=""stimulus-container"">
                    <img src=""images/causal_sequence/package_causal/package_causal_9.png"" class=""exp-image"">
                    <div class=""question-area""></div> 
                </div>","null","","","","","","","",""
"","","","","","html-button-response","76","247107","0.0-76.0","C26E207D61F94497895EF589F2E6CF26","019ceda6-b4d6-720c-904f-7d068608f305","019ceda4-7502-7cd5-b642-b8a83a30c71c","","450","
                <div class=""stimulus-container"">
                    <img src=""images/causal_sequence/package_causal/package_causal_9.png"" class=""exp-image"">
                    <div class=""question-area"">
                        <p style=""font-size: 20px; font-weight: bold; margin: 0;"">Is there a person in this image?</p>
                    </div>
                </div>","0","main_experiment_trial","9","package_causal","causal_sequence","","","",""
"","","","","","html-keyboard-response","77","252121","0.0-77.0","C26E207D61F94497895EF589F2E6CF26","019ceda6-b4d6-720c-904f-7d068608f305","019ceda4-7502-7cd5-b642-b8a83a30c71c","","null","
                <div class=""stimulus-container"">
                    <img src=""images/causal_sequence/package_causal/package_causal_ten.png"" class=""exp-image"">
                    <div class=""question-area""></div> 
                </div>","null","","","","","","","",""
"","","","","","html-button-response","78","252476","0.0-78.0","C26E207D61F94497895EF589F2E6CF26","019ceda6-b4d6-720c-904f-7d068608f305","019ceda4-7502-7cd5-b642-b8a83a30c71c","","354","
                <div class=""stimulus-container"">
                    <img src=""images/causal_sequence/package_causal/package_causal_ten.png"" class=""exp-image"">
                    <div class=""question-area"">
                        <p style=""font-size: 20px; font-weight: bold; margin: 0;"">Is there a person in this image?</p>
                    </div>
                </div>","0","main_experiment_trial","ten","package_causal","causal_sequence","","","",""
"","","","","","html-keyboard-response","79","253490","0.0-79.0","C26E207D61F94497895EF589F2E6CF26","019ceda6-b4d6-720c-904f-7d068608f305","019ceda4-7502-7cd5-b642-b8a83a30c71c","","null","<div style=""background-color: white; width: 100vw; height: 100vh;""></div>","null","","","","","","","",""
"","","","","","html-keyboard-response","80","258493","0.0-80.0","C26E207D61F94497895EF589F2E6CF26","019ceda6-b4d6-720c-904f-7d068608f305","019ceda4-7502-7cd5-b642-b8a83a30c71c","","null","
                <div class=""stimulus-container"">
                    <img src=""images/schematic_sequence/restaurant_scheme/restaurant_scheme_1.png"" class=""exp-image"">
                    <div class=""question-area""></div> 
                </div>","null","","","","","","","",""
"","","","","","html-button-response","81","258989","0.0-81.0","C26E207D61F94497895EF589F2E6CF26","019ceda6-b4d6-720c-904f-7d068608f305","019ceda4-7502-7cd5-b642-b8a83a30c71c","","496","
                <div class=""stimulus-container"">
                    <img src=""images/schematic_sequence/restaurant_scheme/restaurant_scheme_1.png"" class=""exp-image"">
                    <div class=""question-area"">
                        <p style=""font-size: 20px; font-weight: bold; margin: 0;"">Is there a person in this image?</p>
                    </div>
                </div>","0","main_experiment_trial","1","restaurant_scheme","schematic_sequence","","","",""
"","","","","","html-keyboard-response","82","263996","0.0-82.0","C26E207D61F94497895EF589F2E6CF26","019ceda6-b4d6-720c-904f-7d068608f305","019ceda4-7502-7cd5-b642-b8a83a30c71c","","null","
                <div class=""stimulus-container"">
                    <img src=""images/schematic_sequence/restaurant_scheme/restaurant_scheme_2.png"" class=""exp-image"">
                    <div class=""question-area""></div> 
                </div>","null","","","","","","","",""
"","","","","","html-button-response","83","264366","0.0-83.0","C26E207D61F94497895EF589F2E6CF26","019ceda6-b4d6-720c-904f-7d068608f305","019ceda4-7502-7cd5-b642-b8a83a30c71c","","369","
                <div class=""stimulus-container"">
                    <img src=""images/schematic_sequence/restaurant_scheme/restaurant_scheme_2.png"" class=""exp-image"">
                    <div class=""question-area"">
                        <p style=""font-size: 20px; font-weight: bold; margin: 0;"">Is there a person in this image?</p>
                    </div>
                </div>","1","main_experiment_trial","2","restaurant_scheme","schematic_sequence","","","",""
"","","","","","html-keyboard-response","84","269377","0.0-84.0","C26E207D61F94497895EF589F2E6CF26","019ceda6-b4d6-720c-904f-7d068608f305","019ceda4-7502-7cd5-b642-b8a83a30c71c","","null","
                <div class=""stimulus-container"">
                    <img src=""images/schematic_sequence/restaurant_scheme/restaurant_scheme_3.png"" class=""exp-image"">
                    <div class=""question-area""></div> 
                </div>","null","","","","","","","",""
"","","","","","html-button-response","85","269719","0.0-85.0","C26E207D61F94497895EF589F2E6CF26","019ceda6-b4d6-720c-904f-7d068608f305","019ceda4-7502-7cd5-b642-b8a83a30c71c","","341","
                <div class=""stimulus-container"">
                    <img src=""images/schematic_sequence/restaurant_scheme/restaurant_scheme_3.png"" class=""exp-image"">
                    <div class=""question-area"">
                        <p style=""font-size: 20px; font-weight: bold; margin: 0;"">Is there a person in this image?</p>
                    </div>
                </div>","1","main_experiment_trial","3","restaurant_scheme","schematic_sequence","","","",""
"","","","","","html-keyboard-response","86","274729","0.0-86.0","C26E207D61F94497895EF589F2E6CF26","019ceda6-b4d6-720c-904f-7d068608f305","019ceda4-7502-7cd5-b642-b8a83a30c71c","","null","
                <div class=""stimulus-container"">
                    <img src=""images/schematic_sequence/restaurant_scheme/restaurant_scheme_4.png"" class=""exp-image"">
                    <div class=""question-area""></div> 
                </div>","null","","","","","","","",""
"","","","","","html-button-response","87","275103","0.0-87.0","C26E207D61F94497895EF589F2E6CF26","019ceda6-b4d6-720c-904f-7d068608f305","019ceda4-7502-7cd5-b642-b8a83a30c71c","","374","
                <div class=""stimulus-container"">
                    <img src=""images/schematic_sequence/restaurant_scheme/restaurant_scheme_4.png"" class=""exp-image"">
                    <div class=""question-area"">
                        <p style=""font-size: 20px; font-weight: bold; margin: 0;"">Is there a person in this image?</p>
                    </div>
                </div>","0","main_experiment_trial","4","restaurant_scheme","schematic_sequence","","","",""
"","","","","","html-keyboard-response","88","280108","0.0-88.0","C26E207D61F94497895EF589F2E6CF26","019ceda6-b4d6-720c-904f-7d068608f305","019ceda4-7502-7cd5-b642-b8a83a30c71c","","null","
                <div class=""stimulus-container"">
                    <img src=""images/schematic_sequence/restaurant_scheme/restaurant_scheme_5.png"" class=""exp-image"">
                    <div class=""question-area""></div> 
                </div>","null","","","","","","","",""
"","","","","","html-button-response","89","280456","0.0-89.0","C26E207D61F94497895EF589F2E6CF26","019ceda6-b4d6-720c-904f-7d068608f305","019ceda4-7502-7cd5-b642-b8a83a30c71c","","348","
                <div class=""stimulus-container"">
                    <img src=""images/schematic_sequence/restaurant_scheme/restaurant_scheme_5.png"" class=""exp-image"">
                    <div class=""question-area"">
                        <p style=""font-size: 20px; font-weight: bold; margin: 0;"">Is there a person in this image?</p>
                    </div>
                </div>","0","main_experiment_trial","5","restaurant_scheme","schematic_sequence","","","",""
"","","","","","html-keyboard-response","90","285461","0.0-90.0","C26E207D61F94497895EF589F2E6CF26","019ceda6-b4d6-720c-904f-7d068608f305","019ceda4-7502-7cd5-b642-b8a83a30c71c","","null","
                <div class=""stimulus-container"">
                    <img src=""images/schematic_sequence/restaurant_scheme/restaurant_scheme_6.png"" class=""exp-image"">
                    <div class=""question-area""></div> 
                </div>","null","","","","","","","",""
"","","","","","html-button-response","91","285825","0.0-91.0","C26E207D61F94497895EF589F2E6CF26","019ceda6-b4d6-720c-904f-7d068608f305","019ceda4-7502-7cd5-b642-b8a83a30c71c","","363","
                <div class=""stimulus-container"">
                    <img src=""images/schematic_sequence/restaurant_scheme/restaurant_scheme_6.png"" class=""exp-image"">
                    <div class=""question-area"">
                        <p style=""font-size: 20px; font-weight: bold; margin: 0;"">Is there a person in this image?</p>
                    </div>
                </div>","1","main_experiment_trial","6","restaurant_scheme","schematic_sequence","","","",""
"","","","","","html-keyboard-response","92","290837","0.0-92.0","C26E207D61F94497895EF589F2E6CF26","019ceda6-b4d6-720c-904f-7d068608f305","019ceda4-7502-7cd5-b642-b8a83a30c71c","","null","
                <div class=""stimulus-container"">
                    <img src=""images/schematic_sequence/restaurant_scheme/restaurant_scheme_7.png"" class=""exp-image"">
                    <div class=""question-area""></div> 
                </div>","null","","","","","","","",""
"","","","","","html-button-response","93","291210","0.0-93.0","C26E207D61F94497895EF589F2E6CF26","019ceda6-b4d6-720c-904f-7d068608f305","019ceda4-7502-7cd5-b642-b8a83a30c71c","","372","
                <div class=""stimulus-container"">
                    <img src=""images/schematic_sequence/restaurant_scheme/restaurant_scheme_7.png"" class=""exp-image"">
                    <div class=""question-area"">
                        <p style=""font-size: 20px; font-weight: bold; margin: 0;"">Is there a person in this image?</p>
                    </div>
                </div>","1","main_experiment_trial","7","restaurant_scheme","schematic_sequence","","","",""
"","","","","","html-keyboard-response","94","296213","0.0-94.0","C26E207D61F94497895EF589F2E6CF26","019ceda6-b4d6-720c-904f-7d068608f305","019ceda4-7502-7cd5-b642-b8a83a30c71c","","null","
                <div class=""stimulus-container"">
                    <img src=""images/schematic_sequence/restaurant_scheme/restaurant_scheme_8.png"" class=""exp-image"">
                    <div class=""question-area""></div> 
                </div>","null","","","","","","","",""
"","","","","","html-button-response","95","296891","0.0-95.0","C26E207D61F94497895EF589F2E6CF26","019ceda6-b4d6-720c-904f-7d068608f305","019ceda4-7502-7cd5-b642-b8a83a30c71c","","678","
                <div class=""stimulus-container"">
                    <img src=""images/schematic_sequence/restaurant_scheme/restaurant_scheme_8.png"" class=""exp-image"">
                    <div class=""question-area"">
                        <p style=""font-size: 20px; font-weight: bold; margin: 0;"">Is there a person in this image?</p>
                    </div>
                </div>","1","main_experiment_trial","8","restaurant_scheme","schematic_sequence","","","",""
"","","","","","html-keyboard-response","96","301897","0.0-96.0","C26E207D61F94497895EF589F2E6CF26","019ceda6-b4d6-720c-904f-7d068608f305","019ceda4-7502-7cd5-b642-b8a83a30c71c","","null","
                <div class=""stimulus-container"">
                    <img src=""images/schematic_sequence/restaurant_scheme/restaurant_scheme_9.png"" class=""exp-image"">
                    <div class=""question-area""></div> 
                </div>","null","","","","","","","",""
"","","","","","html-button-response","97","302259","0.0-97.0","C26E207D61F94497895EF589F2E6CF26","019ceda6-b4d6-720c-904f-7d068608f305","019ceda4-7502-7cd5-b642-b8a83a30c71c","","362","
                <div class=""stimulus-container"">
                    <img src=""images/schematic_sequence/restaurant_scheme/restaurant_scheme_9.png"" class=""exp-image"">
                    <div class=""question-area"">
                        <p style=""font-size: 20px; font-weight: bold; margin: 0;"">Is there a person in this image?</p>
                    </div>
                </div>","0","main_experiment_trial","9","restaurant_scheme","schematic_sequence","","","",""
"","","","","","html-keyboard-response","98","307272","0.0-98.0","C26E207D61F94497895EF589F2E6CF26","019ceda6-b4d6-720c-904f-7d068608f305","019ceda4-7502-7cd5-b642-b8a83a30c71c","","null","
                <div class=""stimulus-container"">
                    <img src=""images/schematic_sequence/restaurant_scheme/restaurant_scheme_ten.png"" class=""exp-image"">
                    <div class=""question-area""></div> 
                </div>","null","","","","","","","",""
"","","","","","html-button-response","99","307620","0.0-99.0","C26E207D61F94497895EF589F2E6CF26","019ceda6-b4d6-720c-904f-7d068608f305","019ceda4-7502-7cd5-b642-b8a83a30c71c","","347","
                <div class=""stimulus-container"">
                    <img src=""images/schematic_sequence/restaurant_scheme/restaurant_scheme_ten.png"" class=""exp-image"">
                    <div class=""question-area"">
                        <p style=""font-size: 20px; font-weight: bold; margin: 0;"">Is there a person in this image?</p>
                    </div>
                </div>","0","main_experiment_trial","ten","restaurant_scheme","schematic_sequence","","","",""
"","","","","","html-keyboard-response","100","308634","0.0-100.0","C26E207D61F94497895EF589F2E6CF26","019ceda6-b4d6-720c-904f-7d068608f305","019ceda4-7502-7cd5-b642-b8a83a30c71c","","null","<div style=""background-color: white; width: 100vw; height: 100vh;""></div>","null","","","","","","","",""
"","","","","","html-keyboard-response","101","313635","0.0-101.0","C26E207D61F94497895EF589F2E6CF26","019ceda6-b4d6-720c-904f-7d068608f305","019ceda4-7502-7cd5-b642-b8a83a30c71c","","null","
                <div class=""stimulus-container"">
                    <img src=""images/causal_sequence/dog_causal/dog_causal_1.png"" class=""exp-image"">
                    <div class=""question-area""></div> 
                </div>","null","","","","","","","",""
"","","","","","html-button-response","102","314181","0.0-102.0","C26E207D61F94497895EF589F2E6CF26","019ceda6-b4d6-720c-904f-7d068608f305","019ceda4-7502-7cd5-b642-b8a83a30c71c","","545","
                <div class=""stimulus-container"">
                    <img src=""images/causal_sequence/dog_causal/dog_causal_1.png"" class=""exp-image"">
                    <div class=""question-area"">
                        <p style=""font-size: 20px; font-weight: bold; margin: 0;"">Is there a person in this image?</p>
                    </div>
                </div>","0","main_experiment_trial","1","dog_causal","causal_sequence","","","",""
"","","","","","html-keyboard-response","103","319186","0.0-103.0","C26E207D61F94497895EF589F2E6CF26","019ceda6-b4d6-720c-904f-7d068608f305","019ceda4-7502-7cd5-b642-b8a83a30c71c","","null","
                <div class=""stimulus-container"">
                    <img src=""images/causal_sequence/dog_causal/dog_causal_2.png"" class=""exp-image"">
                    <div class=""question-area""></div> 
                </div>","null","","","","","","","",""
"","","","","","html-button-response","104","319590","0.0-104.0","C26E207D61F94497895EF589F2E6CF26","019ceda6-b4d6-720c-904f-7d068608f305","019ceda4-7502-7cd5-b642-b8a83a30c71c","","403","
                <div class=""stimulus-container"">
                    <img src=""images/causal_sequence/dog_causal/dog_causal_2.png"" class=""exp-image"">
                    <div class=""question-area"">
                        <p style=""font-size: 20px; font-weight: bold; margin: 0;"">Is there a person in this image?</p>
                    </div>
                </div>","0","main_experiment_trial","2","dog_causal","causal_sequence","","","",""
"","","","","","html-keyboard-response","105","324599","0.0-105.0","C26E207D61F94497895EF589F2E6CF26","019ceda6-b4d6-720c-904f-7d068608f305","019ceda4-7502-7cd5-b642-b8a83a30c71c","","null","
                <div class=""stimulus-container"">
                    <img src=""images/causal_sequence/dog_causal/dog_causal_3.png"" class=""exp-image"">
                    <div class=""question-area""></div> 
                </div>","null","","","","","","","",""
"","","","","","html-button-response","106","324967","0.0-106.0","C26E207D61F94497895EF589F2E6CF26","019ceda6-b4d6-720c-904f-7d068608f305","019ceda4-7502-7cd5-b642-b8a83a30c71c","","368","
                <div class=""stimulus-container"">
                    <img src=""images/causal_sequence/dog_causal/dog_causal_3.png"" class=""exp-image"">
                    <div class=""question-area"">
                        <p style=""font-size: 20px; font-weight: bold; margin: 0;"">Is there a person in this image?</p>
                    </div>
                </div>","0","main_experiment_trial","3","dog_causal","causal_sequence","","","",""
"","","","","","html-keyboard-response","107","329975","0.0-107.0","C26E207D61F94497895EF589F2E6CF26","019ceda6-b4d6-720c-904f-7d068608f305","019ceda4-7502-7cd5-b642-b8a83a30c71c","","null","
                <div class=""stimulus-container"">
                    <img src=""images/causal_sequence/dog_causal/dog_causal_4.png"" class=""exp-image"">
                    <div class=""question-area""></div> 
                </div>","null","","","","","","","",""
"","","","","","html-button-response","108","330359","0.0-108.0","C26E207D61F94497895EF589F2E6CF26","019ceda6-b4d6-720c-904f-7d068608f305","019ceda4-7502-7cd5-b642-b8a83a30c71c","","384","
                <div class=""stimulus-container"">
                    <img src=""images/causal_sequence/dog_causal/dog_causal_4.png"" class=""exp-image"">
                    <div class=""question-area"">
                        <p style=""font-size: 20px; font-weight: bold; margin: 0;"">Is there a person in this image?</p>
                    </div>
                </div>","0","main_experiment_trial","4","dog_causal","causal_sequence","","","",""
"","","","","","html-keyboard-response","109","335366","0.0-109.0","C26E207D61F94497895EF589F2E6CF26","019ceda6-b4d6-720c-904f-7d068608f305","019ceda4-7502-7cd5-b642-b8a83a30c71c","","null","
                <div class=""stimulus-container"">
                    <img src=""images/causal_sequence/dog_causal/dog_causal_5.png"" class=""exp-image"">
                    <div class=""question-area""></div> 
                </div>","null","","","","","","","",""
"","","","","","html-button-response","110","336032","0.0-110.0","C26E207D61F94497895EF589F2E6CF26","019ceda6-b4d6-720c-904f-7d068608f305","019ceda4-7502-7cd5-b642-b8a83a30c71c","","666","
                <div class=""stimulus-container"">
                    <img src=""images/causal_sequence/dog_causal/dog_causal_5.png"" class=""exp-image"">
                    <div class=""question-area"">
                        <p style=""font-size: 20px; font-weight: bold; margin: 0;"">Is there a person in this image?</p>
                    </div>
                </div>","0","main_experiment_trial","5","dog_causal","causal_sequence","","","",""
"","","","","","html-keyboard-response","111","341044","0.0-111.0","C26E207D61F94497895EF589F2E6CF26","019ceda6-b4d6-720c-904f-7d068608f305","019ceda4-7502-7cd5-b642-b8a83a30c71c","","null","
                <div class=""stimulus-container"">
                    <img src=""images/causal_sequence/dog_causal/dog_causal_6.png"" class=""exp-image"">
                    <div class=""question-area""></div> 
                </div>","null","","","","","","","",""
"","","","","","html-button-response","112","341761","0.0-112.0","C26E207D61F94497895EF589F2E6CF26","019ceda6-b4d6-720c-904f-7d068608f305","019ceda4-7502-7cd5-b642-b8a83a30c71c","","717","
                <div class=""stimulus-container"">
                    <img src=""images/causal_sequence/dog_causal/dog_causal_6.png"" class=""exp-image"">
                    <div class=""question-area"">
                        <p style=""font-size: 20px; font-weight: bold; margin: 0;"">Is there a person in this image?</p>
                    </div>
                </div>","0","main_experiment_trial","6","dog_causal","causal_sequence","","","",""
"","","","","","html-keyboard-response","113","346763","0.0-113.0","C26E207D61F94497895EF589F2E6CF26","019ceda6-b4d6-720c-904f-7d068608f305","019ceda4-7502-7cd5-b642-b8a83a30c71c","","null","
                <div class=""stimulus-container"">
                    <img src=""images/causal_sequence/dog_causal/dog_causal_7.png"" class=""exp-image"">
                    <div class=""question-area""></div> 
                </div>","null","","","","","","","",""
"","","","","","html-button-response","114","347146","0.0-114.0","C26E207D61F94497895EF589F2E6CF26","019ceda6-b4d6-720c-904f-7d068608f305","019ceda4-7502-7cd5-b642-b8a83a30c71c","","382","
                <div class=""stimulus-container"">
                    <img src=""images/causal_sequence/dog_causal/dog_causal_7.png"" class=""exp-image"">
                    <div class=""question-area"">
                        <p style=""font-size: 20px; font-weight: bold; margin: 0;"">Is there a person in this image?</p>
                    </div>
                </div>","0","main_experiment_trial","7","dog_causal","causal_sequence","","","",""
"","","","","","html-keyboard-response","115","352155","0.0-115.0","C26E207D61F94497895EF589F2E6CF26","019ceda6-b4d6-720c-904f-7d068608f305","019ceda4-7502-7cd5-b642-b8a83a30c71c","","null","
                <div class=""stimulus-container"">
                    <img src=""images/causal_sequence/dog_causal/dog_causal_8.png"" class=""exp-image"">
                    <div class=""question-area""></div> 
                </div>","null","","","","","","","",""
"","","","","","html-button-response","116","352515","0.0-116.0","C26E207D61F94497895EF589F2E6CF26","019ceda6-b4d6-720c-904f-7d068608f305","019ceda4-7502-7cd5-b642-b8a83a30c71c","","359","
                <div class=""stimulus-container"">
                    <img src=""images/causal_sequence/dog_causal/dog_causal_8.png"" class=""exp-image"">
                    <div class=""question-area"">
                        <p style=""font-size: 20px; font-weight: bold; margin: 0;"">Is there a person in this image?</p>
                    </div>
                </div>","0","main_experiment_trial","8","dog_causal","causal_sequence","","","",""
"","","","","","html-keyboard-response","117","357524","0.0-117.0","C26E207D61F94497895EF589F2E6CF26","019ceda6-b4d6-720c-904f-7d068608f305","019ceda4-7502-7cd5-b642-b8a83a30c71c","","null","
                <div class=""stimulus-container"">
                    <img src=""images/causal_sequence/dog_causal/dog_causal_9.png"" class=""exp-image"">
                    <div class=""question-area""></div> 
                </div>","null","","","","","","","",""
"","","","","","html-button-response","118","358028","0.0-118.0","C26E207D61F94497895EF589F2E6CF26","019ceda6-b4d6-720c-904f-7d068608f305","019ceda4-7502-7cd5-b642-b8a83a30c71c","","503","
                <div class=""stimulus-container"">
                    <img src=""images/causal_sequence/dog_causal/dog_causal_9.png"" class=""exp-image"">
                    <div class=""question-area"">
                        <p style=""font-size: 20px; font-weight: bold; margin: 0;"">Is there a person in this image?</p>
                    </div>
                </div>","0","main_experiment_trial","9","dog_causal","causal_sequence","","","",""
"","","","","","html-keyboard-response","119","363042","0.0-119.0","C26E207D61F94497895EF589F2E6CF26","019ceda6-b4d6-720c-904f-7d068608f305","019ceda4-7502-7cd5-b642-b8a83a30c71c","","null","
                <div class=""stimulus-container"">
                    <img src=""images/causal_sequence/dog_causal/dog_causal_ten.png"" class=""exp-image"">
                    <div class=""question-area""></div> 
                </div>","null","","","","","","","",""
"","","","","","html-button-response","120","363380","0.0-120.0","C26E207D61F94497895EF589F2E6CF26","019ceda6-b4d6-720c-904f-7d068608f305","019ceda4-7502-7cd5-b642-b8a83a30c71c","","338","
                <div class=""stimulus-container"">
                    <img src=""images/causal_sequence/dog_causal/dog_causal_ten.png"" class=""exp-image"">
                    <div class=""question-area"">
                        <p style=""font-size: 20px; font-weight: bold; margin: 0;"">Is there a person in this image?</p>
                    </div>
                </div>","0","main_experiment_trial","ten","dog_causal","causal_sequence","","","",""
"","","","","","html-keyboard-response","121","364393","0.0-121.0","C26E207D61F94497895EF589F2E6CF26","019ceda6-b4d6-720c-904f-7d068608f305","019ceda4-7502-7cd5-b642-b8a83a30c71c","","null","<div style=""background-color: white; width: 100vw; height: 100vh;""></div>","null","","","","","","","",""
"","","","","","html-keyboard-response","122","369394","0.0-122.0","C26E207D61F94497895EF589F2E6CF26","019ceda6-b4d6-720c-904f-7d068608f305","019ceda4-7502-7cd5-b642-b8a83a30c71c","","null","
                <div class=""stimulus-container"">
                    <img src=""images/schematic_sequence/flight_scheme/flight_scheme_1.png"" class=""exp-image"">
                    <div class=""question-area""></div> 
                </div>","null","","","","","","","",""
"","","","","","html-button-response","123","369870","0.0-123.0","C26E207D61F94497895EF589F2E6CF26","019ceda6-b4d6-720c-904f-7d068608f305","019ceda4-7502-7cd5-b642-b8a83a30c71c","","475","
                <div class=""stimulus-container"">
                    <img src=""images/schematic_sequence/flight_scheme/flight_scheme_1.png"" class=""exp-image"">
                    <div class=""question-area"">
                        <p style=""font-size: 20px; font-weight: bold; margin: 0;"">Is there a person in this image?</p>
                    </div>
                </div>","0","main_experiment_trial","1","flight_scheme","schematic_sequence","","","",""
"","","","","","html-keyboard-response","124","374879","0.0-124.0","C26E207D61F94497895EF589F2E6CF26","019ceda6-b4d6-720c-904f-7d068608f305","019ceda4-7502-7cd5-b642-b8a83a30c71c","","null","
                <div class=""stimulus-container"">
                    <img src=""images/schematic_sequence/flight_scheme/flight_scheme_2.png"" class=""exp-image"">
                    <div class=""question-area""></div> 
                </div>","null","","","","","","","",""
"","","","","","html-button-response","125","375638","0.0-125.0","C26E207D61F94497895EF589F2E6CF26","019ceda6-b4d6-720c-904f-7d068608f305","019ceda4-7502-7cd5-b642-b8a83a30c71c","","759","
                <div class=""stimulus-container"">
                    <img src=""images/schematic_sequence/flight_scheme/flight_scheme_2.png"" class=""exp-image"">
                    <div class=""question-area"">
                        <p style=""font-size: 20px; font-weight: bold; margin: 0;"">Is there a person in this image?</p>
                    </div>
                </div>","1","main_experiment_trial","2","flight_scheme","schematic_sequence","","","",""
"","","","","","html-keyboard-response","126","380651","0.0-126.0","C26E207D61F94497895EF589F2E6CF26","019ceda6-b4d6-720c-904f-7d068608f305","019ceda4-7502-7cd5-b642-b8a83a30c71c","","null","
                <div class=""stimulus-container"">
                    <img src=""images/schematic_sequence/flight_scheme/flight_scheme_3.png"" class=""exp-image"">
                    <div class=""question-area""></div> 
                </div>","null","","","","","","","",""
"","","","","","html-button-response","127","381095","0.0-127.0","C26E207D61F94497895EF589F2E6CF26","019ceda6-b4d6-720c-904f-7d068608f305","019ceda4-7502-7cd5-b642-b8a83a30c71c","","443","
                <div class=""stimulus-container"">
                    <img src=""images/schematic_sequence/flight_scheme/flight_scheme_3.png"" class=""exp-image"">
                    <div class=""question-area"">
                        <p style=""font-size: 20px; font-weight: bold; margin: 0;"">Is there a person in this image?</p>
                    </div>
                </div>","0","main_experiment_trial","3","flight_scheme","schematic_sequence","","","",""
"","","","","","html-keyboard-response","128","386097","0.0-128.0","C26E207D61F94497895EF589F2E6CF26","019ceda6-b4d6-720c-904f-7d068608f305","019ceda4-7502-7cd5-b642-b8a83a30c71c","","null","
                <div class=""stimulus-container"">
                    <img src=""images/schematic_sequence/flight_scheme/flight_scheme_4.png"" class=""exp-image"">
                    <div class=""question-area""></div> 
                </div>","null","","","","","","","",""
"","","","","","html-button-response","129","389103","0.0-129.0","C26E207D61F94497895EF589F2E6CF26","019ceda6-b4d6-720c-904f-7d068608f305","019ceda4-7502-7cd5-b642-b8a83a30c71c","","null","
                <div class=""stimulus-container"">
                    <img src=""images/schematic_sequence/flight_scheme/flight_scheme_4.png"" class=""exp-image"">
                    <div class=""question-area"">
                        <p style=""font-size: 20px; font-weight: bold; margin: 0;"">Is there a person in this image?</p>
                    </div>
                </div>","null","main_experiment_trial","4","flight_scheme","schematic_sequence","","","",""
"","","","","","html-keyboard-response","130","394113","0.0-130.0","C26E207D61F94497895EF589F2E6CF26","019ceda6-b4d6-720c-904f-7d068608f305","019ceda4-7502-7cd5-b642-b8a83a30c71c","","null","
                <div class=""stimulus-container"">
                    <img src=""images/schematic_sequence/flight_scheme/flight_scheme_5.png"" class=""exp-image"">
                    <div class=""question-area""></div> 
                </div>","null","","","","","","","",""
"","","","","","html-button-response","131","397128","0.0-131.0","C26E207D61F94497895EF589F2E6CF26","019ceda6-b4d6-720c-904f-7d068608f305","019ceda4-7502-7cd5-b642-b8a83a30c71c","","null","
                <div class=""stimulus-container"">
                    <img src=""images/schematic_sequence/flight_scheme/flight_scheme_5.png"" class=""exp-image"">
                    <div class=""question-area"">
                        <p style=""font-size: 20px; font-weight: bold; margin: 0;"">Is there a person in this image?</p>
                    </div>
                </div>","null","main_experiment_trial","5","flight_scheme","schematic_sequence","","","",""
"","","","","","html-keyboard-response","132","402128","0.0-132.0","C26E207D61F94497895EF589F2E6CF26","019ceda6-b4d6-720c-904f-7d068608f305","019ceda4-7502-7cd5-b642-b8a83a30c71c","","null","
                <div class=""stimulus-container"">
                    <img src=""images/schematic_sequence/flight_scheme/flight_scheme_6.png"" class=""exp-image"">
                    <div class=""question-area""></div> 
                </div>","null","","","","","","","",""
"","","","","","html-button-response","133","404178","0.0-133.0","C26E207D61F94497895EF589F2E6CF26","019ceda6-b4d6-720c-904f-7d068608f305","019ceda4-7502-7cd5-b642-b8a83a30c71c","","2049","
                <div class=""stimulus-container"">
                    <img src=""images/schematic_sequence/flight_scheme/flight_scheme_6.png"" class=""exp-image"">
                    <div class=""question-area"">
                        <p style=""font-size: 20px; font-weight: bold; margin: 0;"">Is there a person in this image?</p>
                    </div>
                </div>","1","main_experiment_trial","6","flight_scheme","schematic_sequence","","","",""
"","","","","","html-keyboard-response","134","409179","0.0-134.0","C26E207D61F94497895EF589F2E6CF26","019ceda6-b4d6-720c-904f-7d068608f305","019ceda4-7502-7cd5-b642-b8a83a30c71c","","null","
                <div class=""stimulus-container"">
                    <img src=""images/schematic_sequence/flight_scheme/flight_scheme_7.png"" class=""exp-image"">
                    <div class=""question-area""></div> 
                </div>","null","","","","","","","",""
"","","","","","html-button-response","135","410138","0.0-135.0","C26E207D61F94497895EF589F2E6CF26","019ceda6-b4d6-720c-904f-7d068608f305","019ceda4-7502-7cd5-b642-b8a83a30c71c","","959","
                <div class=""stimulus-container"">
                    <img src=""images/schematic_sequence/flight_scheme/flight_scheme_7.png"" class=""exp-image"">
                    <div class=""question-area"">
                        <p style=""font-size: 20px; font-weight: bold; margin: 0;"">Is there a person in this image?</p>
                    </div>
                </div>","1","main_experiment_trial","7","flight_scheme","schematic_sequence","","","",""
"","","","","","html-keyboard-response","136","415147","0.0-136.0","C26E207D61F94497895EF589F2E6CF26","019ceda6-b4d6-720c-904f-7d068608f305","019ceda4-7502-7cd5-b642-b8a83a30c71c","","null","
                <div class=""stimulus-container"">
                    <img src=""images/schematic_sequence/flight_scheme/flight_scheme_8.png"" class=""exp-image"">
                    <div class=""question-area""></div> 
                </div>","null","","","","","","","",""
"","","","","","html-button-response","137","416252","0.0-137.0","C26E207D61F94497895EF589F2E6CF26","019ceda6-b4d6-720c-904f-7d068608f305","019ceda4-7502-7cd5-b642-b8a83a30c71c","","1105","
                <div class=""stimulus-container"">
                    <img src=""images/schematic_sequence/flight_scheme/flight_scheme_8.png"" class=""exp-image"">
                    <div class=""question-area"">
                        <p style=""font-size: 20px; font-weight: bold; margin: 0;"">Is there a person in this image?</p>
                    </div>
                </div>","1","main_experiment_trial","8","flight_scheme","schematic_sequence","","","",""
"","","","","","html-keyboard-response","138","421254","0.0-138.0","C26E207D61F94497895EF589F2E6CF26","019ceda6-b4d6-720c-904f-7d068608f305","019ceda4-7502-7cd5-b642-b8a83a30c71c","","null","
                <div class=""stimulus-container"">
                    <img src=""images/schematic_sequence/flight_scheme/flight_scheme_9.png"" class=""exp-image"">
                    <div class=""question-area""></div> 
                </div>","null","","","","","","","",""
"","","","","","html-button-response","139","421837","0.0-139.0","C26E207D61F94497895EF589F2E6CF26","019ceda6-b4d6-720c-904f-7d068608f305","019ceda4-7502-7cd5-b642-b8a83a30c71c","","582","
                <div class=""stimulus-container"">
                    <img src=""images/schematic_sequence/flight_scheme/flight_scheme_9.png"" class=""exp-image"">
                    <div class=""question-area"">
                        <p style=""font-size: 20px; font-weight: bold; margin: 0;"">Is there a person in this image?</p>
                    </div>
                </div>","0","main_experiment_trial","9","flight_scheme","schematic_sequence","","","",""
"","","","","","html-keyboard-response","140","426847","0.0-140.0","C26E207D61F94497895EF589F2E6CF26","019ceda6-b4d6-720c-904f-7d068608f305","019ceda4-7502-7cd5-b642-b8a83a30c71c","","null","
                <div class=""stimulus-container"">
                    <img src=""images/schematic_sequence/flight_scheme/flight_scheme_ten.png"" class=""exp-image"">
                    <div class=""question-area""></div> 
                </div>","null","","","","","","","",""
"","","","","","html-button-response","141","427998","0.0-141.0","C26E207D61F94497895EF589F2E6CF26","019ceda6-b4d6-720c-904f-7d068608f305","019ceda4-7502-7cd5-b642-b8a83a30c71c","","1150","
                <div class=""stimulus-container"">
                    <img src=""images/schematic_sequence/flight_scheme/flight_scheme_ten.png"" class=""exp-image"">
                    <div class=""question-area"">
                        <p style=""font-size: 20px; font-weight: bold; margin: 0;"">Is there a person in this image?</p>
                    </div>
                </div>","0","main_experiment_trial","ten","flight_scheme","schematic_sequence","","","",""
"","","","","","html-keyboard-response","142","429004","0.0-142.0","C26E207D61F94497895EF589F2E6CF26","019ceda6-b4d6-720c-904f-7d068608f305","019ceda4-7502-7cd5-b642-b8a83a30c71c","","null","<div style=""background-color: white; width: 100vw; height: 100vh;""></div>","null","","","","","","","",""
"","","","","","html-keyboard-response","143","434009","0.0-143.0","C26E207D61F94497895EF589F2E6CF26","019ceda6-b4d6-720c-904f-7d068608f305","019ceda4-7502-7cd5-b642-b8a83a30c71c","","null","
                <div class=""stimulus-container"">
                    <img src=""images/schematic_sequence/interview_scheme/interview_scheme_1.png"" class=""exp-image"">
                    <div class=""question-area""></div> 
                </div>","null","","","","","","","",""
"","","","","","html-button-response","144","434887","0.0-144.0","C26E207D61F94497895EF589F2E6CF26","019ceda6-b4d6-720c-904f-7d068608f305","019ceda4-7502-7cd5-b642-b8a83a30c71c","","877","
                <div class=""stimulus-container"">
                    <img src=""images/schematic_sequence/interview_scheme/interview_scheme_1.png"" class=""exp-image"">
                    <div class=""question-area"">
                        <p style=""font-size: 20px; font-weight: bold; margin: 0;"">Is there a person in this image?</p>
                    </div>
                </div>","1","main_experiment_trial","1","interview_scheme","schematic_sequence","","","",""
"","","","","","html-keyboard-response","145","439893","0.0-145.0","C26E207D61F94497895EF589F2E6CF26","019ceda6-b4d6-720c-904f-7d068608f305","019ceda4-7502-7cd5-b642-b8a83a30c71c","","null","
                <div class=""stimulus-container"">
                    <img src=""images/schematic_sequence/interview_scheme/interview_scheme_2.png"" class=""exp-image"">
                    <div class=""question-area""></div> 
                </div>","null","","","","","","","",""
"","","","","","html-button-response","146","440495","0.0-146.0","C26E207D61F94497895EF589F2E6CF26","019ceda6-b4d6-720c-904f-7d068608f305","019ceda4-7502-7cd5-b642-b8a83a30c71c","","603","
                <div class=""stimulus-container"">
                    <img src=""images/schematic_sequence/interview_scheme/interview_scheme_2.png"" class=""exp-image"">
                    <div class=""question-area"">
                        <p style=""font-size: 20px; font-weight: bold; margin: 0;"">Is there a person in this image?</p>
                    </div>
                </div>","0","main_experiment_trial","2","interview_scheme","schematic_sequence","","","",""
"","","","","","html-keyboard-response","147","445497","0.0-147.0","C26E207D61F94497895EF589F2E6CF26","019ceda6-b4d6-720c-904f-7d068608f305","019ceda4-7502-7cd5-b642-b8a83a30c71c","","null","
                <div class=""stimulus-container"">
                    <img src=""images/schematic_sequence/interview_scheme/interview_scheme_3.png"" class=""exp-image"">
                    <div class=""question-area""></div> 
                </div>","null","","","","","","","",""
"","","","","","html-button-response","148","446280","0.0-148.0","C26E207D61F94497895EF589F2E6CF26","019ceda6-b4d6-720c-904f-7d068608f305","019ceda4-7502-7cd5-b642-b8a83a30c71c","","783","
                <div class=""stimulus-container"">
                    <img src=""images/schematic_sequence/interview_scheme/interview_scheme_3.png"" class=""exp-image"">
                    <div class=""question-area"">
                        <p style=""font-size: 20px; font-weight: bold; margin: 0;"">Is there a person in this image?</p>
                    </div>
                </div>","1","main_experiment_trial","3","interview_scheme","schematic_sequence","","","",""
"","","","","","html-keyboard-response","149","451283","0.0-149.0","C26E207D61F94497895EF589F2E6CF26","019ceda6-b4d6-720c-904f-7d068608f305","019ceda4-7502-7cd5-b642-b8a83a30c71c","","null","
                <div class=""stimulus-container"">
                    <img src=""images/schematic_sequence/interview_scheme/interview_scheme_4.png"" class=""exp-image"">
                    <div class=""question-area""></div> 
                </div>","null","","","","","","","",""
"","","","","","html-button-response","150","451937","0.0-150.0","C26E207D61F94497895EF589F2E6CF26","019ceda6-b4d6-720c-904f-7d068608f305","019ceda4-7502-7cd5-b642-b8a83a30c71c","","653","
                <div class=""stimulus-container"">
                    <img src=""images/schematic_sequence/interview_scheme/interview_scheme_4.png"" class=""exp-image"">
                    <div class=""question-area"">
                        <p style=""font-size: 20px; font-weight: bold; margin: 0;"">Is there a person in this image?</p>
                    </div>
                </div>","1","main_experiment_trial","4","interview_scheme","schematic_sequence","","","",""
"","","","","","html-keyboard-response","151","456943","0.0-151.0","C26E207D61F94497895EF589F2E6CF26","019ceda6-b4d6-720c-904f-7d068608f305","019ceda4-7502-7cd5-b642-b8a83a30c71c","","null","
                <div class=""stimulus-container"">
                    <img src=""images/schematic_sequence/interview_scheme/interview_scheme_5.png"" class=""exp-image"">
                    <div class=""question-area""></div> 
                </div>","null","","","","","","","",""
"","","","","","html-button-response","152","457426","0.0-152.0","C26E207D61F94497895EF589F2E6CF26","019ceda6-b4d6-720c-904f-7d068608f305","019ceda4-7502-7cd5-b642-b8a83a30c71c","","482","
                <div class=""stimulus-container"">
                    <img src=""images/schematic_sequence/interview_scheme/interview_scheme_5.png"" class=""exp-image"">
                    <div class=""question-area"">
                        <p style=""font-size: 20px; font-weight: bold; margin: 0;"">Is there a person in this image?</p>
                    </div>
                </div>","0","main_experiment_trial","5","interview_scheme","schematic_sequence","","","",""
"","","","","","html-keyboard-response","153","462433","0.0-153.0","C26E207D61F94497895EF589F2E6CF26","019ceda6-b4d6-720c-904f-7d068608f305","019ceda4-7502-7cd5-b642-b8a83a30c71c","","null","
                <div class=""stimulus-container"">
                    <img src=""images/schematic_sequence/interview_scheme/interview_scheme_6.png"" class=""exp-image"">
                    <div class=""question-area""></div> 
                </div>","null","","","","","","","",""
"","","","","","html-button-response","154","462875","0.0-154.0","C26E207D61F94497895EF589F2E6CF26","019ceda6-b4d6-720c-904f-7d068608f305","019ceda4-7502-7cd5-b642-b8a83a30c71c","","441","
                <div class=""stimulus-container"">
                    <img src=""images/schematic_sequence/interview_scheme/interview_scheme_6.png"" class=""exp-image"">
                    <div class=""question-area"">
                        <p style=""font-size: 20px; font-weight: bold; margin: 0;"">Is there a person in this image?</p>
                    </div>
                </div>","0","main_experiment_trial","6","interview_scheme","schematic_sequence","","","",""
"","","","","","html-keyboard-response","155","467875","0.0-155.0","C26E207D61F94497895EF589F2E6CF26","019ceda6-b4d6-720c-904f-7d068608f305","019ceda4-7502-7cd5-b642-b8a83a30c71c","","null","
                <div class=""stimulus-container"">
                    <img src=""images/schematic_sequence/interview_scheme/interview_scheme_7.png"" class=""exp-image"">
                    <div class=""question-area""></div> 
                </div>","null","","","","","","","",""
"","","","","","html-button-response","156","468243","0.0-156.0","C26E207D61F94497895EF589F2E6CF26","019ceda6-b4d6-720c-904f-7d068608f305","019ceda4-7502-7cd5-b642-b8a83a30c71c","","368","
                <div class=""stimulus-container"">
                    <img src=""images/schematic_sequence/interview_scheme/interview_scheme_7.png"" class=""exp-image"">
                    <div class=""question-area"">
                        <p style=""font-size: 20px; font-weight: bold; margin: 0;"">Is there a person in this image?</p>
                    </div>
                </div>","0","main_experiment_trial","7","interview_scheme","schematic_sequence","","","",""
"","","","","","html-keyboard-response","157","473255","0.0-157.0","C26E207D61F94497895EF589F2E6CF26","019ceda6-b4d6-720c-904f-7d068608f305","019ceda4-7502-7cd5-b642-b8a83a30c71c","","null","
                <div class=""stimulus-container"">
                    <img src=""images/schematic_sequence/interview_scheme/interview_scheme_8.png"" class=""exp-image"">
                    <div class=""question-area""></div> 
                </div>","null","","","","","","","",""
"","","","","","html-button-response","158","473756","0.0-158.0","C26E207D61F94497895EF589F2E6CF26","019ceda6-b4d6-720c-904f-7d068608f305","019ceda4-7502-7cd5-b642-b8a83a30c71c","","500","
                <div class=""stimulus-container"">
                    <img src=""images/schematic_sequence/interview_scheme/interview_scheme_8.png"" class=""exp-image"">
                    <div class=""question-area"">
                        <p style=""font-size: 20px; font-weight: bold; margin: 0;"">Is there a person in this image?</p>
                    </div>
                </div>","0","main_experiment_trial","8","interview_scheme","schematic_sequence","","","",""
"","","","","","html-keyboard-response","159","478771","0.0-159.0","C26E207D61F94497895EF589F2E6CF26","019ceda6-b4d6-720c-904f-7d068608f305","019ceda4-7502-7cd5-b642-b8a83a30c71c","","null","
                <div class=""stimulus-container"">
                    <img src=""images/schematic_sequence/interview_scheme/interview_scheme_9.png"" class=""exp-image"">
                    <div class=""question-area""></div> 
                </div>","null","","","","","","","",""
"","","","","","html-button-response","160","479101","0.0-160.0","C26E207D61F94497895EF589F2E6CF26","019ceda6-b4d6-720c-904f-7d068608f305","019ceda4-7502-7cd5-b642-b8a83a30c71c","","330","
                <div class=""stimulus-container"">
                    <img src=""images/schematic_sequence/interview_scheme/interview_scheme_9.png"" class=""exp-image"">
                    <div class=""question-area"">
                        <p style=""font-size: 20px; font-weight: bold; margin: 0;"">Is there a person in this image?</p>
                    </div>
                </div>","0","main_experiment_trial","9","interview_scheme","schematic_sequence","","","",""
"","","","","","html-keyboard-response","161","484112","0.0-161.0","C26E207D61F94497895EF589F2E6CF26","019ceda6-b4d6-720c-904f-7d068608f305","019ceda4-7502-7cd5-b642-b8a83a30c71c","","null","
                <div class=""stimulus-container"">
                    <img src=""images/schematic_sequence/interview_scheme/interview_scheme_ten.png"" class=""exp-image"">
                    <div class=""question-area""></div> 
                </div>","null","","","","","","","",""
"","","","","","html-button-response","162","484454","0.0-162.0","C26E207D61F94497895EF589F2E6CF26","019ceda6-b4d6-720c-904f-7d068608f305","019ceda4-7502-7cd5-b642-b8a83a30c71c","","341","
                <div class=""stimulus-container"">
                    <img src=""images/schematic_sequence/interview_scheme/interview_scheme_ten.png"" class=""exp-image"">
                    <div class=""question-area"">
                        <p style=""font-size: 20px; font-weight: bold; margin: 0;"">Is there a person in this image?</p>
                    </div>
                </div>","0","main_experiment_trial","ten","interview_scheme","schematic_sequence","","","",""
"","","","","","html-keyboard-response","163","485459","0.0-163.0","C26E207D61F94497895EF589F2E6CF26","019ceda6-b4d6-720c-904f-7d068608f305","019ceda4-7502-7cd5-b642-b8a83a30c71c","","null","<div style=""background-color: white; width: 100vw; height: 100vh;""></div>","null","","","","","","","",""
"","","","","","html-keyboard-response","164","490461","0.0-164.0","C26E207D61F94497895EF589F2E6CF26","019ceda6-b4d6-720c-904f-7d068608f305","019ceda4-7502-7cd5-b642-b8a83a30c71c","","null","
                <div class=""stimulus-container"">
                    <img src=""images/causal_sequence/coin_causal/coin_causal_1.png"" class=""exp-image"">
                    <div class=""question-area""></div> 
                </div>","null","","","","","","","",""
"","","","","","html-button-response","165","490791","0.0-165.0","C26E207D61F94497895EF589F2E6CF26","019ceda6-b4d6-720c-904f-7d068608f305","019ceda4-7502-7cd5-b642-b8a83a30c71c","","329","
                <div class=""stimulus-container"">
                    <img src=""images/causal_sequence/coin_causal/coin_causal_1.png"" class=""exp-image"">
                    <div class=""question-area"">
                        <p style=""font-size: 20px; font-weight: bold; margin: 0;"">Is there a person in this image?</p>
                    </div>
                </div>","0","main_experiment_trial","1","coin_causal","causal_sequence","","","",""
"","","","","","html-keyboard-response","166","495800","0.0-166.0","C26E207D61F94497895EF589F2E6CF26","019ceda6-b4d6-720c-904f-7d068608f305","019ceda4-7502-7cd5-b642-b8a83a30c71c","","null","
                <div class=""stimulus-container"">
                    <img src=""images/causal_sequence/coin_causal/coin_causal_2.png"" class=""exp-image"">
                    <div class=""question-area""></div> 
                </div>","null","","","","","","","",""
"","","","","","html-button-response","167","496104","0.0-167.0","C26E207D61F94497895EF589F2E6CF26","019ceda6-b4d6-720c-904f-7d068608f305","019ceda4-7502-7cd5-b642-b8a83a30c71c","","303","
                <div class=""stimulus-container"">
                    <img src=""images/causal_sequence/coin_causal/coin_causal_2.png"" class=""exp-image"">
                    <div class=""question-area"">
                        <p style=""font-size: 20px; font-weight: bold; margin: 0;"">Is there a person in this image?</p>
                    </div>
                </div>","0","main_experiment_trial","2","coin_causal","causal_sequence","","","",""
"","","","","","html-keyboard-response","168","501104","0.0-168.0","C26E207D61F94497895EF589F2E6CF26","019ceda6-b4d6-720c-904f-7d068608f305","019ceda4-7502-7cd5-b642-b8a83a30c71c","","null","
                <div class=""stimulus-container"">
                    <img src=""images/causal_sequence/coin_causal/coin_causal_3.png"" class=""exp-image"">
                    <div class=""question-area""></div> 
                </div>","null","","","","","","","",""
"","","","","","html-button-response","169","501520","0.0-169.0","C26E207D61F94497895EF589F2E6CF26","019ceda6-b4d6-720c-904f-7d068608f305","019ceda4-7502-7cd5-b642-b8a83a30c71c","","416","
                <div class=""stimulus-container"">
                    <img src=""images/causal_sequence/coin_causal/coin_causal_3.png"" class=""exp-image"">
                    <div class=""question-area"">
                        <p style=""font-size: 20px; font-weight: bold; margin: 0;"">Is there a person in this image?</p>
                    </div>
                </div>","0","main_experiment_trial","3","coin_causal","causal_sequence","","","",""
"","","","","","html-keyboard-response","170","506529","0.0-170.0","C26E207D61F94497895EF589F2E6CF26","019ceda6-b4d6-720c-904f-7d068608f305","019ceda4-7502-7cd5-b642-b8a83a30c71c","","null","
                <div class=""stimulus-container"">
                    <img src=""images/causal_sequence/coin_causal/coin_causal_4.png"" class=""exp-image"">
                    <div class=""question-area""></div> 
                </div>","null","","","","","","","",""
"","","","","","html-button-response","171","507049","0.0-171.0","C26E207D61F94497895EF589F2E6CF26","019ceda6-b4d6-720c-904f-7d068608f305","019ceda4-7502-7cd5-b642-b8a83a30c71c","","519","
                <div class=""stimulus-container"">
                    <img src=""images/causal_sequence/coin_causal/coin_causal_4.png"" class=""exp-image"">
                    <div class=""question-area"">
                        <p style=""font-size: 20px; font-weight: bold; margin: 0;"">Is there a person in this image?</p>
                    </div>
                </div>","0","main_experiment_trial","4","coin_causal","causal_sequence","","","",""
"","","","","","html-keyboard-response","172","512062","0.0-172.0","C26E207D61F94497895EF589F2E6CF26","019ceda6-b4d6-720c-904f-7d068608f305","019ceda4-7502-7cd5-b642-b8a83a30c71c","","null","
                <div class=""stimulus-container"">
                    <img src=""images/causal_sequence/coin_causal/coin_causal_5.png"" class=""exp-image"">
                    <div class=""question-area""></div> 
                </div>","null","","","","","","","",""
"","","","","","html-button-response","173","512418","0.0-173.0","C26E207D61F94497895EF589F2E6CF26","019ceda6-b4d6-720c-904f-7d068608f305","019ceda4-7502-7cd5-b642-b8a83a30c71c","","355","
                <div class=""stimulus-container"">
                    <img src=""images/causal_sequence/coin_causal/coin_causal_5.png"" class=""exp-image"">
                    <div class=""question-area"">
                        <p style=""font-size: 20px; font-weight: bold; margin: 0;"">Is there a person in this image?</p>
                    </div>
                </div>","0","main_experiment_trial","5","coin_causal","causal_sequence","","","",""
"","","","","","html-keyboard-response","174","517432","0.0-174.0","C26E207D61F94497895EF589F2E6CF26","019ceda6-b4d6-720c-904f-7d068608f305","019ceda4-7502-7cd5-b642-b8a83a30c71c","","null","
                <div class=""stimulus-container"">
                    <img src=""images/causal_sequence/coin_causal/coin_causal_6.png"" class=""exp-image"">
                    <div class=""question-area""></div> 
                </div>","null","","","","","","","",""
"","","","","","html-button-response","175","517947","0.0-175.0","C26E207D61F94497895EF589F2E6CF26","019ceda6-b4d6-720c-904f-7d068608f305","019ceda4-7502-7cd5-b642-b8a83a30c71c","","515","
                <div class=""stimulus-container"">
                    <img src=""images/causal_sequence/coin_causal/coin_causal_6.png"" class=""exp-image"">
                    <div class=""question-area"">
                        <p style=""font-size: 20px; font-weight: bold; margin: 0;"">Is there a person in this image?</p>
                    </div>
                </div>","0","main_experiment_trial","6","coin_causal","causal_sequence","","","",""
"","","","","","html-keyboard-response","176","522947","0.0-176.0","C26E207D61F94497895EF589F2E6CF26","019ceda6-b4d6-720c-904f-7d068608f305","019ceda4-7502-7cd5-b642-b8a83a30c71c","","null","
                <div class=""stimulus-container"">
                    <img src=""images/causal_sequence/coin_causal/coin_causal_7.png"" class=""exp-image"">
                    <div class=""question-area""></div> 
                </div>","null","","","","","","","",""
"","","","","","html-button-response","177","523387","0.0-177.0","C26E207D61F94497895EF589F2E6CF26","019ceda6-b4d6-720c-904f-7d068608f305","019ceda4-7502-7cd5-b642-b8a83a30c71c","","440","
                <div class=""stimulus-container"">
                    <img src=""images/causal_sequence/coin_causal/coin_causal_7.png"" class=""exp-image"">
                    <div class=""question-area"">
                        <p style=""font-size: 20px; font-weight: bold; margin: 0;"">Is there a person in this image?</p>
                    </div>
                </div>","1","main_experiment_trial","7","coin_causal","causal_sequence","","","",""
"","","","","","html-keyboard-response","178","528395","0.0-178.0","C26E207D61F94497895EF589F2E6CF26","019ceda6-b4d6-720c-904f-7d068608f305","019ceda4-7502-7cd5-b642-b8a83a30c71c","","null","
                <div class=""stimulus-container"">
                    <img src=""images/causal_sequence/coin_causal/coin_causal_8.png"" class=""exp-image"">
                    <div class=""question-area""></div> 
                </div>","null","","","","","","","",""
"","","","","","html-button-response","179","528820","0.0-179.0","C26E207D61F94497895EF589F2E6CF26","019ceda6-b4d6-720c-904f-7d068608f305","019ceda4-7502-7cd5-b642-b8a83a30c71c","","425","
                <div class=""stimulus-container"">
                    <img src=""images/causal_sequence/coin_causal/coin_causal_8.png"" class=""exp-image"">
                    <div class=""question-area"">
                        <p style=""font-size: 20px; font-weight: bold; margin: 0;"">Is there a person in this image?</p>
                    </div>
                </div>","0","main_experiment_trial","8","coin_causal","causal_sequence","","","",""
"","","","","","html-keyboard-response","180","533829","0.0-180.0","C26E207D61F94497895EF589F2E6CF26","019ceda6-b4d6-720c-904f-7d068608f305","019ceda4-7502-7cd5-b642-b8a83a30c71c","","null","
                <div class=""stimulus-container"">
                    <img src=""images/causal_sequence/coin_causal/coin_causal_9.png"" class=""exp-image"">
                    <div class=""question-area""></div> 
                </div>","null","","","","","","","",""
"","","","","","html-button-response","181","534453","0.0-181.0","C26E207D61F94497895EF589F2E6CF26","019ceda6-b4d6-720c-904f-7d068608f305","019ceda4-7502-7cd5-b642-b8a83a30c71c","","624","
                <div class=""stimulus-container"">
                    <img src=""images/causal_sequence/coin_causal/coin_causal_9.png"" class=""exp-image"">
                    <div class=""question-area"">
                        <p style=""font-size: 20px; font-weight: bold; margin: 0;"">Is there a person in this image?</p>
                    </div>
                </div>","0","main_experiment_trial","9","coin_causal","causal_sequence","","","",""
"","","","","","html-keyboard-response","182","539459","0.0-182.0","C26E207D61F94497895EF589F2E6CF26","019ceda6-b4d6-720c-904f-7d068608f305","019ceda4-7502-7cd5-b642-b8a83a30c71c","","null","
                <div class=""stimulus-container"">
                    <img src=""images/causal_sequence/coin_causal/coin_causal_ten.png"" class=""exp-image"">
                    <div class=""question-area""></div> 
                </div>","null","","","","","","","",""
"","","","","","html-button-response","183","539870","0.0-183.0","C26E207D61F94497895EF589F2E6CF26","019ceda6-b4d6-720c-904f-7d068608f305","019ceda4-7502-7cd5-b642-b8a83a30c71c","","411","
                <div class=""stimulus-container"">
                    <img src=""images/causal_sequence/coin_causal/coin_causal_ten.png"" class=""exp-image"">
                    <div class=""question-area"">
                        <p style=""font-size: 20px; font-weight: bold; margin: 0;"">Is there a person in this image?</p>
                    </div>
                </div>","0","main_experiment_trial","ten","coin_causal","causal_sequence","","","",""
"","","","","","html-keyboard-response","184","540877","0.0-184.0","C26E207D61F94497895EF589F2E6CF26","019ceda6-b4d6-720c-904f-7d068608f305","019ceda4-7502-7cd5-b642-b8a83a30c71c","","null","<div style=""background-color: white; width: 100vw; height: 100vh;""></div>","null","","","","","","","",""
"","","","","","html-keyboard-response","185","545881","0.0-185.0","C26E207D61F94497895EF589F2E6CF26","019ceda6-b4d6-720c-904f-7d068608f305","019ceda4-7502-7cd5-b642-b8a83a30c71c","","null","
                <div class=""stimulus-container"">
                    <img src=""images/causal_sequence/the_performance_causal/the_performance_causal_1.png"" class=""exp-image"">
                    <div class=""question-area""></div> 
                </div>","null","","","","","","","",""
"","","","","","html-button-response","186","546415","0.0-186.0","C26E207D61F94497895EF589F2E6CF26","019ceda6-b4d6-720c-904f-7d068608f305","019ceda4-7502-7cd5-b642-b8a83a30c71c","","534","
                <div class=""stimulus-container"">
