"success","timeout","failed_images","failed_audio","failed_video","trial_type","trial_index","time_elapsed","internal_node_id","subject_id","study_id","session_id","view_history","rt","stimulus","response","task","image_index","folder","sequence_type","presentation_order","valuable_image_index","reward_type","distance_from_x","target_X","chosen_image_index","is_x_plus_dist","correct_choice"
"false","false","[]","[]","[]","preload","0","274814","0.0-0.0","8C7EAE2BB6894644BB2220D74032427A","019cfc48-3944-7281-97e2-5e6ef6920139","019cfc28-2143-7934-89cc-ce6402563331","","","","","","","","","","","","","","","",""
"","","","","","instructions","1","284758","0.0-1.0","8C7EAE2BB6894644BB2220D74032427A","019cfc48-3944-7281-97e2-5e6ef6920139","019cfc28-2143-7934-89cc-ce6402563331","[{""page_index"":0,""viewing_time"":9939}]","9941","","","","","","","","","","","","","",""
"","","","","","instructions","2","290596","0.0-2.0","8C7EAE2BB6894644BB2220D74032427A","019cfc48-3944-7281-97e2-5e6ef6920139","019cfc28-2143-7934-89cc-ce6402563331","[{""page_index"":0,""viewing_time"":5837}]","5838","","","","","","","","","","","","","",""
"true","","","","","fullscreen","3","292683","0.0-3.0","8C7EAE2BB6894644BB2220D74032427A","019cfc48-3944-7281-97e2-5e6ef6920139","019cfc28-2143-7934-89cc-ce6402563331","","1071","","","","","","","","","","","","","",""
"","","","","","instructions","4","303876","0.0-4.0","8C7EAE2BB6894644BB2220D74032427A","019cfc48-3944-7281-97e2-5e6ef6920139","019cfc28-2143-7934-89cc-ce6402563331","[{""page_index"":0,""viewing_time"":11191}]","11192","","","","","","","","","","","","","",""
"","","","","","instructions","5","324052","0.0-5.0","8C7EAE2BB6894644BB2220D74032427A","019cfc48-3944-7281-97e2-5e6ef6920139","019cfc28-2143-7934-89cc-ce6402563331","[{""page_index"":0,""viewing_time"":20175}]","20176","","","","","","","","","","","","","",""
"","","","","","html-keyboard-response","6","328056","0.0-6.0","8C7EAE2BB6894644BB2220D74032427A","019cfc48-3944-7281-97e2-5e6ef6920139","019cfc28-2143-7934-89cc-ce6402563331","","null","
                <div class=""stimulus-container"">
                    <img src=""images/instructions/movie_1.png"" class=""exp-image"">
                    <div class=""question-area""></div> 
                </div>","null","","","","","","","","","","","",""
"","","","","","html-button-response","7","331060","0.0-7.0","8C7EAE2BB6894644BB2220D74032427A","019cfc48-3944-7281-97e2-5e6ef6920139","019cfc28-2143-7934-89cc-ce6402563331","","null","
                <div class=""stimulus-container"">
                    <img src=""images/instructions/movie_1.png"" class=""exp-image"">
                    <div class=""question-area"">
                        <p style=""font-size: 20px; font-weight: bold; margin: 0;"">Was there a person in this image?</p>
                    </div>
                </div>","null","example_question","1","","","","","","","","","",""
"","","","","","html-keyboard-response","8","335064","0.0-8.0","8C7EAE2BB6894644BB2220D74032427A","019cfc48-3944-7281-97e2-5e6ef6920139","019cfc28-2143-7934-89cc-ce6402563331","","null","
                <div class=""stimulus-container"">
                    <img src=""images/instructions/movie_2.png"" class=""exp-image"">
                    <div class=""question-area""></div> 
                </div>","null","","","","","","","","","","","",""
"","","","","","html-button-response","9","335900","0.0-9.0","8C7EAE2BB6894644BB2220D74032427A","019cfc48-3944-7281-97e2-5e6ef6920139","019cfc28-2143-7934-89cc-ce6402563331","","834","
                <div class=""stimulus-container"">
                    <img src=""images/instructions/movie_2.png"" class=""exp-image"">
                    <div class=""question-area"">
                        <p style=""font-size: 20px; font-weight: bold; margin: 0;"">Was there a person in this image?</p>
                    </div>
                </div>","0","example_question","2","","","","","","","","","",""
"","","","","","html-keyboard-response","10","339911","0.0-10.0","8C7EAE2BB6894644BB2220D74032427A","019cfc48-3944-7281-97e2-5e6ef6920139","019cfc28-2143-7934-89cc-ce6402563331","","null","
                <div class=""stimulus-container"">
                    <img src=""images/instructions/movie_3.png"" class=""exp-image"">
                    <div class=""question-area""></div> 
                </div>","null","","","","","","","","","","","",""
"","","","","","html-button-response","11","340667","0.0-11.0","8C7EAE2BB6894644BB2220D74032427A","019cfc48-3944-7281-97e2-5e6ef6920139","019cfc28-2143-7934-89cc-ce6402563331","","754","
                <div class=""stimulus-container"">
                    <img src=""images/instructions/movie_3.png"" class=""exp-image"">
                    <div class=""question-area"">
                        <p style=""font-size: 20px; font-weight: bold; margin: 0;"">Was there a person in this image?</p>
                    </div>
                </div>","0","example_question","3","","","","","","","","","",""
"","","","","","html-keyboard-response","12","344670","0.0-12.0","8C7EAE2BB6894644BB2220D74032427A","019cfc48-3944-7281-97e2-5e6ef6920139","019cfc28-2143-7934-89cc-ce6402563331","","null","
                <div class=""stimulus-container"">
                    <img src=""images/instructions/movie_4.png"" class=""exp-image"">
                    <div class=""question-area""></div> 
                </div>","null","","","","","","","","","","","",""
"","","","","","html-button-response","13","346435","0.0-13.0","8C7EAE2BB6894644BB2220D74032427A","019cfc48-3944-7281-97e2-5e6ef6920139","019cfc28-2143-7934-89cc-ce6402563331","","1764","
                <div class=""stimulus-container"">
                    <img src=""images/instructions/movie_4.png"" class=""exp-image"">
                    <div class=""question-area"">
                        <p style=""font-size: 20px; font-weight: bold; margin: 0;"">Was there a person in this image?</p>
                    </div>
                </div>","0","example_question","4","","","","","","","","","",""
"","","","","","instructions","14","348323","0.0-14.0","8C7EAE2BB6894644BB2220D74032427A","019cfc48-3944-7281-97e2-5e6ef6920139","019cfc28-2143-7934-89cc-ce6402563331","[{""page_index"":0,""viewing_time"":1888}]","1888","","","","","","","","","","","","","",""
"","","","","","instructions","15","353468","0.0-15.0","8C7EAE2BB6894644BB2220D74032427A","019cfc48-3944-7281-97e2-5e6ef6920139","019cfc28-2143-7934-89cc-ce6402563331","[{""page_index"":0,""viewing_time"":5143}]","5144","","","","","","","","","","","","","",""
"","","","","","html-keyboard-response","16","358473","0.0-16.0","8C7EAE2BB6894644BB2220D74032427A","019cfc48-3944-7281-97e2-5e6ef6920139","019cfc28-2143-7934-89cc-ce6402563331","","null","<div style=""background-color: white; width: 100vw; height: 100vh;""></div>","null","","","","","","","","","","","",""
"","","","","","html-keyboard-response","17","363480","0.0-17.0","8C7EAE2BB6894644BB2220D74032427A","019cfc48-3944-7281-97e2-5e6ef6920139","019cfc28-2143-7934-89cc-ce6402563331","","null","
                <div class=""stimulus-container"">
                    <img src=""images/schematic_sequence/hotel_scheme/hotel_scheme_1.png"" class=""exp-image"">
                    <div class=""question-area""></div> 
                </div>","null","","","","","","","","","","","",""
"","","","","","html-button-response","18","364435","0.0-18.0","8C7EAE2BB6894644BB2220D74032427A","019cfc48-3944-7281-97e2-5e6ef6920139","019cfc28-2143-7934-89cc-ce6402563331","","953","
                <div class=""stimulus-container"">
                    <img src=""images/schematic_sequence/hotel_scheme/hotel_scheme_1.png"" class=""exp-image"">
                    <div class=""question-area"">
                        <p style=""font-size: 20px; font-weight: bold; margin: 0;"">Is there a person in this image?</p>
                    </div>
                </div>","1","main_experiment_trial","1","hotel_scheme","schematic_sequence","chronological","","","","","","",""
"","","","","","html-keyboard-response","19","369448","0.0-19.0","8C7EAE2BB6894644BB2220D74032427A","019cfc48-3944-7281-97e2-5e6ef6920139","019cfc28-2143-7934-89cc-ce6402563331","","null","
                <div class=""stimulus-container"">
                    <img src=""images/schematic_sequence/hotel_scheme/hotel_scheme_2.png"" class=""exp-image"">
                    <div class=""question-area""></div> 
                </div>","null","","","","","","","","","","","",""
"","","","","","html-button-response","20","370019","0.0-20.0","8C7EAE2BB6894644BB2220D74032427A","019cfc48-3944-7281-97e2-5e6ef6920139","019cfc28-2143-7934-89cc-ce6402563331","","569","
                <div class=""stimulus-container"">
                    <img src=""images/schematic_sequence/hotel_scheme/hotel_scheme_2.png"" class=""exp-image"">
                    <div class=""question-area"">
                        <p style=""font-size: 20px; font-weight: bold; margin: 0;"">Is there a person in this image?</p>
                    </div>
                </div>","0","main_experiment_trial","2","hotel_scheme","schematic_sequence","chronological","","","","","","",""
"","","","","","html-keyboard-response","21","375021","0.0-21.0","8C7EAE2BB6894644BB2220D74032427A","019cfc48-3944-7281-97e2-5e6ef6920139","019cfc28-2143-7934-89cc-ce6402563331","","null","
                <div class=""stimulus-container"">
                    <img src=""images/schematic_sequence/hotel_scheme/hotel_scheme_3.png"" class=""exp-image"">
                    <div class=""question-area""></div> 
                </div>","null","","","","","","","","","","","",""
"","","","","","html-button-response","22","375499","0.0-22.0","8C7EAE2BB6894644BB2220D74032427A","019cfc48-3944-7281-97e2-5e6ef6920139","019cfc28-2143-7934-89cc-ce6402563331","","476","
                <div class=""stimulus-container"">
                    <img src=""images/schematic_sequence/hotel_scheme/hotel_scheme_3.png"" class=""exp-image"">
                    <div class=""question-area"">
                        <p style=""font-size: 20px; font-weight: bold; margin: 0;"">Is there a person in this image?</p>
                    </div>
                </div>","0","main_experiment_trial","3","hotel_scheme","schematic_sequence","chronological","","","","","","",""
"","","","","","html-keyboard-response","23","380507","0.0-23.0","8C7EAE2BB6894644BB2220D74032427A","019cfc48-3944-7281-97e2-5e6ef6920139","019cfc28-2143-7934-89cc-ce6402563331","","null","
                <div class=""stimulus-container"">
                    <img src=""images/schematic_sequence/hotel_scheme/hotel_scheme_4.png"" class=""exp-image"">
                    <div class=""question-area""></div> 
                </div>","null","","","","","","","","","","","",""
"","","","","","html-button-response","24","381027","0.0-24.0","8C7EAE2BB6894644BB2220D74032427A","019cfc48-3944-7281-97e2-5e6ef6920139","019cfc28-2143-7934-89cc-ce6402563331","","518","
                <div class=""stimulus-container"">
                    <img src=""images/schematic_sequence/hotel_scheme/hotel_scheme_4.png"" class=""exp-image"">
                    <div class=""question-area"">
                        <p style=""font-size: 20px; font-weight: bold; margin: 0;"">Is there a person in this image?</p>
                    </div>
                </div>","1","main_experiment_trial","4","hotel_scheme","schematic_sequence","chronological","","","","","","",""
"","","","","","html-keyboard-response","25","386031","0.0-25.0","8C7EAE2BB6894644BB2220D74032427A","019cfc48-3944-7281-97e2-5e6ef6920139","019cfc28-2143-7934-89cc-ce6402563331","","null","
                <div class=""stimulus-container"">
                    <img src=""images/schematic_sequence/hotel_scheme/hotel_scheme_5.png"" class=""exp-image"">
                    <div class=""question-area""></div> 
                </div>","null","","","","","","","","","","","",""
"","","","","","html-button-response","26","386780","0.0-26.0","8C7EAE2BB6894644BB2220D74032427A","019cfc48-3944-7281-97e2-5e6ef6920139","019cfc28-2143-7934-89cc-ce6402563331","","747","
                <div class=""stimulus-container"">
                    <img src=""images/schematic_sequence/hotel_scheme/hotel_scheme_5.png"" class=""exp-image"">
                    <div class=""question-area"">
                        <p style=""font-size: 20px; font-weight: bold; margin: 0;"">Is there a person in this image?</p>
                    </div>
                </div>","0","main_experiment_trial","5","hotel_scheme","schematic_sequence","chronological","","","","","","",""
"","","","","","html-keyboard-response","27","391785","0.0-27.0","8C7EAE2BB6894644BB2220D74032427A","019cfc48-3944-7281-97e2-5e6ef6920139","019cfc28-2143-7934-89cc-ce6402563331","","null","
                <div class=""stimulus-container"">
                    <img src=""images/schematic_sequence/hotel_scheme/hotel_scheme_6.png"" class=""exp-image"">
                    <div class=""question-area""></div> 
                </div>","null","","","","","","","","","","","",""
"","","","","","html-button-response","28","392292","0.0-28.0","8C7EAE2BB6894644BB2220D74032427A","019cfc48-3944-7281-97e2-5e6ef6920139","019cfc28-2143-7934-89cc-ce6402563331","","504","
                <div class=""stimulus-container"">
                    <img src=""images/schematic_sequence/hotel_scheme/hotel_scheme_6.png"" class=""exp-image"">
                    <div class=""question-area"">
                        <p style=""font-size: 20px; font-weight: bold; margin: 0;"">Is there a person in this image?</p>
                    </div>
                </div>","0","main_experiment_trial","6","hotel_scheme","schematic_sequence","chronological","","","","","","",""
"","","","","","html-keyboard-response","29","397301","0.0-29.0","8C7EAE2BB6894644BB2220D74032427A","019cfc48-3944-7281-97e2-5e6ef6920139","019cfc28-2143-7934-89cc-ce6402563331","","null","
                <div class=""stimulus-container"">
                    <img src=""images/schematic_sequence/hotel_scheme/hotel_scheme_7.png"" class=""exp-image"">
                    <div class=""question-area""></div> 
                </div>","null","","","","","","","","","","","",""
"","","","","","html-button-response","30","400100","0.0-30.0","8C7EAE2BB6894644BB2220D74032427A","019cfc48-3944-7281-97e2-5e6ef6920139","019cfc28-2143-7934-89cc-ce6402563331","","2797","
                <div class=""stimulus-container"">
                    <img src=""images/schematic_sequence/hotel_scheme/hotel_scheme_7.png"" class=""exp-image"">
                    <div class=""question-area"">
                        <p style=""font-size: 20px; font-weight: bold; margin: 0;"">Is there a person in this image?</p>
                    </div>
                </div>","1","main_experiment_trial","7","hotel_scheme","schematic_sequence","chronological","","","","","","",""
"","","","","","html-keyboard-response","31","405101","0.0-31.0","8C7EAE2BB6894644BB2220D74032427A","019cfc48-3944-7281-97e2-5e6ef6920139","019cfc28-2143-7934-89cc-ce6402563331","","null","
                <div class=""stimulus-container"">
                    <img src=""images/schematic_sequence/hotel_scheme/hotel_scheme_8.png"" class=""exp-image"">
                    <div class=""question-area""></div> 
                </div>","null","","","","","","","","","","","",""
"","","","","","html-button-response","32","407091","0.0-32.0","8C7EAE2BB6894644BB2220D74032427A","019cfc48-3944-7281-97e2-5e6ef6920139","019cfc28-2143-7934-89cc-ce6402563331","","1988","
                <div class=""stimulus-container"">
                    <img src=""images/schematic_sequence/hotel_scheme/hotel_scheme_8.png"" class=""exp-image"">
                    <div class=""question-area"">
                        <p style=""font-size: 20px; font-weight: bold; margin: 0;"">Is there a person in this image?</p>
                    </div>
                </div>","0","main_experiment_trial","8","hotel_scheme","schematic_sequence","chronological","","","","","","",""
"","","","","","html-keyboard-response","33","412095","0.0-33.0","8C7EAE2BB6894644BB2220D74032427A","019cfc48-3944-7281-97e2-5e6ef6920139","019cfc28-2143-7934-89cc-ce6402563331","","null","
                <div class=""stimulus-container"">
                    <img src=""images/schematic_sequence/hotel_scheme/hotel_scheme_9.png"" class=""exp-image"">
                    <div class=""question-area""></div> 
                </div>","null","","","","","","","","","","","",""
"","","","","","html-button-response","34","415099","0.0-34.0","8C7EAE2BB6894644BB2220D74032427A","019cfc48-3944-7281-97e2-5e6ef6920139","019cfc28-2143-7934-89cc-ce6402563331","","null","
                <div class=""stimulus-container"">
                    <img src=""images/schematic_sequence/hotel_scheme/hotel_scheme_9.png"" class=""exp-image"">
                    <div class=""question-area"">
                        <p style=""font-size: 20px; font-weight: bold; margin: 0;"">Is there a person in this image?</p>
                    </div>
                </div>","null","main_experiment_trial","9","hotel_scheme","schematic_sequence","chronological","","","","","","",""
"","","","","","html-keyboard-response","35","420101","0.0-35.0","8C7EAE2BB6894644BB2220D74032427A","019cfc48-3944-7281-97e2-5e6ef6920139","019cfc28-2143-7934-89cc-ce6402563331","","null","
                <div class=""stimulus-container"">
                    <img src=""images/schematic_sequence/hotel_scheme/hotel_scheme_ten.png"" class=""exp-image"">
                    <div class=""question-area""></div> 
                </div>","null","","","","","","","","","","","",""
"","","","","","html-button-response","36","421820","0.0-36.0","8C7EAE2BB6894644BB2220D74032427A","019cfc48-3944-7281-97e2-5e6ef6920139","019cfc28-2143-7934-89cc-ce6402563331","","1717","
                <div class=""stimulus-container"">
                    <img src=""images/schematic_sequence/hotel_scheme/hotel_scheme_ten.png"" class=""exp-image"">
                    <div class=""question-area"">
                        <p style=""font-size: 20px; font-weight: bold; margin: 0;"">Is there a person in this image?</p>
                    </div>
                </div>","1","main_experiment_trial","ten","hotel_scheme","schematic_sequence","chronological","","","","","","",""
"","","","","","html-keyboard-response","37","426825","0.0-37.0","8C7EAE2BB6894644BB2220D74032427A","019cfc48-3944-7281-97e2-5e6ef6920139","019cfc28-2143-7934-89cc-ce6402563331","","null","<div style=""background-color: white; width: 100vw; height: 100vh;""></div>","null","","","","","","","","","","","",""
"","","","","","html-keyboard-response","38","431835","0.0-38.0","8C7EAE2BB6894644BB2220D74032427A","019cfc48-3944-7281-97e2-5e6ef6920139","019cfc28-2143-7934-89cc-ce6402563331","","null","
                <div class=""stimulus-container"">
                    <img src=""images/schematic_sequence/restaurant_scheme/restaurant_scheme_1.png"" class=""exp-image"">
                    <div class=""question-area""></div> 
                </div>","null","","","","","","","","","","","",""
"","","","","","html-button-response","39","433340","0.0-39.0","8C7EAE2BB6894644BB2220D74032427A","019cfc48-3944-7281-97e2-5e6ef6920139","019cfc28-2143-7934-89cc-ce6402563331","","1502","
                <div class=""stimulus-container"">
                    <img src=""images/schematic_sequence/restaurant_scheme/restaurant_scheme_1.png"" class=""exp-image"">
                    <div class=""question-area"">
                        <p style=""font-size: 20px; font-weight: bold; margin: 0;"">Is there a person in this image?</p>
                    </div>
                </div>","1","main_experiment_trial","1","restaurant_scheme","schematic_sequence","chronological","","","","","","",""
"","","","","","html-keyboard-response","40","438345","0.0-40.0","8C7EAE2BB6894644BB2220D74032427A","019cfc48-3944-7281-97e2-5e6ef6920139","019cfc28-2143-7934-89cc-ce6402563331","","null","
                <div class=""stimulus-container"">
                    <img src=""images/schematic_sequence/restaurant_scheme/restaurant_scheme_2.png"" class=""exp-image"">
                    <div class=""question-area""></div> 
                </div>","null","","","","","","","","","","","",""
"","","","","","html-button-response","41","441352","0.0-41.0","8C7EAE2BB6894644BB2220D74032427A","019cfc48-3944-7281-97e2-5e6ef6920139","019cfc28-2143-7934-89cc-ce6402563331","","null","
                <div class=""stimulus-container"">
                    <img src=""images/schematic_sequence/restaurant_scheme/restaurant_scheme_2.png"" class=""exp-image"">
                    <div class=""question-area"">
                        <p style=""font-size: 20px; font-weight: bold; margin: 0;"">Is there a person in this image?</p>
                    </div>
                </div>","null","main_experiment_trial","2","restaurant_scheme","schematic_sequence","chronological","","","","","","",""
"","","","","","html-keyboard-response","42","446362","0.0-42.0","8C7EAE2BB6894644BB2220D74032427A","019cfc48-3944-7281-97e2-5e6ef6920139","019cfc28-2143-7934-89cc-ce6402563331","","null","
                <div class=""stimulus-container"">
                    <img src=""images/schematic_sequence/restaurant_scheme/restaurant_scheme_3.png"" class=""exp-image"">
                    <div class=""question-area""></div> 
                </div>","null","","","","","","","","","","","",""
"","","","","","html-button-response","43","447826","0.0-43.0","8C7EAE2BB6894644BB2220D74032427A","019cfc48-3944-7281-97e2-5e6ef6920139","019cfc28-2143-7934-89cc-ce6402563331","","1462","
                <div class=""stimulus-container"">
                    <img src=""images/schematic_sequence/restaurant_scheme/restaurant_scheme_3.png"" class=""exp-image"">
                    <div class=""question-area"">
                        <p style=""font-size: 20px; font-weight: bold; margin: 0;"">Is there a person in this image?</p>
                    </div>
                </div>","1","main_experiment_trial","3","restaurant_scheme","schematic_sequence","chronological","","","","","","",""
"","","","","","html-keyboard-response","44","452835","0.0-44.0","8C7EAE2BB6894644BB2220D74032427A","019cfc48-3944-7281-97e2-5e6ef6920139","019cfc28-2143-7934-89cc-ce6402563331","","null","
                <div class=""stimulus-container"">
                    <img src=""images/schematic_sequence/restaurant_scheme/restaurant_scheme_4.png"" class=""exp-image"">
                    <div class=""question-area""></div> 
                </div>","null","","","","","","","","","","","",""
"","","","","","html-button-response","45","454522","0.0-45.0","8C7EAE2BB6894644BB2220D74032427A","019cfc48-3944-7281-97e2-5e6ef6920139","019cfc28-2143-7934-89cc-ce6402563331","","1684","
                <div class=""stimulus-container"">
                    <img src=""images/schematic_sequence/restaurant_scheme/restaurant_scheme_4.png"" class=""exp-image"">
                    <div class=""question-area"">
                        <p style=""font-size: 20px; font-weight: bold; margin: 0;"">Is there a person in this image?</p>
                    </div>
                </div>","1","main_experiment_trial","4","restaurant_scheme","schematic_sequence","chronological","","","","","","",""
"","","","","","html-keyboard-response","46","459523","0.0-46.0","8C7EAE2BB6894644BB2220D74032427A","019cfc48-3944-7281-97e2-5e6ef6920139","019cfc28-2143-7934-89cc-ce6402563331","","null","
                <div class=""stimulus-container"">
                    <img src=""images/schematic_sequence/restaurant_scheme/restaurant_scheme_5.png"" class=""exp-image"">
                    <div class=""question-area""></div> 
                </div>","null","","","","","","","","","","","",""
"","","","","","html-button-response","47","460241","0.0-47.0","8C7EAE2BB6894644BB2220D74032427A","019cfc48-3944-7281-97e2-5e6ef6920139","019cfc28-2143-7934-89cc-ce6402563331","","716","
                <div class=""stimulus-container"">
                    <img src=""images/schematic_sequence/restaurant_scheme/restaurant_scheme_5.png"" class=""exp-image"">
                    <div class=""question-area"">
                        <p style=""font-size: 20px; font-weight: bold; margin: 0;"">Is there a person in this image?</p>
                    </div>
                </div>","1","main_experiment_trial","5","restaurant_scheme","schematic_sequence","chronological","","","","","","",""
"","","","","","html-keyboard-response","48","465256","0.0-48.0","8C7EAE2BB6894644BB2220D74032427A","019cfc48-3944-7281-97e2-5e6ef6920139","019cfc28-2143-7934-89cc-ce6402563331","","null","
                <div class=""stimulus-container"">
                    <img src=""images/schematic_sequence/restaurant_scheme/restaurant_scheme_6.png"" class=""exp-image"">
                    <div class=""question-area""></div> 
                </div>","null","","","","","","","","","","","",""
"","","","","","html-button-response","49","465978","0.0-49.0","8C7EAE2BB6894644BB2220D74032427A","019cfc48-3944-7281-97e2-5e6ef6920139","019cfc28-2143-7934-89cc-ce6402563331","","720","
                <div class=""stimulus-container"">
                    <img src=""images/schematic_sequence/restaurant_scheme/restaurant_scheme_6.png"" class=""exp-image"">
                    <div class=""question-area"">
                        <p style=""font-size: 20px; font-weight: bold; margin: 0;"">Is there a person in this image?</p>
                    </div>
                </div>","1","main_experiment_trial","6","restaurant_scheme","schematic_sequence","chronological","","","","","","",""
"","","","","","html-keyboard-response","50","470986","0.0-50.0","8C7EAE2BB6894644BB2220D74032427A","019cfc48-3944-7281-97e2-5e6ef6920139","019cfc28-2143-7934-89cc-ce6402563331","","null","
                <div class=""stimulus-container"">
                    <img src=""images/schematic_sequence/restaurant_scheme/restaurant_scheme_7.png"" class=""exp-image"">
                    <div class=""question-area""></div> 
                </div>","null","","","","","","","","","","","",""
"","","","","","html-button-response","51","472682","0.0-51.0","8C7EAE2BB6894644BB2220D74032427A","019cfc48-3944-7281-97e2-5e6ef6920139","019cfc28-2143-7934-89cc-ce6402563331","","1694","
                <div class=""stimulus-container"">
                    <img src=""images/schematic_sequence/restaurant_scheme/restaurant_scheme_7.png"" class=""exp-image"">
                    <div class=""question-area"">
                        <p style=""font-size: 20px; font-weight: bold; margin: 0;"">Is there a person in this image?</p>
                    </div>
                </div>","1","main_experiment_trial","7","restaurant_scheme","schematic_sequence","chronological","","","","","","",""
"","","","","","html-keyboard-response","52","477689","0.0-52.0","8C7EAE2BB6894644BB2220D74032427A","019cfc48-3944-7281-97e2-5e6ef6920139","019cfc28-2143-7934-89cc-ce6402563331","","null","
                <div class=""stimulus-container"">
                    <img src=""images/schematic_sequence/restaurant_scheme/restaurant_scheme_8.png"" class=""exp-image"">
                    <div class=""question-area""></div> 
                </div>","null","","","","","","","","","","","",""
"","","","","","html-button-response","53","479449","0.0-53.0","8C7EAE2BB6894644BB2220D74032427A","019cfc48-3944-7281-97e2-5e6ef6920139","019cfc28-2143-7934-89cc-ce6402563331","","1759","
                <div class=""stimulus-container"">
                    <img src=""images/schematic_sequence/restaurant_scheme/restaurant_scheme_8.png"" class=""exp-image"">
                    <div class=""question-area"">
                        <p style=""font-size: 20px; font-weight: bold; margin: 0;"">Is there a person in this image?</p>
                    </div>
                </div>","1","main_experiment_trial","8","restaurant_scheme","schematic_sequence","chronological","","","","","","",""
"","","","","","html-keyboard-response","54","484453","0.0-54.0","8C7EAE2BB6894644BB2220D74032427A","019cfc48-3944-7281-97e2-5e6ef6920139","019cfc28-2143-7934-89cc-ce6402563331","","null","
                <div class=""stimulus-container"">
                    <img src=""images/schematic_sequence/restaurant_scheme/restaurant_scheme_9.png"" class=""exp-image"">
                    <div class=""question-area""></div> 
                </div>","null","","","","","","","","","","","",""
"","","","","","html-button-response","55","487459","0.0-55.0","8C7EAE2BB6894644BB2220D74032427A","019cfc48-3944-7281-97e2-5e6ef6920139","019cfc28-2143-7934-89cc-ce6402563331","","null","
                <div class=""stimulus-container"">
                    <img src=""images/schematic_sequence/restaurant_scheme/restaurant_scheme_9.png"" class=""exp-image"">
                    <div class=""question-area"">
                        <p style=""font-size: 20px; font-weight: bold; margin: 0;"">Is there a person in this image?</p>
                    </div>
                </div>","null","main_experiment_trial","9","restaurant_scheme","schematic_sequence","chronological","","","","","","",""
"","","","","","html-keyboard-response","56","492476","0.0-56.0","8C7EAE2BB6894644BB2220D74032427A","019cfc48-3944-7281-97e2-5e6ef6920139","019cfc28-2143-7934-89cc-ce6402563331","","null","
                <div class=""stimulus-container"">
                    <img src=""images/schematic_sequence/restaurant_scheme/restaurant_scheme_ten.png"" class=""exp-image"">
                    <div class=""question-area""></div> 
                </div>","null","","","","","","","","","","","",""
"","","","","","html-button-response","57","495225","0.0-57.0","8C7EAE2BB6894644BB2220D74032427A","019cfc48-3944-7281-97e2-5e6ef6920139","019cfc28-2143-7934-89cc-ce6402563331","","2747","
                <div class=""stimulus-container"">
                    <img src=""images/schematic_sequence/restaurant_scheme/restaurant_scheme_ten.png"" class=""exp-image"">
                    <div class=""question-area"">
                        <p style=""font-size: 20px; font-weight: bold; margin: 0;"">Is there a person in this image?</p>
                    </div>
                </div>","1","main_experiment_trial","ten","restaurant_scheme","schematic_sequence","chronological","","","","","","",""
"","","","","","html-keyboard-response","58","500239","0.0-58.0","8C7EAE2BB6894644BB2220D74032427A","019cfc48-3944-7281-97e2-5e6ef6920139","019cfc28-2143-7934-89cc-ce6402563331","","null","<div style=""background-color: white; width: 100vw; height: 100vh;""></div>","null","","","","","","","","","","","",""
"","","","","","html-keyboard-response","59","505255","0.0-59.0","8C7EAE2BB6894644BB2220D74032427A","019cfc48-3944-7281-97e2-5e6ef6920139","019cfc28-2143-7934-89cc-ce6402563331","","null","
                <div class=""stimulus-container"">
                    <img src=""images/semantic_sequence/using_technology_semantic/using_technology_semantic_1.png"" class=""exp-image"">
                    <div class=""question-area""></div> 
                </div>","null","","","","","","","","","","","",""
"","","","","","html-button-response","60","508261","0.0-60.0","8C7EAE2BB6894644BB2220D74032427A","019cfc48-3944-7281-97e2-5e6ef6920139","019cfc28-2143-7934-89cc-ce6402563331","","null","
                <div class=""stimulus-container"">
                    <img src=""images/semantic_sequence/using_technology_semantic/using_technology_semantic_1.png"" class=""exp-image"">
                    <div class=""question-area"">
                        <p style=""font-size: 20px; font-weight: bold; margin: 0;"">Is there a person in this image?</p>
                    </div>
                </div>","null","main_experiment_trial","1","using_technology_semantic","semantic_sequence","chronological","","","","","","",""
"","","","","","html-keyboard-response","61","513268","0.0-61.0","8C7EAE2BB6894644BB2220D74032427A","019cfc48-3944-7281-97e2-5e6ef6920139","019cfc28-2143-7934-89cc-ce6402563331","","null","
                <div class=""stimulus-container"">
                    <img src=""images/semantic_sequence/using_technology_semantic/using_technology_semantic_2.png"" class=""exp-image"">
                    <div class=""question-area""></div> 
                </div>","null","","","","","","","","","","","",""
"","","","","","html-button-response","62","516275","0.0-62.0","8C7EAE2BB6894644BB2220D74032427A","019cfc48-3944-7281-97e2-5e6ef6920139","019cfc28-2143-7934-89cc-ce6402563331","","null","
                <div class=""stimulus-container"">
                    <img src=""images/semantic_sequence/using_technology_semantic/using_technology_semantic_2.png"" class=""exp-image"">
                    <div class=""question-area"">
                        <p style=""font-size: 20px; font-weight: bold; margin: 0;"">Is there a person in this image?</p>
                    </div>
                </div>","null","main_experiment_trial","2","using_technology_semantic","semantic_sequence","chronological","","","","","","",""
"","","","","","html-keyboard-response","63","521284","0.0-63.0","8C7EAE2BB6894644BB2220D74032427A","019cfc48-3944-7281-97e2-5e6ef6920139","019cfc28-2143-7934-89cc-ce6402563331","","null","
                <div class=""stimulus-container"">
                    <img src=""images/semantic_sequence/using_technology_semantic/using_technology_semantic_3.png"" class=""exp-image"">
                    <div class=""question-area""></div> 
                </div>","null","","","","","","","","","","","",""
"","","","","","html-button-response","64","523900","0.0-64.0","8C7EAE2BB6894644BB2220D74032427A","019cfc48-3944-7281-97e2-5e6ef6920139","019cfc28-2143-7934-89cc-ce6402563331","","2613","
                <div class=""stimulus-container"">
                    <img src=""images/semantic_sequence/using_technology_semantic/using_technology_semantic_3.png"" class=""exp-image"">
                    <div class=""question-area"">
                        <p style=""font-size: 20px; font-weight: bold; margin: 0;"">Is there a person in this image?</p>
                    </div>
                </div>","0","main_experiment_trial","3","using_technology_semantic","semantic_sequence","chronological","","","","","","",""
"","","","","","html-keyboard-response","65","528916","0.0-65.0","8C7EAE2BB6894644BB2220D74032427A","019cfc48-3944-7281-97e2-5e6ef6920139","019cfc28-2143-7934-89cc-ce6402563331","","null","
                <div class=""stimulus-container"">
                    <img src=""images/semantic_sequence/using_technology_semantic/using_technology_semantic_4.png"" class=""exp-image"">
                    <div class=""question-area""></div> 
                </div>","null","","","","","","","","","","","",""
"","","","","","html-button-response","66","531924","0.0-66.0","8C7EAE2BB6894644BB2220D74032427A","019cfc48-3944-7281-97e2-5e6ef6920139","019cfc28-2143-7934-89cc-ce6402563331","","null","
                <div class=""stimulus-container"">
                    <img src=""images/semantic_sequence/using_technology_semantic/using_technology_semantic_4.png"" class=""exp-image"">
                    <div class=""question-area"">
                        <p style=""font-size: 20px; font-weight: bold; margin: 0;"">Is there a person in this image?</p>
                    </div>
                </div>","null","main_experiment_trial","4","using_technology_semantic","semantic_sequence","chronological","","","","","","",""
"","","","","","html-keyboard-response","67","536933","0.0-67.0","8C7EAE2BB6894644BB2220D74032427A","019cfc48-3944-7281-97e2-5e6ef6920139","019cfc28-2143-7934-89cc-ce6402563331","","null","
                <div class=""stimulus-container"">
                    <img src=""images/semantic_sequence/using_technology_semantic/using_technology_semantic_5.png"" class=""exp-image"">
                    <div class=""question-area""></div> 
                </div>","null","","","","","","","","","","","",""
"","","","","","html-button-response","68","539027","0.0-68.0","8C7EAE2BB6894644BB2220D74032427A","019cfc48-3944-7281-97e2-5e6ef6920139","019cfc28-2143-7934-89cc-ce6402563331","","2092","
                <div class=""stimulus-container"">
                    <img src=""images/semantic_sequence/using_technology_semantic/using_technology_semantic_5.png"" class=""exp-image"">
                    <div class=""question-area"">
                        <p style=""font-size: 20px; font-weight: bold; margin: 0;"">Is there a person in this image?</p>
                    </div>
                </div>","1","main_experiment_trial","5","using_technology_semantic","semantic_sequence","chronological","","","","","","",""
"","","","","","html-keyboard-response","69","544036","0.0-69.0","8C7EAE2BB6894644BB2220D74032427A","019cfc48-3944-7281-97e2-5e6ef6920139","019cfc28-2143-7934-89cc-ce6402563331","","null","
                <div class=""stimulus-container"">
                    <img src=""images/semantic_sequence/using_technology_semantic/using_technology_semantic_6.png"" class=""exp-image"">
                    <div class=""question-area""></div> 
                </div>","null","","","","","","","","","","","",""
"","","","","","html-button-response","70","547051","0.0-70.0","8C7EAE2BB6894644BB2220D74032427A","019cfc48-3944-7281-97e2-5e6ef6920139","019cfc28-2143-7934-89cc-ce6402563331","","null","
                <div class=""stimulus-container"">
                    <img src=""images/semantic_sequence/using_technology_semantic/using_technology_semantic_6.png"" class=""exp-image"">
                    <div class=""question-area"">
                        <p style=""font-size: 20px; font-weight: bold; margin: 0;"">Is there a person in this image?</p>
                    </div>
                </div>","null","main_experiment_trial","6","using_technology_semantic","semantic_sequence","chronological","","","","","","",""
"","","","","","html-keyboard-response","71","552064","0.0-71.0","8C7EAE2BB6894644BB2220D74032427A","019cfc48-3944-7281-97e2-5e6ef6920139","019cfc28-2143-7934-89cc-ce6402563331","","null","
                <div class=""stimulus-container"">
                    <img src=""images/semantic_sequence/using_technology_semantic/using_technology_semantic_7.png"" class=""exp-image"">
                    <div class=""question-area""></div> 
                </div>","null","","","","","","","","","","","",""
"","","","","","html-button-response","72","554067","0.0-72.0","8C7EAE2BB6894644BB2220D74032427A","019cfc48-3944-7281-97e2-5e6ef6920139","019cfc28-2143-7934-89cc-ce6402563331","","2001","
                <div class=""stimulus-container"">
                    <img src=""images/semantic_sequence/using_technology_semantic/using_technology_semantic_7.png"" class=""exp-image"">
                    <div class=""question-area"">
                        <p style=""font-size: 20px; font-weight: bold; margin: 0;"">Is there a person in this image?</p>
                    </div>
                </div>","1","main_experiment_trial","7","using_technology_semantic","semantic_sequence","chronological","","","","","","",""
"","","","","","html-keyboard-response","73","559075","0.0-73.0","8C7EAE2BB6894644BB2220D74032427A","019cfc48-3944-7281-97e2-5e6ef6920139","019cfc28-2143-7934-89cc-ce6402563331","","null","
                <div class=""stimulus-container"">
                    <img src=""images/semantic_sequence/using_technology_semantic/using_technology_semantic_8.png"" class=""exp-image"">
                    <div class=""question-area""></div> 
                </div>","null","","","","","","","","","","","",""
"","","","","","html-button-response","74","561443","0.0-74.0","8C7EAE2BB6894644BB2220D74032427A","019cfc48-3944-7281-97e2-5e6ef6920139","019cfc28-2143-7934-89cc-ce6402563331","","2367","
                <div class=""stimulus-container"">
                    <img src=""images/semantic_sequence/using_technology_semantic/using_technology_semantic_8.png"" class=""exp-image"">
                    <div class=""question-area"">
                        <p style=""font-size: 20px; font-weight: bold; margin: 0;"">Is there a person in this image?</p>
                    </div>
                </div>","1","main_experiment_trial","8","using_technology_semantic","semantic_sequence","chronological","","","","","","",""
"","","","","","html-keyboard-response","75","566460","0.0-75.0","8C7EAE2BB6894644BB2220D74032427A","019cfc48-3944-7281-97e2-5e6ef6920139","019cfc28-2143-7934-89cc-ce6402563331","","null","
                <div class=""stimulus-container"">
                    <img src=""images/semantic_sequence/using_technology_semantic/using_technology_semantic_9.png"" class=""exp-image"">
                    <div class=""question-area""></div> 
                </div>","null","","","","","","","","","","","",""
"","","","","","html-button-response","76","569472","0.0-76.0","8C7EAE2BB6894644BB2220D74032427A","019cfc48-3944-7281-97e2-5e6ef6920139","019cfc28-2143-7934-89cc-ce6402563331","","null","
                <div class=""stimulus-container"">
                    <img src=""images/semantic_sequence/using_technology_semantic/using_technology_semantic_9.png"" class=""exp-image"">
                    <div class=""question-area"">
                        <p style=""font-size: 20px; font-weight: bold; margin: 0;"">Is there a person in this image?</p>
                    </div>
                </div>","null","main_experiment_trial","9","using_technology_semantic","semantic_sequence","chronological","","","","","","",""
"","","","","","html-keyboard-response","77","574488","0.0-77.0","8C7EAE2BB6894644BB2220D74032427A","019cfc48-3944-7281-97e2-5e6ef6920139","019cfc28-2143-7934-89cc-ce6402563331","","null","
                <div class=""stimulus-container"">
                    <img src=""images/semantic_sequence/using_technology_semantic/using_technology_semantic_ten.png"" class=""exp-image"">
                    <div class=""question-area""></div> 
                </div>","null","","","","","","","","","","","",""
"","","","","","html-button-response","78","577493","0.0-78.0","8C7EAE2BB6894644BB2220D74032427A","019cfc48-3944-7281-97e2-5e6ef6920139","019cfc28-2143-7934-89cc-ce6402563331","","null","
                <div class=""stimulus-container"">
                    <img src=""images/semantic_sequence/using_technology_semantic/using_technology_semantic_ten.png"" class=""exp-image"">
                    <div class=""question-area"">
                        <p style=""font-size: 20px; font-weight: bold; margin: 0;"">Is there a person in this image?</p>
                    </div>
                </div>","null","main_experiment_trial","ten","using_technology_semantic","semantic_sequence","chronological","","","","","","",""
"","","","","","html-keyboard-response","79","582500","0.0-79.0","8C7EAE2BB6894644BB2220D74032427A","019cfc48-3944-7281-97e2-5e6ef6920139","019cfc28-2143-7934-89cc-ce6402563331","","null","<div style=""background-color: white; width: 100vw; height: 100vh;""></div>","null","","","","","","","","","","","",""
"","","","","","html-keyboard-response","80","587514","0.0-80.0","8C7EAE2BB6894644BB2220D74032427A","019cfc48-3944-7281-97e2-5e6ef6920139","019cfc28-2143-7934-89cc-ce6402563331","","null","
                <div class=""stimulus-container"">
                    <img src=""images/schematic_sequence/flight_scheme/flight_scheme_1.png"" class=""exp-image"">
                    <div class=""question-area""></div> 
                </div>","null","","","","","","","","","","","",""
"","","","","","html-button-response","81","588003","0.0-81.0","8C7EAE2BB6894644BB2220D74032427A","019cfc48-3944-7281-97e2-5e6ef6920139","019cfc28-2143-7934-89cc-ce6402563331","","487","
                <div class=""stimulus-container"">
                    <img src=""images/schematic_sequence/flight_scheme/flight_scheme_1.png"" class=""exp-image"">
                    <div class=""question-area"">
                        <p style=""font-size: 20px; font-weight: bold; margin: 0;"">Is there a person in this image?</p>
                    </div>
                </div>","0","main_experiment_trial","1","flight_scheme","schematic_sequence","chronological","","","","","","",""
"","","","","","html-keyboard-response","82","593014","0.0-82.0","8C7EAE2BB6894644BB2220D74032427A","019cfc48-3944-7281-97e2-5e6ef6920139","019cfc28-2143-7934-89cc-ce6402563331","","null","
                <div class=""stimulus-container"">
                    <img src=""images/schematic_sequence/flight_scheme/flight_scheme_2.png"" class=""exp-image"">
                    <div class=""question-area""></div> 
                </div>","null","","","","","","","","","","","",""
"","","","","","html-button-response","83","593555","0.0-83.0","8C7EAE2BB6894644BB2220D74032427A","019cfc48-3944-7281-97e2-5e6ef6920139","019cfc28-2143-7934-89cc-ce6402563331","","540","
                <div class=""stimulus-container"">
                    <img src=""images/schematic_sequence/flight_scheme/flight_scheme_2.png"" class=""exp-image"">
                    <div class=""question-area"">
                        <p style=""font-size: 20px; font-weight: bold; margin: 0;"">Is there a person in this image?</p>
                    </div>
                </div>","1","main_experiment_trial","2","flight_scheme","schematic_sequence","chronological","","","","","","",""
"","","","","","html-keyboard-response","84","598563","0.0-84.0","8C7EAE2BB6894644BB2220D74032427A","019cfc48-3944-7281-97e2-5e6ef6920139","019cfc28-2143-7934-89cc-ce6402563331","","null","
                <div class=""stimulus-container"">
                    <img src=""images/schematic_sequence/flight_scheme/flight_scheme_3.png"" class=""exp-image"">
                    <div class=""question-area""></div> 
                </div>","null","","","","","","","","","","","",""
"","","","","","html-button-response","85","599540","0.0-85.0","8C7EAE2BB6894644BB2220D74032427A","019cfc48-3944-7281-97e2-5e6ef6920139","019cfc28-2143-7934-89cc-ce6402563331","","975","
                <div class=""stimulus-container"">
                    <img src=""images/schematic_sequence/flight_scheme/flight_scheme_3.png"" class=""exp-image"">
                    <div class=""question-area"">
                        <p style=""font-size: 20px; font-weight: bold; margin: 0;"">Is there a person in this image?</p>
                    </div>
                </div>","0","main_experiment_trial","3","flight_scheme","schematic_sequence","chronological","","","","","","",""
"","","","","","html-keyboard-response","86","604554","0.0-86.0","8C7EAE2BB6894644BB2220D74032427A","019cfc48-3944-7281-97e2-5e6ef6920139","019cfc28-2143-7934-89cc-ce6402563331","","null","
                <div class=""stimulus-container"">
                    <img src=""images/schematic_sequence/flight_scheme/flight_scheme_4.png"" class=""exp-image"">
                    <div class=""question-area""></div> 
                </div>","null","","","","","","","","","","","",""
"","","","","","html-button-response","87","605532","0.0-87.0","8C7EAE2BB6894644BB2220D74032427A","019cfc48-3944-7281-97e2-5e6ef6920139","019cfc28-2143-7934-89cc-ce6402563331","","976","
                <div class=""stimulus-container"">
                    <img src=""images/schematic_sequence/flight_scheme/flight_scheme_4.png"" class=""exp-image"">
                    <div class=""question-area"">
                        <p style=""font-size: 20px; font-weight: bold; margin: 0;"">Is there a person in this image?</p>
                    </div>
                </div>","0","main_experiment_trial","4","flight_scheme","schematic_sequence","chronological","","","","","","",""
"","","","","","html-keyboard-response","88","610548","0.0-88.0","8C7EAE2BB6894644BB2220D74032427A","019cfc48-3944-7281-97e2-5e6ef6920139","019cfc28-2143-7934-89cc-ce6402563331","","null","
                <div class=""stimulus-container"">
                    <img src=""images/schematic_sequence/flight_scheme/flight_scheme_5.png"" class=""exp-image"">
                    <div class=""question-area""></div> 
                </div>","null","","","","","","","","","","","",""
"","","","","","html-button-response","89","611451","0.0-89.0","8C7EAE2BB6894644BB2220D74032427A","019cfc48-3944-7281-97e2-5e6ef6920139","019cfc28-2143-7934-89cc-ce6402563331","","901","
                <div class=""stimulus-container"">
                    <img src=""images/schematic_sequence/flight_scheme/flight_scheme_5.png"" class=""exp-image"">
                    <div class=""question-area"">
                        <p style=""font-size: 20px; font-weight: bold; margin: 0;"">Is there a person in this image?</p>
                    </div>
                </div>","0","main_experiment_trial","5","flight_scheme","schematic_sequence","chronological","","","","","","",""
"","","","","","html-keyboard-response","90","616458","0.0-90.0","8C7EAE2BB6894644BB2220D74032427A","019cfc48-3944-7281-97e2-5e6ef6920139","019cfc28-2143-7934-89cc-ce6402563331","","null","
                <div class=""stimulus-container"">
                    <img src=""images/schematic_sequence/flight_scheme/flight_scheme_6.png"" class=""exp-image"">
                    <div class=""question-area""></div> 
                </div>","null","","","","","","","","","","","",""
"","","","","","html-button-response","91","617539","0.0-91.0","8C7EAE2BB6894644BB2220D74032427A","019cfc48-3944-7281-97e2-5e6ef6920139","019cfc28-2143-7934-89cc-ce6402563331","","1079","
                <div class=""stimulus-container"">
                    <img src=""images/schematic_sequence/flight_scheme/flight_scheme_6.png"" class=""exp-image"">
                    <div class=""question-area"">
                        <p style=""font-size: 20px; font-weight: bold; margin: 0;"">Is there a person in this image?</p>
                    </div>
                </div>","1","main_experiment_trial","6","flight_scheme","schematic_sequence","chronological","","","","","","",""
"","","","","","html-keyboard-response","92","622541","0.0-92.0","8C7EAE2BB6894644BB2220D74032427A","019cfc48-3944-7281-97e2-5e6ef6920139","019cfc28-2143-7934-89cc-ce6402563331","","null","
                <div class=""stimulus-container"">
                    <img src=""images/schematic_sequence/flight_scheme/flight_scheme_7.png"" class=""exp-image"">
                    <div class=""question-area""></div> 
                </div>","null","","","","","","","","","","","",""
"","","","","","html-button-response","93","623587","0.0-93.0","8C7EAE2BB6894644BB2220D74032427A","019cfc48-3944-7281-97e2-5e6ef6920139","019cfc28-2143-7934-89cc-ce6402563331","","1045","
                <div class=""stimulus-container"">
                    <img src=""images/schematic_sequence/flight_scheme/flight_scheme_7.png"" class=""exp-image"">
                    <div class=""question-area"">
                        <p style=""font-size: 20px; font-weight: bold; margin: 0;"">Is there a person in this image?</p>
                    </div>
                </div>","0","main_experiment_trial","7","flight_scheme","schematic_sequence","chronological","","","","","","",""
"","","","","","html-keyboard-response","94","628589","0.0-94.0","8C7EAE2BB6894644BB2220D74032427A","019cfc48-3944-7281-97e2-5e6ef6920139","019cfc28-2143-7934-89cc-ce6402563331","","null","
                <div class=""stimulus-container"">
                    <img src=""images/schematic_sequence/flight_scheme/flight_scheme_8.png"" class=""exp-image"">
                    <div class=""question-area""></div> 
                </div>","null","","","","","","","","","","","",""
"","","","","","html-button-response","95","629226","0.0-95.0","8C7EAE2BB6894644BB2220D74032427A","019cfc48-3944-7281-97e2-5e6ef6920139","019cfc28-2143-7934-89cc-ce6402563331","","635","
                <div class=""stimulus-container"">
                    <img src=""images/schematic_sequence/flight_scheme/flight_scheme_8.png"" class=""exp-image"">
                    <div class=""question-area"">
                        <p style=""font-size: 20px; font-weight: bold; margin: 0;"">Is there a person in this image?</p>
                    </div>
                </div>","1","main_experiment_trial","8","flight_scheme","schematic_sequence","chronological","","","","","","",""
"","","","","","html-keyboard-response","96","634233","0.0-96.0","8C7EAE2BB6894644BB2220D74032427A","019cfc48-3944-7281-97e2-5e6ef6920139","019cfc28-2143-7934-89cc-ce6402563331","","null","
                <div class=""stimulus-container"">
                    <img src=""images/schematic_sequence/flight_scheme/flight_scheme_9.png"" class=""exp-image"">
                    <div class=""question-area""></div> 
                </div>","null","","","","","","","","","","","",""
"","","","","","html-button-response","97","634746","0.0-97.0","8C7EAE2BB6894644BB2220D74032427A","019cfc48-3944-7281-97e2-5e6ef6920139","019cfc28-2143-7934-89cc-ce6402563331","","511","
                <div class=""stimulus-container"">
                    <img src=""images/schematic_sequence/flight_scheme/flight_scheme_9.png"" class=""exp-image"">
                    <div class=""question-area"">
                        <p style=""font-size: 20px; font-weight: bold; margin: 0;"">Is there a person in this image?</p>
                    </div>
                </div>","0","main_experiment_trial","9","flight_scheme","schematic_sequence","chronological","","","","","","",""
"","","","","","html-keyboard-response","98","639748","0.0-98.0","8C7EAE2BB6894644BB2220D74032427A","019cfc48-3944-7281-97e2-5e6ef6920139","019cfc28-2143-7934-89cc-ce6402563331","","null","
                <div class=""stimulus-container"">
                    <img src=""images/schematic_sequence/flight_scheme/flight_scheme_ten.png"" class=""exp-image"">
                    <div class=""question-area""></div> 
                </div>","null","","","","","","","","","","","",""
"","","","","","html-button-response","99","640194","0.0-99.0","8C7EAE2BB6894644BB2220D74032427A","019cfc48-3944-7281-97e2-5e6ef6920139","019cfc28-2143-7934-89cc-ce6402563331","","445","
                <div class=""stimulus-container"">
                    <img src=""images/schematic_sequence/flight_scheme/flight_scheme_ten.png"" class=""exp-image"">
                    <div class=""question-area"">
                        <p style=""font-size: 20px; font-weight: bold; margin: 0;"">Is there a person in this image?</p>
                    </div>
                </div>","0","main_experiment_trial","ten","flight_scheme","schematic_sequence","chronological","","","","","","",""
"","","","","","html-keyboard-response","100","645217","0.0-100.0","8C7EAE2BB6894644BB2220D74032427A","019cfc48-3944-7281-97e2-5e6ef6920139","019cfc28-2143-7934-89cc-ce6402563331","","null","<div style=""background-color: white; width: 100vw; height: 100vh;""></div>","null","","","","","","","","","","","",""
"","","","","","html-keyboard-response","101","650221","0.0-101.0","8C7EAE2BB6894644BB2220D74032427A","019cfc48-3944-7281-97e2-5e6ef6920139","019cfc28-2143-7934-89cc-ce6402563331","","null","
                <div class=""stimulus-container"">
                    <img src=""images/semantic_sequence/cat_care_semantic/cat_care_semantic_1.png"" class=""exp-image"">
                    <div class=""question-area""></div> 
                </div>","null","","","","","","","","","","","",""
"","","","","","html-button-response","102","651099","0.0-102.0","8C7EAE2BB6894644BB2220D74032427A","019cfc48-3944-7281-97e2-5e6ef6920139","019cfc28-2143-7934-89cc-ce6402563331","","876","
                <div class=""stimulus-container"">
                    <img src=""images/semantic_sequence/cat_care_semantic/cat_care_semantic_1.png"" class=""exp-image"">
                    <div class=""question-area"">
                        <p style=""font-size: 20px; font-weight: bold; margin: 0;"">Is there a person in this image?</p>
                    </div>
                </div>","0","main_experiment_trial","1","cat_care_semantic","semantic_sequence","chronological","","","","","","",""
"","","","","","html-keyboard-response","103","656115","0.0-103.0","8C7EAE2BB6894644BB2220D74032427A","019cfc48-3944-7281-97e2-5e6ef6920139","019cfc28-2143-7934-89cc-ce6402563331","","null","
                <div class=""stimulus-container"">
                    <img src=""images/semantic_sequence/cat_care_semantic/cat_care_semantic_2.png"" class=""exp-image"">
                    <div class=""question-area""></div> 
                </div>","null","","","","","","","","","","","",""
"","","","","","html-button-response","104","659125","0.0-104.0","8C7EAE2BB6894644BB2220D74032427A","019cfc48-3944-7281-97e2-5e6ef6920139","019cfc28-2143-7934-89cc-ce6402563331","","null","
                <div class=""stimulus-container"">
                    <img src=""images/semantic_sequence/cat_care_semantic/cat_care_semantic_2.png"" class=""exp-image"">
                    <div class=""question-area"">
                        <p style=""font-size: 20px; font-weight: bold; margin: 0;"">Is there a person in this image?</p>
                    </div>
                </div>","null","main_experiment_trial","2","cat_care_semantic","semantic_sequence","chronological","","","","","","",""
"","","","","","html-keyboard-response","105","664128","0.0-105.0","8C7EAE2BB6894644BB2220D74032427A","019cfc48-3944-7281-97e2-5e6ef6920139","019cfc28-2143-7934-89cc-ce6402563331","","null","
                <div class=""stimulus-container"">
                    <img src=""images/semantic_sequence/cat_care_semantic/cat_care_semantic_3.png"" class=""exp-image"">
                    <div class=""question-area""></div> 
                </div>","null","","","","","","","","","","","",""
"","","","","","html-button-response","106","666330","0.0-106.0","8C7EAE2BB6894644BB2220D74032427A","019cfc48-3944-7281-97e2-5e6ef6920139","019cfc28-2143-7934-89cc-ce6402563331","","2200","
                <div class=""stimulus-container"">
                    <img src=""images/semantic_sequence/cat_care_semantic/cat_care_semantic_3.png"" class=""exp-image"">
                    <div class=""question-area"">
                        <p style=""font-size: 20px; font-weight: bold; margin: 0;"">Is there a person in this image?</p>
                    </div>
                </div>","0","main_experiment_trial","3","cat_care_semantic","semantic_sequence","chronological","","","","","","",""
"","","","","","html-keyboard-response","107","671332","0.0-107.0","8C7EAE2BB6894644BB2220D74032427A","019cfc48-3944-7281-97e2-5e6ef6920139","019cfc28-2143-7934-89cc-ce6402563331","","null","
                <div class=""stimulus-container"">
                    <img src=""images/semantic_sequence/cat_care_semantic/cat_care_semantic_4.png"" class=""exp-image"">
                    <div class=""question-area""></div> 
                </div>","null","","","","","","","","","","","",""
"","","","","","html-button-response","108","672010","0.0-108.0","8C7EAE2BB6894644BB2220D74032427A","019cfc48-3944-7281-97e2-5e6ef6920139","019cfc28-2143-7934-89cc-ce6402563331","","676","
                <div class=""stimulus-container"">
                    <img src=""images/semantic_sequence/cat_care_semantic/cat_care_semantic_4.png"" class=""exp-image"">
                    <div class=""question-area"">
                        <p style=""font-size: 20px; font-weight: bold; margin: 0;"">Is there a person in this image?</p>
                    </div>
                </div>","0","main_experiment_trial","4","cat_care_semantic","semantic_sequence","chronological","","","","","","",""
"","","","","","html-keyboard-response","109","677014","0.0-109.0","8C7EAE2BB6894644BB2220D74032427A","019cfc48-3944-7281-97e2-5e6ef6920139","019cfc28-2143-7934-89cc-ce6402563331","","null","
                <div class=""stimulus-container"">
                    <img src=""images/semantic_sequence/cat_care_semantic/cat_care_semantic_5.png"" class=""exp-image"">
                    <div class=""question-area""></div> 
                </div>","null","","","","","","","","","","","",""
"","","","","","html-button-response","110","678402","0.0-110.0","8C7EAE2BB6894644BB2220D74032427A","019cfc48-3944-7281-97e2-5e6ef6920139","019cfc28-2143-7934-89cc-ce6402563331","","1387","
                <div class=""stimulus-container"">
                    <img src=""images/semantic_sequence/cat_care_semantic/cat_care_semantic_5.png"" class=""exp-image"">
                    <div class=""question-area"">
                        <p style=""font-size: 20px; font-weight: bold; margin: 0;"">Is there a person in this image?</p>
                    </div>
                </div>","1","main_experiment_trial","5","cat_care_semantic","semantic_sequence","chronological","","","","","","",""
"","","","","","html-keyboard-response","111","683408","0.0-111.0","8C7EAE2BB6894644BB2220D74032427A","019cfc48-3944-7281-97e2-5e6ef6920139","019cfc28-2143-7934-89cc-ce6402563331","","null","
                <div class=""stimulus-container"">
                    <img src=""images/semantic_sequence/cat_care_semantic/cat_care_semantic_6.png"" class=""exp-image"">
                    <div class=""question-area""></div> 
                </div>","null","","","","","","","","","","","",""
"","","","","","html-button-response","112","684746","0.0-112.0","8C7EAE2BB6894644BB2220D74032427A","019cfc48-3944-7281-97e2-5e6ef6920139","019cfc28-2143-7934-89cc-ce6402563331","","1336","
                <div class=""stimulus-container"">
                    <img src=""images/semantic_sequence/cat_care_semantic/cat_care_semantic_6.png"" class=""exp-image"">
                    <div class=""question-area"">
                        <p style=""font-size: 20px; font-weight: bold; margin: 0;"">Is there a person in this image?</p>
                    </div>
                </div>","0","main_experiment_trial","6","cat_care_semantic","semantic_sequence","chronological","","","","","","",""
"","","","","","html-keyboard-response","113","689750","0.0-113.0","8C7EAE2BB6894644BB2220D74032427A","019cfc48-3944-7281-97e2-5e6ef6920139","019cfc28-2143-7934-89cc-ce6402563331","","null","
                <div class=""stimulus-container"">
                    <img src=""images/semantic_sequence/cat_care_semantic/cat_care_semantic_7.png"" class=""exp-image"">
                    <div class=""question-area""></div> 
                </div>","null","","","","","","","","","","","",""
"","","","","","html-button-response","114","690323","0.0-114.0","8C7EAE2BB6894644BB2220D74032427A","019cfc48-3944-7281-97e2-5e6ef6920139","019cfc28-2143-7934-89cc-ce6402563331","","570","
                <div class=""stimulus-container"">
                    <img src=""images/semantic_sequence/cat_care_semantic/cat_care_semantic_7.png"" class=""exp-image"">
                    <div class=""question-area"">
                        <p style=""font-size: 20px; font-weight: bold; margin: 0;"">Is there a person in this image?</p>
                    </div>
                </div>","0","main_experiment_trial","7","cat_care_semantic","semantic_sequence","chronological","","","","","","",""
"","","","","","html-keyboard-response","115","695334","0.0-115.0","8C7EAE2BB6894644BB2220D74032427A","019cfc48-3944-7281-97e2-5e6ef6920139","019cfc28-2143-7934-89cc-ce6402563331","","null","
                <div class=""stimulus-container"">
                    <img src=""images/semantic_sequence/cat_care_semantic/cat_care_semantic_8.png"" class=""exp-image"">
                    <div class=""question-area""></div> 
                </div>","null","","","","","","","","","","","",""
"","","","","","html-button-response","116","695923","0.0-116.0","8C7EAE2BB6894644BB2220D74032427A","019cfc48-3944-7281-97e2-5e6ef6920139","019cfc28-2143-7934-89cc-ce6402563331","","587","
                <div class=""stimulus-container"">
                    <img src=""images/semantic_sequence/cat_care_semantic/cat_care_semantic_8.png"" class=""exp-image"">
                    <div class=""question-area"">
                        <p style=""font-size: 20px; font-weight: bold; margin: 0;"">Is there a person in this image?</p>
                    </div>
                </div>","0","main_experiment_trial","8","cat_care_semantic","semantic_sequence","chronological","","","","","","",""
"","","","","","html-keyboard-response","117","700933","0.0-117.0","8C7EAE2BB6894644BB2220D74032427A","019cfc48-3944-7281-97e2-5e6ef6920139","019cfc28-2143-7934-89cc-ce6402563331","","null","
                <div class=""stimulus-container"">
                    <img src=""images/semantic_sequence/cat_care_semantic/cat_care_semantic_9.png"" class=""exp-image"">
                    <div class=""question-area""></div> 
                </div>","null","","","","","","","","","","","",""
"","","","","","html-button-response","118","701499","0.0-118.0","8C7EAE2BB6894644BB2220D74032427A","019cfc48-3944-7281-97e2-5e6ef6920139","019cfc28-2143-7934-89cc-ce6402563331","","565","
                <div class=""stimulus-container"">
                    <img src=""images/semantic_sequence/cat_care_semantic/cat_care_semantic_9.png"" class=""exp-image"">
                    <div class=""question-area"">
                        <p style=""font-size: 20px; font-weight: bold; margin: 0;"">Is there a person in this image?</p>
                    </div>
                </div>","1","main_experiment_trial","9","cat_care_semantic","semantic_sequence","chronological","","","","","","",""
"","","","","","html-keyboard-response","119","706505","0.0-119.0","8C7EAE2BB6894644BB2220D74032427A","019cfc48-3944-7281-97e2-5e6ef6920139","019cfc28-2143-7934-89cc-ce6402563331","","null","
                <div class=""stimulus-container"">
                    <img src=""images/semantic_sequence/cat_care_semantic/cat_care_semantic_ten.png"" class=""exp-image"">
                    <div class=""question-area""></div> 
                </div>","null","","","","","","","","","","","",""
"","","","","","html-button-response","120","707003","0.0-120.0","8C7EAE2BB6894644BB2220D74032427A","019cfc48-3944-7281-97e2-5e6ef6920139","019cfc28-2143-7934-89cc-ce6402563331","","497","
                <div class=""stimulus-container"">
                    <img src=""images/semantic_sequence/cat_care_semantic/cat_care_semantic_ten.png"" class=""exp-image"">
                    <div class=""question-area"">
                        <p style=""font-size: 20px; font-weight: bold; margin: 0;"">Is there a person in this image?</p>
                    </div>
                </div>","1","main_experiment_trial","ten","cat_care_semantic","semantic_sequence","chronological","","","","","","",""
"","","","","","html-keyboard-response","121","712013","0.0-121.0","8C7EAE2BB6894644BB2220D74032427A","019cfc48-3944-7281-97e2-5e6ef6920139","019cfc28-2143-7934-89cc-ce6402563331","","null","<div style=""background-color: white; width: 100vw; height: 100vh;""></div>","null","","","","","","","","","","","",""
"","","","","","html-keyboard-response","122","717016","0.0-122.0","8C7EAE2BB6894644BB2220D74032427A","019cfc48-3944-7281-97e2-5e6ef6920139","019cfc28-2143-7934-89cc-ce6402563331","","null","
                <div class=""stimulus-container"">
                    <img src=""images/semantic_sequence/exploring_nature_semantic/exploring_nature_semantic_1.png"" class=""exp-image"">
                    <div class=""question-area""></div> 
                </div>","null","","","","","","","","","","","",""
"","","","","","html-button-response","123","718203","0.0-123.0","8C7EAE2BB6894644BB2220D74032427A","019cfc48-3944-7281-97e2-5e6ef6920139","019cfc28-2143-7934-89cc-ce6402563331","","1186","
                <div class=""stimulus-container"">
                    <img src=""images/semantic_sequence/exploring_nature_semantic/exploring_nature_semantic_1.png"" class=""exp-image"">
                    <div class=""question-area"">
                        <p style=""font-size: 20px; font-weight: bold; margin: 0;"">Is there a person in this image?</p>
                    </div>
                </div>","1","main_experiment_trial","1","exploring_nature_semantic","semantic_sequence","chronological","","","","","","",""
"","","","","","html-keyboard-response","124","723205","0.0-124.0","8C7EAE2BB6894644BB2220D74032427A","019cfc48-3944-7281-97e2-5e6ef6920139","019cfc28-2143-7934-89cc-ce6402563331","","null","
                <div class=""stimulus-container"">
                    <img src=""images/semantic_sequence/exploring_nature_semantic/exploring_nature_semantic_2.png"" class=""exp-image"">
                    <div class=""question-area""></div> 
                </div>","null","","","","","","","","","","","",""
"","","","","","html-button-response","125","723923","0.0-125.0","8C7EAE2BB6894644BB2220D74032427A","019cfc48-3944-7281-97e2-5e6ef6920139","019cfc28-2143-7934-89cc-ce6402563331","","716","
                <div class=""stimulus-container"">
                    <img src=""images/semantic_sequence/exploring_nature_semantic/exploring_nature_semantic_2.png"" class=""exp-image"">
                    <div class=""question-area"">
                        <p style=""font-size: 20px; font-weight: bold; margin: 0;"">Is there a person in this image?</p>
                    </div>
                </div>","1","main_experiment_trial","2","exploring_nature_semantic","semantic_sequence","chronological","","","","","","",""
"","","","","","html-keyboard-response","126","728926","0.0-126.0","8C7EAE2BB6894644BB2220D74032427A","019cfc48-3944-7281-97e2-5e6ef6920139","019cfc28-2143-7934-89cc-ce6402563331","","null","
                <div class=""stimulus-container"">
                    <img src=""images/semantic_sequence/exploring_nature_semantic/exploring_nature_semantic_3.png"" class=""exp-image"">
                    <div class=""question-area""></div> 
                </div>","null","","","","","","","","","","","",""
"","","","","","html-button-response","127","729796","0.0-127.0","8C7EAE2BB6894644BB2220D74032427A","019cfc48-3944-7281-97e2-5e6ef6920139","019cfc28-2143-7934-89cc-ce6402563331","","867","
                <div class=""stimulus-container"">
                    <img src=""images/semantic_sequence/exploring_nature_semantic/exploring_nature_semantic_3.png"" class=""exp-image"">
                    <div class=""question-area"">
                        <p style=""font-size: 20px; font-weight: bold; margin: 0;"">Is there a person in this image?</p>
                    </div>
                </div>","1","main_experiment_trial","3","exploring_nature_semantic","semantic_sequence","chronological","","","","","","",""
"","","","","","html-keyboard-response","128","734801","0.0-128.0","8C7EAE2BB6894644BB2220D74032427A","019cfc48-3944-7281-97e2-5e6ef6920139","019cfc28-2143-7934-89cc-ce6402563331","","null","
                <div class=""stimulus-container"">
                    <img src=""images/semantic_sequence/exploring_nature_semantic/exploring_nature_semantic_4.png"" class=""exp-image"">
                    <div class=""question-area""></div> 
                </div>","null","","","","","","","","","","","",""
"","","","","","html-button-response","129","735339","0.0-129.0","8C7EAE2BB6894644BB2220D74032427A","019cfc48-3944-7281-97e2-5e6ef6920139","019cfc28-2143-7934-89cc-ce6402563331","","537","
                <div class=""stimulus-container"">
                    <img src=""images/semantic_sequence/exploring_nature_semantic/exploring_nature_semantic_4.png"" class=""exp-image"">
                    <div class=""question-area"">
                        <p style=""font-size: 20px; font-weight: bold; margin: 0;"">Is there a person in this image?</p>
                    </div>
                </div>","1","main_experiment_trial","4","exploring_nature_semantic","semantic_sequence","chronological","","","","","","",""
"","","","","","html-keyboard-response","130","740341","0.0-130.0","8C7EAE2BB6894644BB2220D74032427A","019cfc48-3944-7281-97e2-5e6ef6920139","019cfc28-2143-7934-89cc-ce6402563331","","null","
                <div class=""stimulus-container"">
                    <img src=""images/semantic_sequence/exploring_nature_semantic/exploring_nature_semantic_5.png"" class=""exp-image"">
                    <div class=""question-area""></div> 
                </div>","null","","","","","","","","","","","",""
"","","","","","html-button-response","131","741043","0.0-131.0","8C7EAE2BB6894644BB2220D74032427A","019cfc48-3944-7281-97e2-5e6ef6920139","019cfc28-2143-7934-89cc-ce6402563331","","701","
                <div class=""stimulus-container"">
                    <img src=""images/semantic_sequence/exploring_nature_semantic/exploring_nature_semantic_5.png"" class=""exp-image"">
                    <div class=""question-area"">
                        <p style=""font-size: 20px; font-weight: bold; margin: 0;"">Is there a person in this image?</p>
                    </div>
                </div>","1","main_experiment_trial","5","exploring_nature_semantic","semantic_sequence","chronological","","","","","","",""
"","","","","","html-keyboard-response","132","746054","0.0-132.0","8C7EAE2BB6894644BB2220D74032427A","019cfc48-3944-7281-97e2-5e6ef6920139","019cfc28-2143-7934-89cc-ce6402563331","","null","
                <div class=""stimulus-container"">
                    <img src=""images/semantic_sequence/exploring_nature_semantic/exploring_nature_semantic_6.png"" class=""exp-image"">
                    <div class=""question-area""></div> 
                </div>","null","","","","","","","","","","","",""
"","","","","","html-button-response","133","746628","0.0-133.0","8C7EAE2BB6894644BB2220D74032427A","019cfc48-3944-7281-97e2-5e6ef6920139","019cfc28-2143-7934-89cc-ce6402563331","","571","
                <div class=""stimulus-container"">
                    <img src=""images/semantic_sequence/exploring_nature_semantic/exploring_nature_semantic_6.png"" class=""exp-image"">
                    <div class=""question-area"">
                        <p style=""font-size: 20px; font-weight: bold; margin: 0;"">Is there a person in this image?</p>
                    </div>
                </div>","1","main_experiment_trial","6","exploring_nature_semantic","semantic_sequence","chronological","","","","","","",""
"","","","","","html-keyboard-response","134","751639","0.0-134.0","8C7EAE2BB6894644BB2220D74032427A","019cfc48-3944-7281-97e2-5e6ef6920139","019cfc28-2143-7934-89cc-ce6402563331","","null","
                <div class=""stimulus-container"">
                    <img src=""images/semantic_sequence/exploring_nature_semantic/exploring_nature_semantic_7.png"" class=""exp-image"">
                    <div class=""question-area""></div> 
                </div>","null","","","","","","","","","","","",""
"","","","","","html-button-response","135","752388","0.0-135.0","8C7EAE2BB6894644BB2220D74032427A","019cfc48-3944-7281-97e2-5e6ef6920139","019cfc28-2143-7934-89cc-ce6402563331","","746","
                <div class=""stimulus-container"">
                    <img src=""images/semantic_sequence/exploring_nature_semantic/exploring_nature_semantic_7.png"" class=""exp-image"">
                    <div class=""question-area"">
                        <p style=""font-size: 20px; font-weight: bold; margin: 0;"">Is there a person in this image?</p>
                    </div>
                </div>","1","main_experiment_trial","7","exploring_nature_semantic","semantic_sequence","chronological","","","","","","",""
"","","","","","html-keyboard-response","136","757393","0.0-136.0","8C7EAE2BB6894644BB2220D74032427A","019cfc48-3944-7281-97e2-5e6ef6920139","019cfc28-2143-7934-89cc-ce6402563331","","null","
                <div class=""stimulus-container"">
                    <img src=""images/semantic_sequence/exploring_nature_semantic/exploring_nature_semantic_8.png"" class=""exp-image"">
                    <div class=""question-area""></div> 
                </div>","null","","","","","","","","","","","",""
"","","","","","html-button-response","137","759716","0.0-137.0","8C7EAE2BB6894644BB2220D74032427A","019cfc48-3944-7281-97e2-5e6ef6920139","019cfc28-2143-7934-89cc-ce6402563331","","2320","
                <div class=""stimulus-container"">
                    <img src=""images/semantic_sequence/exploring_nature_semantic/exploring_nature_semantic_8.png"" class=""exp-image"">
                    <div class=""question-area"">
                        <p style=""font-size: 20px; font-weight: bold; margin: 0;"">Is there a person in this image?</p>
                    </div>
                </div>","1","main_experiment_trial","8","exploring_nature_semantic","semantic_sequence","chronological","","","","","","",""
"","","","","","html-keyboard-response","138","764719","0.0-138.0","8C7EAE2BB6894644BB2220D74032427A","019cfc48-3944-7281-97e2-5e6ef6920139","019cfc28-2143-7934-89cc-ce6402563331","","null","
                <div class=""stimulus-container"">
                    <img src=""images/semantic_sequence/exploring_nature_semantic/exploring_nature_semantic_9.png"" class=""exp-image"">
                    <div class=""question-area""></div> 
                </div>","null","","","","","","","","","","","",""
"","","","","","html-button-response","139","767724","0.0-139.0","8C7EAE2BB6894644BB2220D74032427A","019cfc48-3944-7281-97e2-5e6ef6920139","019cfc28-2143-7934-89cc-ce6402563331","","null","
                <div class=""stimulus-container"">
                    <img src=""images/semantic_sequence/exploring_nature_semantic/exploring_nature_semantic_9.png"" class=""exp-image"">
                    <div class=""question-area"">
                        <p style=""font-size: 20px; font-weight: bold; margin: 0;"">Is there a person in this image?</p>
                    </div>
                </div>","null","main_experiment_trial","9","exploring_nature_semantic","semantic_sequence","chronological","","","","","","",""
"","","","","","html-keyboard-response","140","772740","0.0-140.0","8C7EAE2BB6894644BB2220D74032427A","019cfc48-3944-7281-97e2-5e6ef6920139","019cfc28-2143-7934-89cc-ce6402563331","","null","
                <div class=""stimulus-container"">
                    <img src=""images/semantic_sequence/exploring_nature_semantic/exploring_nature_semantic_ten.png"" class=""exp-image"">
                    <div class=""question-area""></div> 
                </div>","null","","","","","","","","","","","",""
"","","","","","html-button-response","141","774755","0.0-141.0","8C7EAE2BB6894644BB2220D74032427A","019cfc48-3944-7281-97e2-5e6ef6920139","019cfc28-2143-7934-89cc-ce6402563331","","2013","
                <div class=""stimulus-container"">
                    <img src=""images/semantic_sequence/exploring_nature_semantic/exploring_nature_semantic_ten.png"" class=""exp-image"">
                    <div class=""question-area"">
                        <p style=""font-size: 20px; font-weight: bold; margin: 0;"">Is there a person in this image?</p>
                    </div>
                </div>","1","main_experiment_trial","ten","exploring_nature_semantic","semantic_sequence","chronological","","","","","","",""
"","","","","","html-keyboard-response","142","779767","0.0-142.0","8C7EAE2BB6894644BB2220D74032427A","019cfc48-3944-7281-97e2-5e6ef6920139","019cfc28-2143-7934-89cc-ce6402563331","","null","<div style=""background-color: white; width: 100vw; height: 100vh;""></div>","null","","","","","","","","","","","",""
"","","","","","html-keyboard-response","143","784776","0.0-143.0","8C7EAE2BB6894644BB2220D74032427A","019cfc48-3944-7281-97e2-5e6ef6920139","019cfc28-2143-7934-89cc-ce6402563331","","null","
                <div class=""stimulus-container"">
                    <img src=""images/semantic_sequence/physical_activity_semantic/physical_activity_semantic_1.png"" class=""exp-image"">
                    <div class=""question-area""></div> 
                </div>","null","","","","","","","","","","","",""
"","","","","","html-button-response","144","785891","0.0-144.0","8C7EAE2BB6894644BB2220D74032427A","019cfc48-3944-7281-97e2-5e6ef6920139","019cfc28-2143-7934-89cc-ce6402563331","","1113","
                <div class=""stimulus-container"">
                    <img src=""images/semantic_sequence/physical_activity_semantic/physical_activity_semantic_1.png"" class=""exp-image"">
                    <div class=""question-area"">
                        <p style=""font-size: 20px; font-weight: bold; margin: 0;"">Is there a person in this image?</p>
                    </div>
                </div>","1","main_experiment_trial","1","physical_activity_semantic","semantic_sequence","chronological","","","","","","",""
"","","","","","html-keyboard-response","145","790893","0.0-145.0","8C7EAE2BB6894644BB2220D74032427A","019cfc48-3944-7281-97e2-5e6ef6920139","019cfc28-2143-7934-89cc-ce6402563331","","null","
                <div class=""stimulus-container"">
                    <img src=""images/semantic_sequence/physical_activity_semantic/physical_activity_semantic_2.png"" class=""exp-image"">
                    <div class=""question-area""></div> 
                </div>","null","","","","","","","","","","","",""
"","","","","","html-button-response","146","791620","0.0-146.0","8C7EAE2BB6894644BB2220D74032427A","019cfc48-3944-7281-97e2-5e6ef6920139","019cfc28-2143-7934-89cc-ce6402563331","","726","
                <div class=""stimulus-container"">
                    <img src=""images/semantic_sequence/physical_activity_semantic/physical_activity_semantic_2.png"" class=""exp-image"">
                    <div class=""question-area"">
                        <p style=""font-size: 20px; font-weight: bold; margin: 0;"">Is there a person in this image?</p>
                    </div>
                </div>","0","main_experiment_trial","2","physical_activity_semantic","semantic_sequence","chronological","","","","","","",""
"","","","","","html-keyboard-response","147","796629","0.0-147.0","8C7EAE2BB6894644BB2220D74032427A","019cfc48-3944-7281-97e2-5e6ef6920139","019cfc28-2143-7934-89cc-ce6402563331","","null","
                <div class=""stimulus-container"">
                    <img src=""images/semantic_sequence/physical_activity_semantic/physical_activity_semantic_3.png"" class=""exp-image"">
                    <div class=""question-area""></div> 
                </div>","null","","","","","","","","","","","",""
"","","","","","html-button-response","148","799644","0.0-148.0","8C7EAE2BB6894644BB2220D74032427A","019cfc48-3944-7281-97e2-5e6ef6920139","019cfc28-2143-7934-89cc-ce6402563331","","null","
                <div class=""stimulus-container"">
                    <img src=""images/semantic_sequence/physical_activity_semantic/physical_activity_semantic_3.png"" class=""exp-image"">
                    <div class=""question-area"">
                        <p style=""font-size: 20px; font-weight: bold; margin: 0;"">Is there a person in this image?</p>
                    </div>
                </div>","null","main_experiment_trial","3","physical_activity_semantic","semantic_sequence","chronological","","","","","","",""
"","","","","","html-keyboard-response","149","804652","0.0-149.0","8C7EAE2BB6894644BB2220D74032427A","019cfc48-3944-7281-97e2-5e6ef6920139","019cfc28-2143-7934-89cc-ce6402563331","","null","
                <div class=""stimulus-container"">
                    <img src=""images/semantic_sequence/physical_activity_semantic/physical_activity_semantic_4.png"" class=""exp-image"">
                    <div class=""question-area""></div> 
                </div>","null","","","","","","","","","","","",""
"","","","","","html-button-response","150","806907","0.0-150.0","8C7EAE2BB6894644BB2220D74032427A","019cfc48-3944-7281-97e2-5e6ef6920139","019cfc28-2143-7934-89cc-ce6402563331","","2253","
                <div class=""stimulus-container"">
                    <img src=""images/semantic_sequence/physical_activity_semantic/physical_activity_semantic_4.png"" class=""exp-image"">
                    <div class=""question-area"">
                        <p style=""font-size: 20px; font-weight: bold; margin: 0;"">Is there a person in this image?</p>
                    </div>
                </div>","1","main_experiment_trial","4","physical_activity_semantic","semantic_sequence","chronological","","","","","","",""
"","","","","","html-keyboard-response","151","811924","0.0-151.0","8C7EAE2BB6894644BB2220D74032427A","019cfc48-3944-7281-97e2-5e6ef6920139","019cfc28-2143-7934-89cc-ce6402563331","","null","
                <div class=""stimulus-container"">
                    <img src=""images/semantic_sequence/physical_activity_semantic/physical_activity_semantic_5.png"" class=""exp-image"">
                    <div class=""question-area""></div> 
                </div>","null","","","","","","","","","","","",""
"","","","","","html-button-response","152","812931","0.0-152.0","8C7EAE2BB6894644BB2220D74032427A","019cfc48-3944-7281-97e2-5e6ef6920139","019cfc28-2143-7934-89cc-ce6402563331","","1005","
                <div class=""stimulus-container"">
                    <img src=""images/semantic_sequence/physical_activity_semantic/physical_activity_semantic_5.png"" class=""exp-image"">
                    <div class=""question-area"">
                        <p style=""font-size: 20px; font-weight: bold; margin: 0;"">Is there a person in this image?</p>
                    </div>
                </div>","1","main_experiment_trial","5","physical_activity_semantic","semantic_sequence","chronological","","","","","","",""
"","","","","","html-keyboard-response","153","817940","0.0-153.0","8C7EAE2BB6894644BB2220D74032427A","019cfc48-3944-7281-97e2-5e6ef6920139","019cfc28-2143-7934-89cc-ce6402563331","","null","
                <div class=""stimulus-container"">
                    <img src=""images/semantic_sequence/physical_activity_semantic/physical_activity_semantic_6.png"" class=""exp-image"">
                    <div class=""question-area""></div> 
                </div>","null","","","","","","","","","","","",""
"","","","","","html-button-response","154","818611","0.0-154.0","8C7EAE2BB6894644BB2220D74032427A","019cfc48-3944-7281-97e2-5e6ef6920139","019cfc28-2143-7934-89cc-ce6402563331","","668","
                <div class=""stimulus-container"">
                    <img src=""images/semantic_sequence/physical_activity_semantic/physical_activity_semantic_6.png"" class=""exp-image"">
                    <div class=""question-area"">
                        <p style=""font-size: 20px; font-weight: bold; margin: 0;"">Is there a person in this image?</p>
                    </div>
                </div>","1","main_experiment_trial","6","physical_activity_semantic","semantic_sequence","chronological","","","","","","",""
"","","","","","html-keyboard-response","155","823620","0.0-155.0","8C7EAE2BB6894644BB2220D74032427A","019cfc48-3944-7281-97e2-5e6ef6920139","019cfc28-2143-7934-89cc-ce6402563331","","null","
                <div class=""stimulus-container"">
                    <img src=""images/semantic_sequence/physical_activity_semantic/physical_activity_semantic_7.png"" class=""exp-image"">
                    <div class=""question-area""></div> 
                </div>","null","","","","","","","","","","","",""
"","","","","","html-button-response","156","824467","0.0-156.0","8C7EAE2BB6894644BB2220D74032427A","019cfc48-3944-7281-97e2-5e6ef6920139","019cfc28-2143-7934-89cc-ce6402563331","","845","
                <div class=""stimulus-container"">
                    <img src=""images/semantic_sequence/physical_activity_semantic/physical_activity_semantic_7.png"" class=""exp-image"">
                    <div class=""question-area"">
                        <p style=""font-size: 20px; font-weight: bold; margin: 0;"">Is there a person in this image?</p>
                    </div>
                </div>","1","main_experiment_trial","7","physical_activity_semantic","semantic_sequence","chronological","","","","","","",""
"","","","","","html-keyboard-response","157","829471","0.0-157.0","8C7EAE2BB6894644BB2220D74032427A","019cfc48-3944-7281-97e2-5e6ef6920139","019cfc28-2143-7934-89cc-ce6402563331","","null","
                <div class=""stimulus-container"">
                    <img src=""images/semantic_sequence/physical_activity_semantic/physical_activity_semantic_8.png"" class=""exp-image"">
                    <div class=""question-area""></div> 
                </div>","null","","","","","","","","","","","",""
"","","","","","html-button-response","158","830307","0.0-158.0","8C7EAE2BB6894644BB2220D74032427A","019cfc48-3944-7281-97e2-5e6ef6920139","019cfc28-2143-7934-89cc-ce6402563331","","834","
                <div class=""stimulus-container"">
                    <img src=""images/semantic_sequence/physical_activity_semantic/physical_activity_semantic_8.png"" class=""exp-image"">
                    <div class=""question-area"">
                        <p style=""font-size: 20px; font-weight: bold; margin: 0;"">Is there a person in this image?</p>
                    </div>
                </div>","1","main_experiment_trial","8","physical_activity_semantic","semantic_sequence","chronological","","","","","","",""
"","","","","","html-keyboard-response","159","835314","0.0-159.0","8C7EAE2BB6894644BB2220D74032427A","019cfc48-3944-7281-97e2-5e6ef6920139","019cfc28-2143-7934-89cc-ce6402563331","","null","
                <div class=""stimulus-container"">
                    <img src=""images/semantic_sequence/physical_activity_semantic/physical_activity_semantic_9.png"" class=""exp-image"">
                    <div class=""question-area""></div> 
                </div>","null","","","","","","","","","","","",""
"","","","","","html-button-response","160","836243","0.0-160.0","8C7EAE2BB6894644BB2220D74032427A","019cfc48-3944-7281-97e2-5e6ef6920139","019cfc28-2143-7934-89cc-ce6402563331","","927","
                <div class=""stimulus-container"">
                    <img src=""images/semantic_sequence/physical_activity_semantic/physical_activity_semantic_9.png"" class=""exp-image"">
                    <div class=""question-area"">
                        <p style=""font-size: 20px; font-weight: bold; margin: 0;"">Is there a person in this image?</p>
                    </div>
                </div>","1","main_experiment_trial","9","physical_activity_semantic","semantic_sequence","chronological","","","","","","",""
"","","","","","html-keyboard-response","161","841244","0.0-161.0","8C7EAE2BB6894644BB2220D74032427A","019cfc48-3944-7281-97e2-5e6ef6920139","019cfc28-2143-7934-89cc-ce6402563331","","null","
                <div class=""stimulus-container"">
                    <img src=""images/semantic_sequence/physical_activity_semantic/physical_activity_semantic_ten.png"" class=""exp-image"">
                    <div class=""question-area""></div> 
                </div>","null","","","","","","","","","","","",""
"","","","","","html-button-response","162","842243","0.0-162.0","8C7EAE2BB6894644BB2220D74032427A","019cfc48-3944-7281-97e2-5e6ef6920139","019cfc28-2143-7934-89cc-ce6402563331","","997","
                <div class=""stimulus-container"">
                    <img src=""images/semantic_sequence/physical_activity_semantic/physical_activity_semantic_ten.png"" class=""exp-image"">
                    <div class=""question-area"">
                        <p style=""font-size: 20px; font-weight: bold; margin: 0;"">Is there a person in this image?</p>
                    </div>
                </div>","1","main_experiment_trial","ten","physical_activity_semantic","semantic_sequence","chronological","","","","","","",""
"","","","","","html-keyboard-response","163","847253","0.0-163.0","8C7EAE2BB6894644BB2220D74032427A","019cfc48-3944-7281-97e2-5e6ef6920139","019cfc28-2143-7934-89cc-ce6402563331","","null","<div style=""background-color: white; width: 100vw; height: 100vh;""></div>","null","","","","","","","","","","","",""
"","","","","","html-keyboard-response","164","852262","0.0-164.0","8C7EAE2BB6894644BB2220D74032427A","019cfc48-3944-7281-97e2-5e6ef6920139","019cfc28-2143-7934-89cc-ce6402563331","","null","
                <div class=""stimulus-container"">
                    <img src=""images/schematic_sequence/supermarket_scheme/supermarket_scheme_1.png"" class=""exp-image"">
                    <div class=""question-area""></div> 
                </div>","null","","","","","","","","","","","",""
"","","","","","html-button-response","165","853243","0.0-165.0","8C7EAE2BB6894644BB2220D74032427A","019cfc48-3944-7281-97e2-5e6ef6920139","019cfc28-2143-7934-89cc-ce6402563331","","978","
                <div class=""stimulus-container"">
                    <img src=""images/schematic_sequence/supermarket_scheme/supermarket_scheme_1.png"" class=""exp-image"">
                    <div class=""question-area"">
                        <p style=""font-size: 20px; font-weight: bold; margin: 0;"">Is there a person in this image?</p>
                    </div>
                </div>","1","main_experiment_trial","1","supermarket_scheme","schematic_sequence","chronological","","","","","","",""
"","","","","","html-keyboard-response","166","858252","0.0-166.0","8C7EAE2BB6894644BB2220D74032427A","019cfc48-3944-7281-97e2-5e6ef6920139","019cfc28-2143-7934-89cc-ce6402563331","","null","
                <div class=""stimulus-container"">
                    <img src=""images/schematic_sequence/supermarket_scheme/supermarket_scheme_2.png"" class=""exp-image"">
                    <div class=""question-area""></div> 
                </div>","null","","","","","","","","","","","",""
"","","","","","html-button-response","167","858707","0.0-167.0","8C7EAE2BB6894644BB2220D74032427A","019cfc48-3944-7281-97e2-5e6ef6920139","019cfc28-2143-7934-89cc-ce6402563331","","453","
                <div class=""stimulus-container"">
                    <img src=""images/schematic_sequence/supermarket_scheme/supermarket_scheme_2.png"" class=""exp-image"">
                    <div class=""question-area"">
                        <p style=""font-size: 20px; font-weight: bold; margin: 0;"">Is there a person in this image?</p>
                    </div>
                </div>","1","main_experiment_trial","2","supermarket_scheme","schematic_sequence","chronological","","","","","","",""
"","","","","","html-keyboard-response","168","863711","0.0-168.0","8C7EAE2BB6894644BB2220D74032427A","019cfc48-3944-7281-97e2-5e6ef6920139","019cfc28-2143-7934-89cc-ce6402563331","","null","
                <div class=""stimulus-container"">
                    <img src=""images/schematic_sequence/supermarket_scheme/supermarket_scheme_3.png"" class=""exp-image"">
                    <div class=""question-area""></div> 
                </div>","null","","","","","","","","","","","",""
"","","","","","html-button-response","169","864315","0.0-169.0","8C7EAE2BB6894644BB2220D74032427A","019cfc48-3944-7281-97e2-5e6ef6920139","019cfc28-2143-7934-89cc-ce6402563331","","602","
                <div class=""stimulus-container"">
                    <img src=""images/schematic_sequence/supermarket_scheme/supermarket_scheme_3.png"" class=""exp-image"">
                    <div class=""question-area"">
                        <p style=""font-size: 20px; font-weight: bold; margin: 0;"">Is there a person in this image?</p>
                    </div>
                </div>","1","main_experiment_trial","3","supermarket_scheme","schematic_sequence","chronological","","","","","","",""
"","","","","","html-keyboard-response","170","869330","0.0-170.0","8C7EAE2BB6894644BB2220D74032427A","019cfc48-3944-7281-97e2-5e6ef6920139","019cfc28-2143-7934-89cc-ce6402563331","","null","
                <div class=""stimulus-container"">
                    <img src=""images/schematic_sequence/supermarket_scheme/supermarket_scheme_4.png"" class=""exp-image"">
                    <div class=""question-area""></div> 
                </div>","null","","","","","","","","","","","",""
"","","","","","html-button-response","171","871228","0.0-171.0","8C7EAE2BB6894644BB2220D74032427A","019cfc48-3944-7281-97e2-5e6ef6920139","019cfc28-2143-7934-89cc-ce6402563331","","1896","
                <div class=""stimulus-container"">
                    <img src=""images/schematic_sequence/supermarket_scheme/supermarket_scheme_4.png"" class=""exp-image"">
                    <div class=""question-area"">
                        <p style=""font-size: 20px; font-weight: bold; margin: 0;"">Is there a person in this image?</p>
                    </div>
                </div>","0","main_experiment_trial","4","supermarket_scheme","schematic_sequence","chronological","","","","","","",""
"","","","","","html-keyboard-response","172","876237","0.0-172.0","8C7EAE2BB6894644BB2220D74032427A","019cfc48-3944-7281-97e2-5e6ef6920139","019cfc28-2143-7934-89cc-ce6402563331","","null","
                <div class=""stimulus-container"">
                    <img src=""images/schematic_sequence/supermarket_scheme/supermarket_scheme_5.png"" class=""exp-image"">
                    <div class=""question-area""></div> 
                </div>","null","","","","","","","","","","","",""
"","","","","","html-button-response","173","876987","0.0-173.0","8C7EAE2BB6894644BB2220D74032427A","019cfc48-3944-7281-97e2-5e6ef6920139","019cfc28-2143-7934-89cc-ce6402563331","","749","
                <div class=""stimulus-container"">
                    <img src=""images/schematic_sequence/supermarket_scheme/supermarket_scheme_5.png"" class=""exp-image"">
                    <div class=""question-area"">
                        <p style=""font-size: 20px; font-weight: bold; margin: 0;"">Is there a person in this image?</p>
                    </div>
                </div>","1","main_experiment_trial","5","supermarket_scheme","schematic_sequence","chronological","","","","","","",""
"","","","","","html-keyboard-response","174","881997","0.0-174.0","8C7EAE2BB6894644BB2220D74032427A","019cfc48-3944-7281-97e2-5e6ef6920139","019cfc28-2143-7934-89cc-ce6402563331","","null","
                <div class=""stimulus-container"">
                    <img src=""images/schematic_sequence/supermarket_scheme/supermarket_scheme_6.png"" class=""exp-image"">
                    <div class=""question-area""></div> 
                </div>","null","","","","","","","","","","","",""
"","","","","","html-button-response","175","882771","0.0-175.0","8C7EAE2BB6894644BB2220D74032427A","019cfc48-3944-7281-97e2-5e6ef6920139","019cfc28-2143-7934-89cc-ce6402563331","","772","
                <div class=""stimulus-container"">
                    <img src=""images/schematic_sequence/supermarket_scheme/supermarket_scheme_6.png"" class=""exp-image"">
                    <div class=""question-area"">
                        <p style=""font-size: 20px; font-weight: bold; margin: 0;"">Is there a person in this image?</p>
                    </div>
                </div>","0","main_experiment_trial","6","supermarket_scheme","schematic_sequence","chronological","","","","","","",""
