"success","timeout","failed_images","failed_audio","failed_video","trial_type","trial_index","time_elapsed","internal_node_id","subject_id","study_id","session_id","view_history","rt","stimulus","response","task","image_index","folder","sequence_type","valuable_image_index","reward_type","lucky_X","chosen_image_index","valuable_folder","neutral_folder","correct_choice"
"true","false","[]","[]","[]","preload","0","12750","0.0-0.0","DA054711DEA64AF0955AB1E6102A531A","019cedd3-4ef9-712b-a1c6-d0d7d8cc024e","019cedc9-bfe1-7bb5-8857-de065a1e03dd","","","","","","","","","","","","","","",""
"","","","","","instructions","1","1126438","0.0-1.0","DA054711DEA64AF0955AB1E6102A531A","019cedd3-4ef9-712b-a1c6-d0d7d8cc024e","019cedc9-bfe1-7bb5-8857-de065a1e03dd","[{""page_index"":0,""viewing_time"":1113687}]","1113688","","","","","","","","","","","","",""
"","","","","","instructions","2","1129028","0.0-2.0","DA054711DEA64AF0955AB1E6102A531A","019cedd3-4ef9-712b-a1c6-d0d7d8cc024e","019cedc9-bfe1-7bb5-8857-de065a1e03dd","[{""page_index"":0,""viewing_time"":2589}]","2589","","","","","","","","","","","","",""
"true","","","","","fullscreen","3","1131432","0.0-3.0","DA054711DEA64AF0955AB1E6102A531A","019cedd3-4ef9-712b-a1c6-d0d7d8cc024e","019cedc9-bfe1-7bb5-8857-de065a1e03dd","","1391","","","","","","","","","","","","",""
"","","","","","instructions","4","1136607","0.0-4.0","DA054711DEA64AF0955AB1E6102A531A","019cedd3-4ef9-712b-a1c6-d0d7d8cc024e","019cedc9-bfe1-7bb5-8857-de065a1e03dd","[{""page_index"":0,""viewing_time"":5174}]","5175","","","","","","","","","","","","",""
"","","","","","instructions","5","1138801","0.0-5.0","DA054711DEA64AF0955AB1E6102A531A","019cedd3-4ef9-712b-a1c6-d0d7d8cc024e","019cedc9-bfe1-7bb5-8857-de065a1e03dd","[{""page_index"":0,""viewing_time"":2193}]","2193","","","","","","","","","","","","",""
"","","","","","html-keyboard-response","6","1142814","0.0-6.0","DA054711DEA64AF0955AB1E6102A531A","019cedd3-4ef9-712b-a1c6-d0d7d8cc024e","019cedc9-bfe1-7bb5-8857-de065a1e03dd","","null","
                <div class=""stimulus-container"">
                    <img src=""images/instructions/movie_1.png"" class=""exp-image"">
                    <div class=""question-area""></div> 
                </div>","null","","","","","","","","","","",""
"","","","","","html-button-response","7","1144668","0.0-7.0","DA054711DEA64AF0955AB1E6102A531A","019cedd3-4ef9-712b-a1c6-d0d7d8cc024e","019cedc9-bfe1-7bb5-8857-de065a1e03dd","","1852","
                <div class=""stimulus-container"">
                    <img src=""images/instructions/movie_1.png"" class=""exp-image"">
                    <div class=""question-area"">
                        <p style=""font-size: 20px; font-weight: bold; margin: 0;"">Was there a person in this image?</p>
                    </div>
                </div>","0","example_question","1","","","","","","","","",""
"","","","","","html-keyboard-response","8","1148677","0.0-8.0","DA054711DEA64AF0955AB1E6102A531A","019cedd3-4ef9-712b-a1c6-d0d7d8cc024e","019cedc9-bfe1-7bb5-8857-de065a1e03dd","","null","
                <div class=""stimulus-container"">
                    <img src=""images/instructions/movie_2.png"" class=""exp-image"">
                    <div class=""question-area""></div> 
                </div>","null","","","","","","","","","","",""
"","","","","","html-button-response","9","1149925","0.0-9.0","DA054711DEA64AF0955AB1E6102A531A","019cedd3-4ef9-712b-a1c6-d0d7d8cc024e","019cedc9-bfe1-7bb5-8857-de065a1e03dd","","1248","
                <div class=""stimulus-container"">
                    <img src=""images/instructions/movie_2.png"" class=""exp-image"">
                    <div class=""question-area"">
                        <p style=""font-size: 20px; font-weight: bold; margin: 0;"">Was there a person in this image?</p>
                    </div>
                </div>","0","example_question","2","","","","","","","","",""
"","","","","","html-keyboard-response","10","1153929","0.0-10.0","DA054711DEA64AF0955AB1E6102A531A","019cedd3-4ef9-712b-a1c6-d0d7d8cc024e","019cedc9-bfe1-7bb5-8857-de065a1e03dd","","null","
                <div class=""stimulus-container"">
                    <img src=""images/instructions/movie_3.png"" class=""exp-image"">
                    <div class=""question-area""></div> 
                </div>","null","","","","","","","","","","",""
"","","","","","html-button-response","11","1154818","0.0-11.0","DA054711DEA64AF0955AB1E6102A531A","019cedd3-4ef9-712b-a1c6-d0d7d8cc024e","019cedc9-bfe1-7bb5-8857-de065a1e03dd","","887","
                <div class=""stimulus-container"">
                    <img src=""images/instructions/movie_3.png"" class=""exp-image"">
                    <div class=""question-area"">
                        <p style=""font-size: 20px; font-weight: bold; margin: 0;"">Was there a person in this image?</p>
                    </div>
                </div>","0","example_question","3","","","","","","","","",""
"","","","","","html-keyboard-response","12","1158820","0.0-12.0","DA054711DEA64AF0955AB1E6102A531A","019cedd3-4ef9-712b-a1c6-d0d7d8cc024e","019cedc9-bfe1-7bb5-8857-de065a1e03dd","","null","
                <div class=""stimulus-container"">
                    <img src=""images/instructions/movie_4.png"" class=""exp-image"">
                    <div class=""question-area""></div> 
                </div>","null","","","","","","","","","","",""
"","","","","","html-button-response","13","1161834","0.0-13.0","DA054711DEA64AF0955AB1E6102A531A","019cedd3-4ef9-712b-a1c6-d0d7d8cc024e","019cedc9-bfe1-7bb5-8857-de065a1e03dd","","null","
                <div class=""stimulus-container"">
                    <img src=""images/instructions/movie_4.png"" class=""exp-image"">
                    <div class=""question-area"">
                        <p style=""font-size: 20px; font-weight: bold; margin: 0;"">Was there a person in this image?</p>
                    </div>
                </div>","null","example_question","4","","","","","","","","",""
"","","","","","instructions","14","1166565","0.0-14.0","DA054711DEA64AF0955AB1E6102A531A","019cedd3-4ef9-712b-a1c6-d0d7d8cc024e","019cedc9-bfe1-7bb5-8857-de065a1e03dd","[{""page_index"":0,""viewing_time"":4730}]","4730","","","","","","","","","","","","",""
"","","","","","instructions","15","1195191","0.0-15.0","DA054711DEA64AF0955AB1E6102A531A","019cedd3-4ef9-712b-a1c6-d0d7d8cc024e","019cedc9-bfe1-7bb5-8857-de065a1e03dd","[{""page_index"":0,""viewing_time"":28625}]","28626","","","","","","","","","","","","",""
"","","","","","html-keyboard-response","16","1196193","0.0-16.0","DA054711DEA64AF0955AB1E6102A531A","019cedd3-4ef9-712b-a1c6-d0d7d8cc024e","019cedc9-bfe1-7bb5-8857-de065a1e03dd","","null","<div style=""background-color: white; width: 100vw; height: 100vh;""></div>","null","","","","","","","","","","",""
"","","","","","html-keyboard-response","17","1201205","0.0-17.0","DA054711DEA64AF0955AB1E6102A531A","019cedd3-4ef9-712b-a1c6-d0d7d8cc024e","019cedc9-bfe1-7bb5-8857-de065a1e03dd","","null","
                <div class=""stimulus-container"">
                    <img src=""images/causal_sequence/dog_causal/dog_causal_1.png"" class=""exp-image"">
                    <div class=""question-area""></div> 
                </div>","null","","","","","","","","","","",""
"","","","","","html-button-response","18","1203757","0.0-18.0","DA054711DEA64AF0955AB1E6102A531A","019cedd3-4ef9-712b-a1c6-d0d7d8cc024e","019cedc9-bfe1-7bb5-8857-de065a1e03dd","","2551","
                <div class=""stimulus-container"">
                    <img src=""images/causal_sequence/dog_causal/dog_causal_1.png"" class=""exp-image"">
                    <div class=""question-area"">
                        <p style=""font-size: 20px; font-weight: bold; margin: 0;"">Is there a person in this image?</p>
                    </div>
                </div>","0","main_experiment_trial","1","dog_causal","causal_sequence","","","","","","",""
"","","","","","html-keyboard-response","19","1208758","0.0-19.0","DA054711DEA64AF0955AB1E6102A531A","019cedd3-4ef9-712b-a1c6-d0d7d8cc024e","019cedc9-bfe1-7bb5-8857-de065a1e03dd","","null","
                <div class=""stimulus-container"">
                    <img src=""images/causal_sequence/dog_causal/dog_causal_2.png"" class=""exp-image"">
                    <div class=""question-area""></div> 
                </div>","null","","","","","","","","","","",""
"","","","","","html-button-response","20","1208876","0.0-20.0","DA054711DEA64AF0955AB1E6102A531A","019cedd3-4ef9-712b-a1c6-d0d7d8cc024e","019cedc9-bfe1-7bb5-8857-de065a1e03dd","","117","
                <div class=""stimulus-container"">
                    <img src=""images/causal_sequence/dog_causal/dog_causal_2.png"" class=""exp-image"">
                    <div class=""question-area"">
                        <p style=""font-size: 20px; font-weight: bold; margin: 0;"">Is there a person in this image?</p>
                    </div>
                </div>","0","main_experiment_trial","2","dog_causal","causal_sequence","","","","","","",""
"","","","","","html-keyboard-response","21","1213886","0.0-21.0","DA054711DEA64AF0955AB1E6102A531A","019cedd3-4ef9-712b-a1c6-d0d7d8cc024e","019cedc9-bfe1-7bb5-8857-de065a1e03dd","","null","
                <div class=""stimulus-container"">
                    <img src=""images/causal_sequence/dog_causal/dog_causal_3.png"" class=""exp-image"">
                    <div class=""question-area""></div> 
                </div>","null","","","","","","","","","","",""
"","","","","","html-button-response","22","1214475","0.0-22.0","DA054711DEA64AF0955AB1E6102A531A","019cedd3-4ef9-712b-a1c6-d0d7d8cc024e","019cedc9-bfe1-7bb5-8857-de065a1e03dd","","588","
                <div class=""stimulus-container"">
                    <img src=""images/causal_sequence/dog_causal/dog_causal_3.png"" class=""exp-image"">
                    <div class=""question-area"">
                        <p style=""font-size: 20px; font-weight: bold; margin: 0;"">Is there a person in this image?</p>
                    </div>
                </div>","0","main_experiment_trial","3","dog_causal","causal_sequence","","","","","","",""
"","","","","","html-keyboard-response","23","1219479","0.0-23.0","DA054711DEA64AF0955AB1E6102A531A","019cedd3-4ef9-712b-a1c6-d0d7d8cc024e","019cedc9-bfe1-7bb5-8857-de065a1e03dd","","null","
                <div class=""stimulus-container"">
                    <img src=""images/causal_sequence/dog_causal/dog_causal_4.png"" class=""exp-image"">
                    <div class=""question-area""></div> 
                </div>","null","","","","","","","","","","",""
"","","","","","html-button-response","24","1219974","0.0-24.0","DA054711DEA64AF0955AB1E6102A531A","019cedd3-4ef9-712b-a1c6-d0d7d8cc024e","019cedc9-bfe1-7bb5-8857-de065a1e03dd","","495","
                <div class=""stimulus-container"">
                    <img src=""images/causal_sequence/dog_causal/dog_causal_4.png"" class=""exp-image"">
                    <div class=""question-area"">
                        <p style=""font-size: 20px; font-weight: bold; margin: 0;"">Is there a person in this image?</p>
                    </div>
                </div>","0","main_experiment_trial","4","dog_causal","causal_sequence","","","","","","",""
"","","","","","html-keyboard-response","25","1224980","0.0-25.0","DA054711DEA64AF0955AB1E6102A531A","019cedd3-4ef9-712b-a1c6-d0d7d8cc024e","019cedc9-bfe1-7bb5-8857-de065a1e03dd","","null","
                <div class=""stimulus-container"">
                    <img src=""images/causal_sequence/dog_causal/dog_causal_5.png"" class=""exp-image"">
                    <div class=""question-area""></div> 
                </div>","null","","","","","","","","","","",""
"","","","","","html-button-response","26","1225526","0.0-26.0","DA054711DEA64AF0955AB1E6102A531A","019cedd3-4ef9-712b-a1c6-d0d7d8cc024e","019cedc9-bfe1-7bb5-8857-de065a1e03dd","","545","
                <div class=""stimulus-container"">
                    <img src=""images/causal_sequence/dog_causal/dog_causal_5.png"" class=""exp-image"">
                    <div class=""question-area"">
                        <p style=""font-size: 20px; font-weight: bold; margin: 0;"">Is there a person in this image?</p>
                    </div>
                </div>","0","main_experiment_trial","5","dog_causal","causal_sequence","","","","","","",""
"","","","","","html-keyboard-response","27","1230531","0.0-27.0","DA054711DEA64AF0955AB1E6102A531A","019cedd3-4ef9-712b-a1c6-d0d7d8cc024e","019cedc9-bfe1-7bb5-8857-de065a1e03dd","","null","
                <div class=""stimulus-container"">
                    <img src=""images/causal_sequence/dog_causal/dog_causal_6.png"" class=""exp-image"">
                    <div class=""question-area""></div> 
                </div>","null","","","","","","","","","","",""
"","","","","","html-button-response","28","1230927","0.0-28.0","DA054711DEA64AF0955AB1E6102A531A","019cedd3-4ef9-712b-a1c6-d0d7d8cc024e","019cedc9-bfe1-7bb5-8857-de065a1e03dd","","396","
                <div class=""stimulus-container"">
                    <img src=""images/causal_sequence/dog_causal/dog_causal_6.png"" class=""exp-image"">
                    <div class=""question-area"">
                        <p style=""font-size: 20px; font-weight: bold; margin: 0;"">Is there a person in this image?</p>
                    </div>
                </div>","0","main_experiment_trial","6","dog_causal","causal_sequence","","","","","","",""
"","","","","","html-keyboard-response","29","1235942","0.0-29.0","DA054711DEA64AF0955AB1E6102A531A","019cedd3-4ef9-712b-a1c6-d0d7d8cc024e","019cedc9-bfe1-7bb5-8857-de065a1e03dd","","null","
                <div class=""stimulus-container"">
                    <img src=""images/causal_sequence/dog_causal/dog_causal_7.png"" class=""exp-image"">
                    <div class=""question-area""></div> 
                </div>","null","","","","","","","","","","",""
"","","","","","html-button-response","30","1236739","0.0-30.0","DA054711DEA64AF0955AB1E6102A531A","019cedd3-4ef9-712b-a1c6-d0d7d8cc024e","019cedc9-bfe1-7bb5-8857-de065a1e03dd","","796","
                <div class=""stimulus-container"">
                    <img src=""images/causal_sequence/dog_causal/dog_causal_7.png"" class=""exp-image"">
                    <div class=""question-area"">
                        <p style=""font-size: 20px; font-weight: bold; margin: 0;"">Is there a person in this image?</p>
                    </div>
                </div>","0","main_experiment_trial","7","dog_causal","causal_sequence","","","","","","",""
"","","","","","html-keyboard-response","31","1241740","0.0-31.0","DA054711DEA64AF0955AB1E6102A531A","019cedd3-4ef9-712b-a1c6-d0d7d8cc024e","019cedc9-bfe1-7bb5-8857-de065a1e03dd","","null","
                <div class=""stimulus-container"">
                    <img src=""images/causal_sequence/dog_causal/dog_causal_8.png"" class=""exp-image"">
                    <div class=""question-area""></div> 
                </div>","null","","","","","","","","","","",""
"","","","","","html-button-response","32","1242932","0.0-32.0","DA054711DEA64AF0955AB1E6102A531A","019cedd3-4ef9-712b-a1c6-d0d7d8cc024e","019cedc9-bfe1-7bb5-8857-de065a1e03dd","","1191","
                <div class=""stimulus-container"">
                    <img src=""images/causal_sequence/dog_causal/dog_causal_8.png"" class=""exp-image"">
                    <div class=""question-area"">
                        <p style=""font-size: 20px; font-weight: bold; margin: 0;"">Is there a person in this image?</p>
                    </div>
                </div>","0","main_experiment_trial","8","dog_causal","causal_sequence","","","","","","",""
"","","","","","html-keyboard-response","33","1247937","0.0-33.0","DA054711DEA64AF0955AB1E6102A531A","019cedd3-4ef9-712b-a1c6-d0d7d8cc024e","019cedc9-bfe1-7bb5-8857-de065a1e03dd","","null","
                <div class=""stimulus-container"">
                    <img src=""images/causal_sequence/dog_causal/dog_causal_9.png"" class=""exp-image"">
                    <div class=""question-area""></div> 
                </div>","null","","","","","","","","","","",""
"","","","","","html-button-response","34","1248728","0.0-34.0","DA054711DEA64AF0955AB1E6102A531A","019cedd3-4ef9-712b-a1c6-d0d7d8cc024e","019cedc9-bfe1-7bb5-8857-de065a1e03dd","","790","
                <div class=""stimulus-container"">
                    <img src=""images/causal_sequence/dog_causal/dog_causal_9.png"" class=""exp-image"">
                    <div class=""question-area"">
                        <p style=""font-size: 20px; font-weight: bold; margin: 0;"">Is there a person in this image?</p>
                    </div>
                </div>","0","main_experiment_trial","9","dog_causal","causal_sequence","","","","","","",""
"","","","","","html-keyboard-response","35","1253729","0.0-35.0","DA054711DEA64AF0955AB1E6102A531A","019cedd3-4ef9-712b-a1c6-d0d7d8cc024e","019cedc9-bfe1-7bb5-8857-de065a1e03dd","","null","
                <div class=""stimulus-container"">
                    <img src=""images/causal_sequence/dog_causal/dog_causal_ten.png"" class=""exp-image"">
                    <div class=""question-area""></div> 
                </div>","null","","","","","","","","","","",""
"","","","","","html-button-response","36","1254273","0.0-36.0","DA054711DEA64AF0955AB1E6102A531A","019cedd3-4ef9-712b-a1c6-d0d7d8cc024e","019cedc9-bfe1-7bb5-8857-de065a1e03dd","","543","
                <div class=""stimulus-container"">
                    <img src=""images/causal_sequence/dog_causal/dog_causal_ten.png"" class=""exp-image"">
                    <div class=""question-area"">
                        <p style=""font-size: 20px; font-weight: bold; margin: 0;"">Is there a person in this image?</p>
                    </div>
                </div>","0","main_experiment_trial","ten","dog_causal","causal_sequence","","","","","","",""
"","","","","","html-keyboard-response","37","1255279","0.0-37.0","DA054711DEA64AF0955AB1E6102A531A","019cedd3-4ef9-712b-a1c6-d0d7d8cc024e","019cedc9-bfe1-7bb5-8857-de065a1e03dd","","null","<div style=""background-color: white; width: 100vw; height: 100vh;""></div>","null","","","","","","","","","","",""
"","","","","","html-keyboard-response","38","1260282","0.0-38.0","DA054711DEA64AF0955AB1E6102A531A","019cedd3-4ef9-712b-a1c6-d0d7d8cc024e","019cedc9-bfe1-7bb5-8857-de065a1e03dd","","null","
                <div class=""stimulus-container"">
                    <img src=""images/schematic_sequence/dinner_party_scheme/dinner_party_scheme_1.png"" class=""exp-image"">
                    <div class=""question-area""></div> 
                </div>","null","","","","","","","","","","",""
"","","","","","html-button-response","39","1260969","0.0-39.0","DA054711DEA64AF0955AB1E6102A531A","019cedd3-4ef9-712b-a1c6-d0d7d8cc024e","019cedc9-bfe1-7bb5-8857-de065a1e03dd","","686","
                <div class=""stimulus-container"">
                    <img src=""images/schematic_sequence/dinner_party_scheme/dinner_party_scheme_1.png"" class=""exp-image"">
                    <div class=""question-area"">
                        <p style=""font-size: 20px; font-weight: bold; margin: 0;"">Is there a person in this image?</p>
                    </div>
                </div>","0","main_experiment_trial","1","dinner_party_scheme","schematic_sequence","","","","","","",""
"","","","","","html-keyboard-response","40","1265978","0.0-40.0","DA054711DEA64AF0955AB1E6102A531A","019cedd3-4ef9-712b-a1c6-d0d7d8cc024e","019cedc9-bfe1-7bb5-8857-de065a1e03dd","","null","
                <div class=""stimulus-container"">
                    <img src=""images/schematic_sequence/dinner_party_scheme/dinner_party_scheme_2.png"" class=""exp-image"">
                    <div class=""question-area""></div> 
                </div>","null","","","","","","","","","","",""
"","","","","","html-button-response","41","1267553","0.0-41.0","DA054711DEA64AF0955AB1E6102A531A","019cedd3-4ef9-712b-a1c6-d0d7d8cc024e","019cedc9-bfe1-7bb5-8857-de065a1e03dd","","1574","
                <div class=""stimulus-container"">
                    <img src=""images/schematic_sequence/dinner_party_scheme/dinner_party_scheme_2.png"" class=""exp-image"">
                    <div class=""question-area"">
                        <p style=""font-size: 20px; font-weight: bold; margin: 0;"">Is there a person in this image?</p>
                    </div>
                </div>","1","main_experiment_trial","2","dinner_party_scheme","schematic_sequence","","","","","","",""
"","","","","","html-keyboard-response","42","1272563","0.0-42.0","DA054711DEA64AF0955AB1E6102A531A","019cedd3-4ef9-712b-a1c6-d0d7d8cc024e","019cedc9-bfe1-7bb5-8857-de065a1e03dd","","null","
                <div class=""stimulus-container"">
                    <img src=""images/schematic_sequence/dinner_party_scheme/dinner_party_scheme_3.png"" class=""exp-image"">
                    <div class=""question-area""></div> 
                </div>","null","","","","","","","","","","",""
"","","","","","html-button-response","43","1275574","0.0-43.0","DA054711DEA64AF0955AB1E6102A531A","019cedd3-4ef9-712b-a1c6-d0d7d8cc024e","019cedc9-bfe1-7bb5-8857-de065a1e03dd","","null","
                <div class=""stimulus-container"">
                    <img src=""images/schematic_sequence/dinner_party_scheme/dinner_party_scheme_3.png"" class=""exp-image"">
                    <div class=""question-area"">
                        <p style=""font-size: 20px; font-weight: bold; margin: 0;"">Is there a person in this image?</p>
                    </div>
                </div>","null","main_experiment_trial","3","dinner_party_scheme","schematic_sequence","","","","","","",""
"","","","","","html-keyboard-response","44","1280575","0.0-44.0","DA054711DEA64AF0955AB1E6102A531A","019cedd3-4ef9-712b-a1c6-d0d7d8cc024e","019cedc9-bfe1-7bb5-8857-de065a1e03dd","","null","
                <div class=""stimulus-container"">
                    <img src=""images/schematic_sequence/dinner_party_scheme/dinner_party_scheme_4.png"" class=""exp-image"">
                    <div class=""question-area""></div> 
                </div>","null","","","","","","","","","","",""
"","","","","","html-button-response","45","1283589","0.0-45.0","DA054711DEA64AF0955AB1E6102A531A","019cedd3-4ef9-712b-a1c6-d0d7d8cc024e","019cedc9-bfe1-7bb5-8857-de065a1e03dd","","null","
                <div class=""stimulus-container"">
                    <img src=""images/schematic_sequence/dinner_party_scheme/dinner_party_scheme_4.png"" class=""exp-image"">
                    <div class=""question-area"">
                        <p style=""font-size: 20px; font-weight: bold; margin: 0;"">Is there a person in this image?</p>
                    </div>
                </div>","null","main_experiment_trial","4","dinner_party_scheme","schematic_sequence","","","","","","",""
"","","","","","html-keyboard-response","46","1288592","0.0-46.0","DA054711DEA64AF0955AB1E6102A531A","019cedd3-4ef9-712b-a1c6-d0d7d8cc024e","019cedc9-bfe1-7bb5-8857-de065a1e03dd","","null","
                <div class=""stimulus-container"">
                    <img src=""images/schematic_sequence/dinner_party_scheme/dinner_party_scheme_5.png"" class=""exp-image"">
                    <div class=""question-area""></div> 
                </div>","null","","","","","","","","","","",""
"","","","","","html-button-response","47","1291606","0.0-47.0","DA054711DEA64AF0955AB1E6102A531A","019cedd3-4ef9-712b-a1c6-d0d7d8cc024e","019cedc9-bfe1-7bb5-8857-de065a1e03dd","","null","
                <div class=""stimulus-container"">
                    <img src=""images/schematic_sequence/dinner_party_scheme/dinner_party_scheme_5.png"" class=""exp-image"">
                    <div class=""question-area"">
                        <p style=""font-size: 20px; font-weight: bold; margin: 0;"">Is there a person in this image?</p>
                    </div>
                </div>","null","main_experiment_trial","5","dinner_party_scheme","schematic_sequence","","","","","","",""
"","","","","","html-keyboard-response","48","1296608","0.0-48.0","DA054711DEA64AF0955AB1E6102A531A","019cedd3-4ef9-712b-a1c6-d0d7d8cc024e","019cedc9-bfe1-7bb5-8857-de065a1e03dd","","null","
                <div class=""stimulus-container"">
                    <img src=""images/schematic_sequence/dinner_party_scheme/dinner_party_scheme_6.png"" class=""exp-image"">
                    <div class=""question-area""></div> 
                </div>","null","","","","","","","","","","",""
"","","","","","html-button-response","49","1299618","0.0-49.0","DA054711DEA64AF0955AB1E6102A531A","019cedd3-4ef9-712b-a1c6-d0d7d8cc024e","019cedc9-bfe1-7bb5-8857-de065a1e03dd","","null","
                <div class=""stimulus-container"">
                    <img src=""images/schematic_sequence/dinner_party_scheme/dinner_party_scheme_6.png"" class=""exp-image"">
                    <div class=""question-area"">
                        <p style=""font-size: 20px; font-weight: bold; margin: 0;"">Is there a person in this image?</p>
                    </div>
                </div>","null","main_experiment_trial","6","dinner_party_scheme","schematic_sequence","","","","","","",""
"","","","","","html-keyboard-response","50","1304624","0.0-50.0","DA054711DEA64AF0955AB1E6102A531A","019cedd3-4ef9-712b-a1c6-d0d7d8cc024e","019cedc9-bfe1-7bb5-8857-de065a1e03dd","","null","
                <div class=""stimulus-container"">
                    <img src=""images/schematic_sequence/dinner_party_scheme/dinner_party_scheme_7.png"" class=""exp-image"">
                    <div class=""question-area""></div> 
                </div>","null","","","","","","","","","","",""
"","","","","","html-button-response","51","1307629","0.0-51.0","DA054711DEA64AF0955AB1E6102A531A","019cedd3-4ef9-712b-a1c6-d0d7d8cc024e","019cedc9-bfe1-7bb5-8857-de065a1e03dd","","null","
                <div class=""stimulus-container"">
                    <img src=""images/schematic_sequence/dinner_party_scheme/dinner_party_scheme_7.png"" class=""exp-image"">
                    <div class=""question-area"">
                        <p style=""font-size: 20px; font-weight: bold; margin: 0;"">Is there a person in this image?</p>
                    </div>
                </div>","null","main_experiment_trial","7","dinner_party_scheme","schematic_sequence","","","","","","",""
"","","","","","html-keyboard-response","52","1312639","0.0-52.0","DA054711DEA64AF0955AB1E6102A531A","019cedd3-4ef9-712b-a1c6-d0d7d8cc024e","019cedc9-bfe1-7bb5-8857-de065a1e03dd","","null","
                <div class=""stimulus-container"">
                    <img src=""images/schematic_sequence/dinner_party_scheme/dinner_party_scheme_8.png"" class=""exp-image"">
                    <div class=""question-area""></div> 
                </div>","null","","","","","","","","","","",""
"","","","","","html-button-response","53","1313807","0.0-53.0","DA054711DEA64AF0955AB1E6102A531A","019cedd3-4ef9-712b-a1c6-d0d7d8cc024e","019cedc9-bfe1-7bb5-8857-de065a1e03dd","","1167","
                <div class=""stimulus-container"">
                    <img src=""images/schematic_sequence/dinner_party_scheme/dinner_party_scheme_8.png"" class=""exp-image"">
                    <div class=""question-area"">
                        <p style=""font-size: 20px; font-weight: bold; margin: 0;"">Is there a person in this image?</p>
                    </div>
                </div>","0","main_experiment_trial","8","dinner_party_scheme","schematic_sequence","","","","","","",""
"","","","","","html-keyboard-response","54","1318811","0.0-54.0","DA054711DEA64AF0955AB1E6102A531A","019cedd3-4ef9-712b-a1c6-d0d7d8cc024e","019cedc9-bfe1-7bb5-8857-de065a1e03dd","","null","
                <div class=""stimulus-container"">
                    <img src=""images/schematic_sequence/dinner_party_scheme/dinner_party_scheme_9.png"" class=""exp-image"">
                    <div class=""question-area""></div> 
                </div>","null","","","","","","","","","","",""
"","","","","","html-button-response","55","1319089","0.0-55.0","DA054711DEA64AF0955AB1E6102A531A","019cedd3-4ef9-712b-a1c6-d0d7d8cc024e","019cedc9-bfe1-7bb5-8857-de065a1e03dd","","277","
                <div class=""stimulus-container"">
                    <img src=""images/schematic_sequence/dinner_party_scheme/dinner_party_scheme_9.png"" class=""exp-image"">
                    <div class=""question-area"">
                        <p style=""font-size: 20px; font-weight: bold; margin: 0;"">Is there a person in this image?</p>
                    </div>
                </div>","0","main_experiment_trial","9","dinner_party_scheme","schematic_sequence","","","","","","",""
"","","","","","html-keyboard-response","56","1324103","0.0-56.0","DA054711DEA64AF0955AB1E6102A531A","019cedd3-4ef9-712b-a1c6-d0d7d8cc024e","019cedc9-bfe1-7bb5-8857-de065a1e03dd","","null","
                <div class=""stimulus-container"">
                    <img src=""images/schematic_sequence/dinner_party_scheme/dinner_party_scheme_ten.png"" class=""exp-image"">
                    <div class=""question-area""></div> 
                </div>","null","","","","","","","","","","",""
"","","","","","html-button-response","57","1324568","0.0-57.0","DA054711DEA64AF0955AB1E6102A531A","019cedd3-4ef9-712b-a1c6-d0d7d8cc024e","019cedc9-bfe1-7bb5-8857-de065a1e03dd","","464","
                <div class=""stimulus-container"">
                    <img src=""images/schematic_sequence/dinner_party_scheme/dinner_party_scheme_ten.png"" class=""exp-image"">
                    <div class=""question-area"">
                        <p style=""font-size: 20px; font-weight: bold; margin: 0;"">Is there a person in this image?</p>
                    </div>
                </div>","0","main_experiment_trial","ten","dinner_party_scheme","schematic_sequence","","","","","","",""
"","","","","","html-keyboard-response","58","1325579","0.0-58.0","DA054711DEA64AF0955AB1E6102A531A","019cedd3-4ef9-712b-a1c6-d0d7d8cc024e","019cedc9-bfe1-7bb5-8857-de065a1e03dd","","null","<div style=""background-color: white; width: 100vw; height: 100vh;""></div>","null","","","","","","","","","","",""
"","","","","","html-keyboard-response","59","1330594","0.0-59.0","DA054711DEA64AF0955AB1E6102A531A","019cedd3-4ef9-712b-a1c6-d0d7d8cc024e","019cedc9-bfe1-7bb5-8857-de065a1e03dd","","null","
                <div class=""stimulus-container"">
                    <img src=""images/causal_sequence/package_causal/package_causal_1.png"" class=""exp-image"">
                    <div class=""question-area""></div> 
                </div>","null","","","","","","","","","","",""
"","","","","","html-button-response","60","1331031","0.0-60.0","DA054711DEA64AF0955AB1E6102A531A","019cedd3-4ef9-712b-a1c6-d0d7d8cc024e","019cedc9-bfe1-7bb5-8857-de065a1e03dd","","437","
                <div class=""stimulus-container"">
                    <img src=""images/causal_sequence/package_causal/package_causal_1.png"" class=""exp-image"">
                    <div class=""question-area"">
                        <p style=""font-size: 20px; font-weight: bold; margin: 0;"">Is there a person in this image?</p>
                    </div>
                </div>","0","main_experiment_trial","1","package_causal","causal_sequence","","","","","","",""
"","","","","","html-keyboard-response","61","1336038","0.0-61.0","DA054711DEA64AF0955AB1E6102A531A","019cedd3-4ef9-712b-a1c6-d0d7d8cc024e","019cedc9-bfe1-7bb5-8857-de065a1e03dd","","null","
                <div class=""stimulus-container"">
                    <img src=""images/causal_sequence/package_causal/package_causal_2.png"" class=""exp-image"">
                    <div class=""question-area""></div> 
                </div>","null","","","","","","","","","","",""
"","","","","","html-button-response","62","1337767","0.0-62.0","DA054711DEA64AF0955AB1E6102A531A","019cedd3-4ef9-712b-a1c6-d0d7d8cc024e","019cedc9-bfe1-7bb5-8857-de065a1e03dd","","1728","
                <div class=""stimulus-container"">
                    <img src=""images/causal_sequence/package_causal/package_causal_2.png"" class=""exp-image"">
                    <div class=""question-area"">
                        <p style=""font-size: 20px; font-weight: bold; margin: 0;"">Is there a person in this image?</p>
                    </div>
                </div>","1","main_experiment_trial","2","package_causal","causal_sequence","","","","","","",""
"","","","","","html-keyboard-response","63","1342775","0.0-63.0","DA054711DEA64AF0955AB1E6102A531A","019cedd3-4ef9-712b-a1c6-d0d7d8cc024e","019cedc9-bfe1-7bb5-8857-de065a1e03dd","","null","
                <div class=""stimulus-container"">
                    <img src=""images/causal_sequence/package_causal/package_causal_3.png"" class=""exp-image"">
                    <div class=""question-area""></div> 
                </div>","null","","","","","","","","","","",""
"","","","","","html-button-response","64","1343295","0.0-64.0","DA054711DEA64AF0955AB1E6102A531A","019cedd3-4ef9-712b-a1c6-d0d7d8cc024e","019cedc9-bfe1-7bb5-8857-de065a1e03dd","","520","
                <div class=""stimulus-container"">
                    <img src=""images/causal_sequence/package_causal/package_causal_3.png"" class=""exp-image"">
                    <div class=""question-area"">
                        <p style=""font-size: 20px; font-weight: bold; margin: 0;"">Is there a person in this image?</p>
                    </div>
                </div>","0","main_experiment_trial","3","package_causal","causal_sequence","","","","","","",""
"","","","","","html-keyboard-response","65","1348312","0.0-65.0","DA054711DEA64AF0955AB1E6102A531A","019cedd3-4ef9-712b-a1c6-d0d7d8cc024e","019cedc9-bfe1-7bb5-8857-de065a1e03dd","","null","
                <div class=""stimulus-container"">
                    <img src=""images/causal_sequence/package_causal/package_causal_4.png"" class=""exp-image"">
                    <div class=""question-area""></div> 
                </div>","null","","","","","","","","","","",""
"","","","","","html-button-response","66","1348690","0.0-66.0","DA054711DEA64AF0955AB1E6102A531A","019cedd3-4ef9-712b-a1c6-d0d7d8cc024e","019cedc9-bfe1-7bb5-8857-de065a1e03dd","","377","
                <div class=""stimulus-container"">
                    <img src=""images/causal_sequence/package_causal/package_causal_4.png"" class=""exp-image"">
                    <div class=""question-area"">
                        <p style=""font-size: 20px; font-weight: bold; margin: 0;"">Is there a person in this image?</p>
                    </div>
                </div>","1","main_experiment_trial","4","package_causal","causal_sequence","","","","","","",""
"","","","","","html-keyboard-response","67","1353692","0.0-67.0","DA054711DEA64AF0955AB1E6102A531A","019cedd3-4ef9-712b-a1c6-d0d7d8cc024e","019cedc9-bfe1-7bb5-8857-de065a1e03dd","","null","
                <div class=""stimulus-container"">
                    <img src=""images/causal_sequence/package_causal/package_causal_5.png"" class=""exp-image"">
                    <div class=""question-area""></div> 
                </div>","null","","","","","","","","","","",""
"","","","","","html-button-response","68","1354168","0.0-68.0","DA054711DEA64AF0955AB1E6102A531A","019cedd3-4ef9-712b-a1c6-d0d7d8cc024e","019cedc9-bfe1-7bb5-8857-de065a1e03dd","","475","
                <div class=""stimulus-container"">
                    <img src=""images/causal_sequence/package_causal/package_causal_5.png"" class=""exp-image"">
                    <div class=""question-area"">
                        <p style=""font-size: 20px; font-weight: bold; margin: 0;"">Is there a person in this image?</p>
                    </div>
                </div>","0","main_experiment_trial","5","package_causal","causal_sequence","","","","","","",""
"","","","","","html-keyboard-response","69","1359181","0.0-69.0","DA054711DEA64AF0955AB1E6102A531A","019cedd3-4ef9-712b-a1c6-d0d7d8cc024e","019cedc9-bfe1-7bb5-8857-de065a1e03dd","","null","
                <div class=""stimulus-container"">
                    <img src=""images/causal_sequence/package_causal/package_causal_6.png"" class=""exp-image"">
                    <div class=""question-area""></div> 
                </div>","null","","","","","","","","","","",""
"","","","","","html-button-response","70","1359779","0.0-70.0","DA054711DEA64AF0955AB1E6102A531A","019cedd3-4ef9-712b-a1c6-d0d7d8cc024e","019cedc9-bfe1-7bb5-8857-de065a1e03dd","","597","
                <div class=""stimulus-container"">
                    <img src=""images/causal_sequence/package_causal/package_causal_6.png"" class=""exp-image"">
                    <div class=""question-area"">
                        <p style=""font-size: 20px; font-weight: bold; margin: 0;"">Is there a person in this image?</p>
                    </div>
                </div>","0","main_experiment_trial","6","package_causal","causal_sequence","","","","","","",""
"","","","","","html-keyboard-response","71","1364785","0.0-71.0","DA054711DEA64AF0955AB1E6102A531A","019cedd3-4ef9-712b-a1c6-d0d7d8cc024e","019cedc9-bfe1-7bb5-8857-de065a1e03dd","","null","
                <div class=""stimulus-container"">
                    <img src=""images/causal_sequence/package_causal/package_causal_7.png"" class=""exp-image"">
                    <div class=""question-area""></div> 
                </div>","null","","","","","","","","","","",""
"","","","","","html-button-response","72","1367798","0.0-72.0","DA054711DEA64AF0955AB1E6102A531A","019cedd3-4ef9-712b-a1c6-d0d7d8cc024e","019cedc9-bfe1-7bb5-8857-de065a1e03dd","","null","
                <div class=""stimulus-container"">
                    <img src=""images/causal_sequence/package_causal/package_causal_7.png"" class=""exp-image"">
                    <div class=""question-area"">
                        <p style=""font-size: 20px; font-weight: bold; margin: 0;"">Is there a person in this image?</p>
                    </div>
                </div>","null","main_experiment_trial","7","package_causal","causal_sequence","","","","","","",""
"","","","","","html-keyboard-response","73","1372808","0.0-73.0","DA054711DEA64AF0955AB1E6102A531A","019cedd3-4ef9-712b-a1c6-d0d7d8cc024e","019cedc9-bfe1-7bb5-8857-de065a1e03dd","","null","
                <div class=""stimulus-container"">
                    <img src=""images/causal_sequence/package_causal/package_causal_8.png"" class=""exp-image"">
                    <div class=""question-area""></div> 
                </div>","null","","","","","","","","","","",""
"","","","","","html-button-response","74","1375823","0.0-74.0","DA054711DEA64AF0955AB1E6102A531A","019cedd3-4ef9-712b-a1c6-d0d7d8cc024e","019cedc9-bfe1-7bb5-8857-de065a1e03dd","","null","
                <div class=""stimulus-container"">
                    <img src=""images/causal_sequence/package_causal/package_causal_8.png"" class=""exp-image"">
                    <div class=""question-area"">
                        <p style=""font-size: 20px; font-weight: bold; margin: 0;"">Is there a person in this image?</p>
                    </div>
                </div>","null","main_experiment_trial","8","package_causal","causal_sequence","","","","","","",""
"","","","","","html-keyboard-response","75","1380825","0.0-75.0","DA054711DEA64AF0955AB1E6102A531A","019cedd3-4ef9-712b-a1c6-d0d7d8cc024e","019cedc9-bfe1-7bb5-8857-de065a1e03dd","","null","
                <div class=""stimulus-container"">
                    <img src=""images/causal_sequence/package_causal/package_causal_9.png"" class=""exp-image"">
                    <div class=""question-area""></div> 
                </div>","null","","","","","","","","","","",""
"","","","","","html-button-response","76","1382675","0.0-76.0","DA054711DEA64AF0955AB1E6102A531A","019cedd3-4ef9-712b-a1c6-d0d7d8cc024e","019cedc9-bfe1-7bb5-8857-de065a1e03dd","","1849","
                <div class=""stimulus-container"">
                    <img src=""images/causal_sequence/package_causal/package_causal_9.png"" class=""exp-image"">
                    <div class=""question-area"">
                        <p style=""font-size: 20px; font-weight: bold; margin: 0;"">Is there a person in this image?</p>
                    </div>
                </div>","0","main_experiment_trial","9","package_causal","causal_sequence","","","","","","",""
"","","","","","html-keyboard-response","77","1387682","0.0-77.0","DA054711DEA64AF0955AB1E6102A531A","019cedd3-4ef9-712b-a1c6-d0d7d8cc024e","019cedc9-bfe1-7bb5-8857-de065a1e03dd","","null","
                <div class=""stimulus-container"">
                    <img src=""images/causal_sequence/package_causal/package_causal_ten.png"" class=""exp-image"">
                    <div class=""question-area""></div> 
                </div>","null","","","","","","","","","","",""
"","","","","","html-button-response","78","1388402","0.0-78.0","DA054711DEA64AF0955AB1E6102A531A","019cedd3-4ef9-712b-a1c6-d0d7d8cc024e","019cedc9-bfe1-7bb5-8857-de065a1e03dd","","719","
                <div class=""stimulus-container"">
                    <img src=""images/causal_sequence/package_causal/package_causal_ten.png"" class=""exp-image"">
                    <div class=""question-area"">
                        <p style=""font-size: 20px; font-weight: bold; margin: 0;"">Is there a person in this image?</p>
                    </div>
                </div>","0","main_experiment_trial","ten","package_causal","causal_sequence","","","","","","",""
"","","","","","html-keyboard-response","79","1389408","0.0-79.0","DA054711DEA64AF0955AB1E6102A531A","019cedd3-4ef9-712b-a1c6-d0d7d8cc024e","019cedc9-bfe1-7bb5-8857-de065a1e03dd","","null","<div style=""background-color: white; width: 100vw; height: 100vh;""></div>","null","","","","","","","","","","",""
"","","","","","html-keyboard-response","80","1394411","0.0-80.0","DA054711DEA64AF0955AB1E6102A531A","019cedd3-4ef9-712b-a1c6-d0d7d8cc024e","019cedc9-bfe1-7bb5-8857-de065a1e03dd","","null","
                <div class=""stimulus-container"">
                    <img src=""images/causal_sequence/coin_causal/coin_causal_1.png"" class=""exp-image"">
                    <div class=""question-area""></div> 
                </div>","null","","","","","","","","","","",""
"","","","","","html-button-response","81","1394551","0.0-81.0","DA054711DEA64AF0955AB1E6102A531A","019cedd3-4ef9-712b-a1c6-d0d7d8cc024e","019cedc9-bfe1-7bb5-8857-de065a1e03dd","","139","
                <div class=""stimulus-container"">
                    <img src=""images/causal_sequence/coin_causal/coin_causal_1.png"" class=""exp-image"">
                    <div class=""question-area"">
                        <p style=""font-size: 20px; font-weight: bold; margin: 0;"">Is there a person in this image?</p>
                    </div>
                </div>","0","main_experiment_trial","1","coin_causal","causal_sequence","","","","","","",""
"","","","","","html-keyboard-response","82","1399559","0.0-82.0","DA054711DEA64AF0955AB1E6102A531A","019cedd3-4ef9-712b-a1c6-d0d7d8cc024e","019cedc9-bfe1-7bb5-8857-de065a1e03dd","","null","
                <div class=""stimulus-container"">
                    <img src=""images/causal_sequence/coin_causal/coin_causal_2.png"" class=""exp-image"">
                    <div class=""question-area""></div> 
                </div>","null","","","","","","","","","","",""
"","","","","","html-button-response","83","1400103","0.0-83.0","DA054711DEA64AF0955AB1E6102A531A","019cedd3-4ef9-712b-a1c6-d0d7d8cc024e","019cedc9-bfe1-7bb5-8857-de065a1e03dd","","543","
                <div class=""stimulus-container"">
                    <img src=""images/causal_sequence/coin_causal/coin_causal_2.png"" class=""exp-image"">
                    <div class=""question-area"">
                        <p style=""font-size: 20px; font-weight: bold; margin: 0;"">Is there a person in this image?</p>
                    </div>
                </div>","0","main_experiment_trial","2","coin_causal","causal_sequence","","","","","","",""
"","","","","","html-keyboard-response","84","1405112","0.0-84.0","DA054711DEA64AF0955AB1E6102A531A","019cedd3-4ef9-712b-a1c6-d0d7d8cc024e","019cedc9-bfe1-7bb5-8857-de065a1e03dd","","null","
                <div class=""stimulus-container"">
                    <img src=""images/causal_sequence/coin_causal/coin_causal_3.png"" class=""exp-image"">
                    <div class=""question-area""></div> 
                </div>","null","","","","","","","","","","",""
"","","","","","html-button-response","85","1405748","0.0-85.0","DA054711DEA64AF0955AB1E6102A531A","019cedd3-4ef9-712b-a1c6-d0d7d8cc024e","019cedc9-bfe1-7bb5-8857-de065a1e03dd","","635","
                <div class=""stimulus-container"">
                    <img src=""images/causal_sequence/coin_causal/coin_causal_3.png"" class=""exp-image"">
                    <div class=""question-area"">
                        <p style=""font-size: 20px; font-weight: bold; margin: 0;"">Is there a person in this image?</p>
                    </div>
                </div>","0","main_experiment_trial","3","coin_causal","causal_sequence","","","","","","",""
"","","","","","html-keyboard-response","86","1410750","0.0-86.0","DA054711DEA64AF0955AB1E6102A531A","019cedd3-4ef9-712b-a1c6-d0d7d8cc024e","019cedc9-bfe1-7bb5-8857-de065a1e03dd","","null","
                <div class=""stimulus-container"">
                    <img src=""images/causal_sequence/coin_causal/coin_causal_4.png"" class=""exp-image"">
                    <div class=""question-area""></div> 
                </div>","null","","","","","","","","","","",""
"","","","","","html-button-response","87","1411644","0.0-87.0","DA054711DEA64AF0955AB1E6102A531A","019cedd3-4ef9-712b-a1c6-d0d7d8cc024e","019cedc9-bfe1-7bb5-8857-de065a1e03dd","","892","
                <div class=""stimulus-container"">
                    <img src=""images/causal_sequence/coin_causal/coin_causal_4.png"" class=""exp-image"">
                    <div class=""question-area"">
                        <p style=""font-size: 20px; font-weight: bold; margin: 0;"">Is there a person in this image?</p>
                    </div>
                </div>","1","main_experiment_trial","4","coin_causal","causal_sequence","","","","","","",""
"","","","","","html-keyboard-response","88","1416656","0.0-88.0","DA054711DEA64AF0955AB1E6102A531A","019cedd3-4ef9-712b-a1c6-d0d7d8cc024e","019cedc9-bfe1-7bb5-8857-de065a1e03dd","","null","
                <div class=""stimulus-container"">
                    <img src=""images/causal_sequence/coin_causal/coin_causal_5.png"" class=""exp-image"">
                    <div class=""question-area""></div> 
                </div>","null","","","","","","","","","","",""
"","","","","","html-button-response","89","1418979","0.0-89.0","DA054711DEA64AF0955AB1E6102A531A","019cedd3-4ef9-712b-a1c6-d0d7d8cc024e","019cedc9-bfe1-7bb5-8857-de065a1e03dd","","2322","
                <div class=""stimulus-container"">
                    <img src=""images/causal_sequence/coin_causal/coin_causal_5.png"" class=""exp-image"">
                    <div class=""question-area"">
                        <p style=""font-size: 20px; font-weight: bold; margin: 0;"">Is there a person in this image?</p>
                    </div>
                </div>","0","main_experiment_trial","5","coin_causal","causal_sequence","","","","","","",""
"","","","","","html-keyboard-response","90","1423980","0.0-90.0","DA054711DEA64AF0955AB1E6102A531A","019cedd3-4ef9-712b-a1c6-d0d7d8cc024e","019cedc9-bfe1-7bb5-8857-de065a1e03dd","","null","
                <div class=""stimulus-container"">
                    <img src=""images/causal_sequence/coin_causal/coin_causal_6.png"" class=""exp-image"">
                    <div class=""question-area""></div> 
                </div>","null","","","","","","","","","","",""
"","","","","","html-button-response","91","1424381","0.0-91.0","DA054711DEA64AF0955AB1E6102A531A","019cedd3-4ef9-712b-a1c6-d0d7d8cc024e","019cedc9-bfe1-7bb5-8857-de065a1e03dd","","400","
                <div class=""stimulus-container"">
                    <img src=""images/causal_sequence/coin_causal/coin_causal_6.png"" class=""exp-image"">
                    <div class=""question-area"">
                        <p style=""font-size: 20px; font-weight: bold; margin: 0;"">Is there a person in this image?</p>
                    </div>
                </div>","0","main_experiment_trial","6","coin_causal","causal_sequence","","","","","","",""
"","","","","","html-keyboard-response","92","1429392","0.0-92.0","DA054711DEA64AF0955AB1E6102A531A","019cedd3-4ef9-712b-a1c6-d0d7d8cc024e","019cedc9-bfe1-7bb5-8857-de065a1e03dd","","null","
                <div class=""stimulus-container"">
                    <img src=""images/causal_sequence/coin_causal/coin_causal_7.png"" class=""exp-image"">
                    <div class=""question-area""></div> 
                </div>","null","","","","","","","","","","",""
"","","","","","html-button-response","93","1429760","0.0-93.0","DA054711DEA64AF0955AB1E6102A531A","019cedd3-4ef9-712b-a1c6-d0d7d8cc024e","019cedc9-bfe1-7bb5-8857-de065a1e03dd","","367","
                <div class=""stimulus-container"">
                    <img src=""images/causal_sequence/coin_causal/coin_causal_7.png"" class=""exp-image"">
                    <div class=""question-area"">
                        <p style=""font-size: 20px; font-weight: bold; margin: 0;"">Is there a person in this image?</p>
                    </div>
                </div>","1","main_experiment_trial","7","coin_causal","causal_sequence","","","","","","",""
"","","","","","html-keyboard-response","94","1434762","0.0-94.0","DA054711DEA64AF0955AB1E6102A531A","019cedd3-4ef9-712b-a1c6-d0d7d8cc024e","019cedc9-bfe1-7bb5-8857-de065a1e03dd","","null","
                <div class=""stimulus-container"">
                    <img src=""images/causal_sequence/coin_causal/coin_causal_8.png"" class=""exp-image"">
                    <div class=""question-area""></div> 
                </div>","null","","","","","","","","","","",""
"","","","","","html-button-response","95","1435002","0.0-95.0","DA054711DEA64AF0955AB1E6102A531A","019cedd3-4ef9-712b-a1c6-d0d7d8cc024e","019cedc9-bfe1-7bb5-8857-de065a1e03dd","","238","
                <div class=""stimulus-container"">
                    <img src=""images/causal_sequence/coin_causal/coin_causal_8.png"" class=""exp-image"">
                    <div class=""question-area"">
                        <p style=""font-size: 20px; font-weight: bold; margin: 0;"">Is there a person in this image?</p>
                    </div>
                </div>","0","main_experiment_trial","8","coin_causal","causal_sequence","","","","","","",""
"","","","","","html-keyboard-response","96","1440005","0.0-96.0","DA054711DEA64AF0955AB1E6102A531A","019cedd3-4ef9-712b-a1c6-d0d7d8cc024e","019cedc9-bfe1-7bb5-8857-de065a1e03dd","","null","
                <div class=""stimulus-container"">
                    <img src=""images/causal_sequence/coin_causal/coin_causal_9.png"" class=""exp-image"">
                    <div class=""question-area""></div> 
                </div>","null","","","","","","","","","","",""
"","","","","","html-button-response","97","1440698","0.0-97.0","DA054711DEA64AF0955AB1E6102A531A","019cedd3-4ef9-712b-a1c6-d0d7d8cc024e","019cedc9-bfe1-7bb5-8857-de065a1e03dd","","692","
                <div class=""stimulus-container"">
                    <img src=""images/causal_sequence/coin_causal/coin_causal_9.png"" class=""exp-image"">
                    <div class=""question-area"">
                        <p style=""font-size: 20px; font-weight: bold; margin: 0;"">Is there a person in this image?</p>
                    </div>
                </div>","0","main_experiment_trial","9","coin_causal","causal_sequence","","","","","","",""
"","","","","","html-keyboard-response","98","1445702","0.0-98.0","DA054711DEA64AF0955AB1E6102A531A","019cedd3-4ef9-712b-a1c6-d0d7d8cc024e","019cedc9-bfe1-7bb5-8857-de065a1e03dd","","null","
                <div class=""stimulus-container"">
                    <img src=""images/causal_sequence/coin_causal/coin_causal_ten.png"" class=""exp-image"">
                    <div class=""question-area""></div> 
                </div>","null","","","","","","","","","","",""
"","","","","","html-button-response","99","1446949","0.0-99.0","DA054711DEA64AF0955AB1E6102A531A","019cedd3-4ef9-712b-a1c6-d0d7d8cc024e","019cedc9-bfe1-7bb5-8857-de065a1e03dd","","1246","
                <div class=""stimulus-container"">
                    <img src=""images/causal_sequence/coin_causal/coin_causal_ten.png"" class=""exp-image"">
                    <div class=""question-area"">
                        <p style=""font-size: 20px; font-weight: bold; margin: 0;"">Is there a person in this image?</p>
                    </div>
                </div>","0","main_experiment_trial","ten","coin_causal","causal_sequence","","","","","","",""
"","","","","","html-keyboard-response","100","1447959","0.0-100.0","DA054711DEA64AF0955AB1E6102A531A","019cedd3-4ef9-712b-a1c6-d0d7d8cc024e","019cedc9-bfe1-7bb5-8857-de065a1e03dd","","null","<div style=""background-color: white; width: 100vw; height: 100vh;""></div>","null","","","","","","","","","","",""
"","","","","","html-keyboard-response","101","1452969","0.0-101.0","DA054711DEA64AF0955AB1E6102A531A","019cedd3-4ef9-712b-a1c6-d0d7d8cc024e","019cedc9-bfe1-7bb5-8857-de065a1e03dd","","null","
                <div class=""stimulus-container"">
                    <img src=""images/schematic_sequence/interview_scheme/interview_scheme_1.png"" class=""exp-image"">
                    <div class=""question-area""></div> 
                </div>","null","","","","","","","","","","",""
"","","","","","html-button-response","102","1454230","0.0-102.0","DA054711DEA64AF0955AB1E6102A531A","019cedd3-4ef9-712b-a1c6-d0d7d8cc024e","019cedc9-bfe1-7bb5-8857-de065a1e03dd","","1260","
                <div class=""stimulus-container"">
                    <img src=""images/schematic_sequence/interview_scheme/interview_scheme_1.png"" class=""exp-image"">
                    <div class=""question-area"">
                        <p style=""font-size: 20px; font-weight: bold; margin: 0;"">Is there a person in this image?</p>
                    </div>
                </div>","1","main_experiment_trial","1","interview_scheme","schematic_sequence","","","","","","",""
"","","","","","html-keyboard-response","103","1459242","0.0-103.0","DA054711DEA64AF0955AB1E6102A531A","019cedd3-4ef9-712b-a1c6-d0d7d8cc024e","019cedc9-bfe1-7bb5-8857-de065a1e03dd","","null","
                <div class=""stimulus-container"">
                    <img src=""images/schematic_sequence/interview_scheme/interview_scheme_2.png"" class=""exp-image"">
                    <div class=""question-area""></div> 
                </div>","null","","","","","","","","","","",""
"","","","","","html-button-response","104","1459660","0.0-104.0","DA054711DEA64AF0955AB1E6102A531A","019cedd3-4ef9-712b-a1c6-d0d7d8cc024e","019cedc9-bfe1-7bb5-8857-de065a1e03dd","","417","
                <div class=""stimulus-container"">
                    <img src=""images/schematic_sequence/interview_scheme/interview_scheme_2.png"" class=""exp-image"">
                    <div class=""question-area"">
                        <p style=""font-size: 20px; font-weight: bold; margin: 0;"">Is there a person in this image?</p>
                    </div>
                </div>","1","main_experiment_trial","2","interview_scheme","schematic_sequence","","","","","","",""
"","","","","","html-keyboard-response","105","1464670","0.0-105.0","DA054711DEA64AF0955AB1E6102A531A","019cedd3-4ef9-712b-a1c6-d0d7d8cc024e","019cedc9-bfe1-7bb5-8857-de065a1e03dd","","null","
                <div class=""stimulus-container"">
                    <img src=""images/schematic_sequence/interview_scheme/interview_scheme_3.png"" class=""exp-image"">
                    <div class=""question-area""></div> 
                </div>","null","","","","","","","","","","",""
"","","","","","html-button-response","106","1464971","0.0-106.0","DA054711DEA64AF0955AB1E6102A531A","019cedd3-4ef9-712b-a1c6-d0d7d8cc024e","019cedc9-bfe1-7bb5-8857-de065a1e03dd","","300","
                <div class=""stimulus-container"">
                    <img src=""images/schematic_sequence/interview_scheme/interview_scheme_3.png"" class=""exp-image"">
                    <div class=""question-area"">
                        <p style=""font-size: 20px; font-weight: bold; margin: 0;"">Is there a person in this image?</p>
                    </div>
                </div>","1","main_experiment_trial","3","interview_scheme","schematic_sequence","","","","","","",""
"","","","","","html-keyboard-response","107","1469985","0.0-107.0","DA054711DEA64AF0955AB1E6102A531A","019cedd3-4ef9-712b-a1c6-d0d7d8cc024e","019cedc9-bfe1-7bb5-8857-de065a1e03dd","","null","
                <div class=""stimulus-container"">
                    <img src=""images/schematic_sequence/interview_scheme/interview_scheme_4.png"" class=""exp-image"">
                    <div class=""question-area""></div> 
                </div>","null","","","","","","","","","","",""
"","","","","","html-button-response","108","1470902","0.0-108.0","DA054711DEA64AF0955AB1E6102A531A","019cedd3-4ef9-712b-a1c6-d0d7d8cc024e","019cedc9-bfe1-7bb5-8857-de065a1e03dd","","915","
                <div class=""stimulus-container"">
                    <img src=""images/schematic_sequence/interview_scheme/interview_scheme_4.png"" class=""exp-image"">
                    <div class=""question-area"">
                        <p style=""font-size: 20px; font-weight: bold; margin: 0;"">Is there a person in this image?</p>
                    </div>
                </div>","1","main_experiment_trial","4","interview_scheme","schematic_sequence","","","","","","",""
"","","","","","html-keyboard-response","109","1475904","0.0-109.0","DA054711DEA64AF0955AB1E6102A531A","019cedd3-4ef9-712b-a1c6-d0d7d8cc024e","019cedc9-bfe1-7bb5-8857-de065a1e03dd","","null","
                <div class=""stimulus-container"">
                    <img src=""images/schematic_sequence/interview_scheme/interview_scheme_5.png"" class=""exp-image"">
                    <div class=""question-area""></div> 
                </div>","null","","","","","","","","","","",""
"","","","","","html-button-response","110","1478049","0.0-110.0","DA054711DEA64AF0955AB1E6102A531A","019cedd3-4ef9-712b-a1c6-d0d7d8cc024e","019cedc9-bfe1-7bb5-8857-de065a1e03dd","","2144","
                <div class=""stimulus-container"">
                    <img src=""images/schematic_sequence/interview_scheme/interview_scheme_5.png"" class=""exp-image"">
                    <div class=""question-area"">
                        <p style=""font-size: 20px; font-weight: bold; margin: 0;"">Is there a person in this image?</p>
                    </div>
                </div>","0","main_experiment_trial","5","interview_scheme","schematic_sequence","","","","","","",""
"","","","","","html-keyboard-response","111","1483050","0.0-111.0","DA054711DEA64AF0955AB1E6102A531A","019cedd3-4ef9-712b-a1c6-d0d7d8cc024e","019cedc9-bfe1-7bb5-8857-de065a1e03dd","","null","
                <div class=""stimulus-container"">
                    <img src=""images/schematic_sequence/interview_scheme/interview_scheme_6.png"" class=""exp-image"">
                    <div class=""question-area""></div> 
                </div>","null","","","","","","","","","","",""
"","","","","","html-button-response","112","1483465","0.0-112.0","DA054711DEA64AF0955AB1E6102A531A","019cedd3-4ef9-712b-a1c6-d0d7d8cc024e","019cedc9-bfe1-7bb5-8857-de065a1e03dd","","413","
                <div class=""stimulus-container"">
                    <img src=""images/schematic_sequence/interview_scheme/interview_scheme_6.png"" class=""exp-image"">
                    <div class=""question-area"">
                        <p style=""font-size: 20px; font-weight: bold; margin: 0;"">Is there a person in this image?</p>
                    </div>
                </div>","0","main_experiment_trial","6","interview_scheme","schematic_sequence","","","","","","",""
"","","","","","html-keyboard-response","113","1488473","0.0-113.0","DA054711DEA64AF0955AB1E6102A531A","019cedd3-4ef9-712b-a1c6-d0d7d8cc024e","019cedc9-bfe1-7bb5-8857-de065a1e03dd","","null","
                <div class=""stimulus-container"">
                    <img src=""images/schematic_sequence/interview_scheme/interview_scheme_7.png"" class=""exp-image"">
                    <div class=""question-area""></div> 
                </div>","null","","","","","","","","","","",""
"","","","","","html-button-response","114","1488810","0.0-114.0","DA054711DEA64AF0955AB1E6102A531A","019cedd3-4ef9-712b-a1c6-d0d7d8cc024e","019cedc9-bfe1-7bb5-8857-de065a1e03dd","","336","
                <div class=""stimulus-container"">
                    <img src=""images/schematic_sequence/interview_scheme/interview_scheme_7.png"" class=""exp-image"">
                    <div class=""question-area"">
                        <p style=""font-size: 20px; font-weight: bold; margin: 0;"">Is there a person in this image?</p>
                    </div>
                </div>","0","main_experiment_trial","7","interview_scheme","schematic_sequence","","","","","","",""
"","","","","","html-keyboard-response","115","1493815","0.0-115.0","DA054711DEA64AF0955AB1E6102A531A","019cedd3-4ef9-712b-a1c6-d0d7d8cc024e","019cedc9-bfe1-7bb5-8857-de065a1e03dd","","null","
                <div class=""stimulus-container"">
                    <img src=""images/schematic_sequence/interview_scheme/interview_scheme_8.png"" class=""exp-image"">
                    <div class=""question-area""></div> 
                </div>","null","","","","","","","","","","",""
"","","","","","html-button-response","116","1494420","0.0-116.0","DA054711DEA64AF0955AB1E6102A531A","019cedd3-4ef9-712b-a1c6-d0d7d8cc024e","019cedc9-bfe1-7bb5-8857-de065a1e03dd","","604","
                <div class=""stimulus-container"">
                    <img src=""images/schematic_sequence/interview_scheme/interview_scheme_8.png"" class=""exp-image"">
                    <div class=""question-area"">
                        <p style=""font-size: 20px; font-weight: bold; margin: 0;"">Is there a person in this image?</p>
                    </div>
                </div>","0","main_experiment_trial","8","interview_scheme","schematic_sequence","","","","","","",""
"","","","","","html-keyboard-response","117","1499430","0.0-117.0","DA054711DEA64AF0955AB1E6102A531A","019cedd3-4ef9-712b-a1c6-d0d7d8cc024e","019cedc9-bfe1-7bb5-8857-de065a1e03dd","","null","
                <div class=""stimulus-container"">
                    <img src=""images/schematic_sequence/interview_scheme/interview_scheme_9.png"" class=""exp-image"">
                    <div class=""question-area""></div> 
                </div>","null","","","","","","","","","","",""
"","","","","","html-button-response","118","1500373","0.0-118.0","DA054711DEA64AF0955AB1E6102A531A","019cedd3-4ef9-712b-a1c6-d0d7d8cc024e","019cedc9-bfe1-7bb5-8857-de065a1e03dd","","942","
                <div class=""stimulus-container"">
                    <img src=""images/schematic_sequence/interview_scheme/interview_scheme_9.png"" class=""exp-image"">
                    <div class=""question-area"">
                        <p style=""font-size: 20px; font-weight: bold; margin: 0;"">Is there a person in this image?</p>
                    </div>
                </div>","0","main_experiment_trial","9","interview_scheme","schematic_sequence","","","","","","",""
"","","","","","html-keyboard-response","119","1505375","0.0-119.0","DA054711DEA64AF0955AB1E6102A531A","019cedd3-4ef9-712b-a1c6-d0d7d8cc024e","019cedc9-bfe1-7bb5-8857-de065a1e03dd","","null","
                <div class=""stimulus-container"">
                    <img src=""images/schematic_sequence/interview_scheme/interview_scheme_ten.png"" class=""exp-image"">
                    <div class=""question-area""></div> 
                </div>","null","","","","","","","","","","",""
"","","","","","html-button-response","120","1507308","0.0-120.0","DA054711DEA64AF0955AB1E6102A531A","019cedd3-4ef9-712b-a1c6-d0d7d8cc024e","019cedc9-bfe1-7bb5-8857-de065a1e03dd","","1931","
                <div class=""stimulus-container"">
                    <img src=""images/schematic_sequence/interview_scheme/interview_scheme_ten.png"" class=""exp-image"">
                    <div class=""question-area"">
                        <p style=""font-size: 20px; font-weight: bold; margin: 0;"">Is there a person in this image?</p>
                    </div>
                </div>","0","main_experiment_trial","ten","interview_scheme","schematic_sequence","","","","","","",""
"","","","","","html-keyboard-response","121","1508313","0.0-121.0","DA054711DEA64AF0955AB1E6102A531A","019cedd3-4ef9-712b-a1c6-d0d7d8cc024e","019cedc9-bfe1-7bb5-8857-de065a1e03dd","","null","<div style=""background-color: white; width: 100vw; height: 100vh;""></div>","null","","","","","","","","","","",""
"","","","","","html-keyboard-response","122","1513327","0.0-122.0","DA054711DEA64AF0955AB1E6102A531A","019cedd3-4ef9-712b-a1c6-d0d7d8cc024e","019cedc9-bfe1-7bb5-8857-de065a1e03dd","","null","
                <div class=""stimulus-container"">
                    <img src=""images/causal_sequence/the_performance_causal/the_performance_causal_1.png"" class=""exp-image"">
                    <div class=""question-area""></div> 
                </div>","null","","","","","","","","","","",""
"","","","","","html-button-response","123","1513711","0.0-123.0","DA054711DEA64AF0955AB1E6102A531A","019cedd3-4ef9-712b-a1c6-d0d7d8cc024e","019cedc9-bfe1-7bb5-8857-de065a1e03dd","","383","
                <div class=""stimulus-container"">
                    <img src=""images/causal_sequence/the_performance_causal/the_performance_causal_1.png"" class=""exp-image"">
                    <div class=""question-area"">
                        <p style=""font-size: 20px; font-weight: bold; margin: 0;"">Is there a person in this image?</p>
                    </div>
                </div>","0","main_experiment_trial","1","the_performance_causal","causal_sequence","","","","","","",""
"","","","","","html-keyboard-response","124","1518720","0.0-124.0","DA054711DEA64AF0955AB1E6102A531A","019cedd3-4ef9-712b-a1c6-d0d7d8cc024e","019cedc9-bfe1-7bb5-8857-de065a1e03dd","","null","
                <div class=""stimulus-container"">
                    <img src=""images/causal_sequence/the_performance_causal/the_performance_causal_2.png"" class=""exp-image"">
                    <div class=""question-area""></div> 
                </div>","null","","","","","","","","","","",""
"","","","","","html-button-response","125","1519141","0.0-125.0","DA054711DEA64AF0955AB1E6102A531A","019cedd3-4ef9-712b-a1c6-d0d7d8cc024e","019cedc9-bfe1-7bb5-8857-de065a1e03dd","","420","
                <div class=""stimulus-container"">
                    <img src=""images/causal_sequence/the_performance_causal/the_performance_causal_2.png"" class=""exp-image"">
                    <div class=""question-area"">
                        <p style=""font-size: 20px; font-weight: bold; margin: 0;"">Is there a person in this image?</p>
                    </div>
                </div>","0","main_experiment_trial","2","the_performance_causal","causal_sequence","","","","","","",""
"","","","","","html-keyboard-response","126","1524152","0.0-126.0","DA054711DEA64AF0955AB1E6102A531A","019cedd3-4ef9-712b-a1c6-d0d7d8cc024e","019cedc9-bfe1-7bb5-8857-de065a1e03dd","","null","
                <div class=""stimulus-container"">
                    <img src=""images/causal_sequence/the_performance_causal/the_performance_causal_3.png"" class=""exp-image"">
                    <div class=""question-area""></div> 
                </div>","null","","","","","","","","","","",""
"","","","","","html-button-response","127","1524632","0.0-127.0","DA054711DEA64AF0955AB1E6102A531A","019cedd3-4ef9-712b-a1c6-d0d7d8cc024e","019cedc9-bfe1-7bb5-8857-de065a1e03dd","","479","
                <div class=""stimulus-container"">
                    <img src=""images/causal_sequence/the_performance_causal/the_performance_causal_3.png"" class=""exp-image"">
                    <div class=""question-area"">
                        <p style=""font-size: 20px; font-weight: bold; margin: 0;"">Is there a person in this image?</p>
                    </div>
                </div>","0","main_experiment_trial","3","the_performance_causal","causal_sequence","","","","","","",""
"","","","","","html-keyboard-response","128","1529645","0.0-128.0","DA054711DEA64AF0955AB1E6102A531A","019cedd3-4ef9-712b-a1c6-d0d7d8cc024e","019cedc9-bfe1-7bb5-8857-de065a1e03dd","","null","
                <div class=""stimulus-container"">
                    <img src=""images/causal_sequence/the_performance_causal/the_performance_causal_4.png"" class=""exp-image"">
                    <div class=""question-area""></div> 
                </div>","null","","","","","","","","","","",""
"","","","","","html-button-response","129","1530431","0.0-129.0","DA054711DEA64AF0955AB1E6102A531A","019cedd3-4ef9-712b-a1c6-d0d7d8cc024e","019cedc9-bfe1-7bb5-8857-de065a1e03dd","","785","
                <div class=""stimulus-container"">
                    <img src=""images/causal_sequence/the_performance_causal/the_performance_causal_4.png"" class=""exp-image"">
                    <div class=""question-area"">
                        <p style=""font-size: 20px; font-weight: bold; margin: 0;"">Is there a person in this image?</p>
                    </div>
                </div>","0","main_experiment_trial","4","the_performance_causal","causal_sequence","","","","","","",""
"","","","","","html-keyboard-response","130","1535442","0.0-130.0","DA054711DEA64AF0955AB1E6102A531A","019cedd3-4ef9-712b-a1c6-d0d7d8cc024e","019cedc9-bfe1-7bb5-8857-de065a1e03dd","","null","
                <div class=""stimulus-container"">
                    <img src=""images/causal_sequence/the_performance_causal/the_performance_causal_5.png"" class=""exp-image"">
                    <div class=""question-area""></div> 
                </div>","null","","","","","","","","","","",""
"","","","","","html-button-response","131","1536116","0.0-131.0","DA054711DEA64AF0955AB1E6102A531A","019cedd3-4ef9-712b-a1c6-d0d7d8cc024e","019cedc9-bfe1-7bb5-8857-de065a1e03dd","","673","
                <div class=""stimulus-container"">
                    <img src=""images/causal_sequence/the_performance_causal/the_performance_causal_5.png"" class=""exp-image"">
                    <div class=""question-area"">
                        <p style=""font-size: 20px; font-weight: bold; margin: 0;"">Is there a person in this image?</p>
                    </div>
                </div>","0","main_experiment_trial","5","the_performance_causal","causal_sequence","","","","","","",""
"","","","","","html-keyboard-response","132","1541118","0.0-132.0","DA054711DEA64AF0955AB1E6102A531A","019cedd3-4ef9-712b-a1c6-d0d7d8cc024e","019cedc9-bfe1-7bb5-8857-de065a1e03dd","","null","
                <div class=""stimulus-container"">
                    <img src=""images/causal_sequence/the_performance_causal/the_performance_causal_6.png"" class=""exp-image"">
                    <div class=""question-area""></div> 
                </div>","null","","","","","","","","","","",""
"","","","","","html-button-response","133","1542310","0.0-133.0","DA054711DEA64AF0955AB1E6102A531A","019cedd3-4ef9-712b-a1c6-d0d7d8cc024e","019cedc9-bfe1-7bb5-8857-de065a1e03dd","","1191","
                <div class=""stimulus-container"">
                    <img src=""images/causal_sequence/the_performance_causal/the_performance_causal_6.png"" class=""exp-image"">
                    <div class=""question-area"">
                        <p style=""font-size: 20px; font-weight: bold; margin: 0;"">Is there a person in this image?</p>
                    </div>
                </div>","0","main_experiment_trial","6","the_performance_causal","causal_sequence","","","","","","",""
"","","","","","html-keyboard-response","134","1547324","0.0-134.0","DA054711DEA64AF0955AB1E6102A531A","019cedd3-4ef9-712b-a1c6-d0d7d8cc024e","019cedc9-bfe1-7bb5-8857-de065a1e03dd","","null","
                <div class=""stimulus-container"">
                    <img src=""images/causal_sequence/the_performance_causal/the_performance_causal_7.png"" class=""exp-image"">
                    <div class=""question-area""></div> 
                </div>","null","","","","","","","","","","",""
"","","","","","html-button-response","135","1547850","0.0-135.0","DA054711DEA64AF0955AB1E6102A531A","019cedd3-4ef9-712b-a1c6-d0d7d8cc024e","019cedc9-bfe1-7bb5-8857-de065a1e03dd","","524","
                <div class=""stimulus-container"">
                    <img src=""images/causal_sequence/the_performance_causal/the_performance_causal_7.png"" class=""exp-image"">
                    <div class=""question-area"">
                        <p style=""font-size: 20px; font-weight: bold; margin: 0;"">Is there a person in this image?</p>
                    </div>
                </div>","0","main_experiment_trial","7","the_performance_causal","causal_sequence","","","","","","",""
"","","","","","html-keyboard-response","136","1552859","0.0-136.0","DA054711DEA64AF0955AB1E6102A531A","019cedd3-4ef9-712b-a1c6-d0d7d8cc024e","019cedc9-bfe1-7bb5-8857-de065a1e03dd","","null","
                <div class=""stimulus-container"">
                    <img src=""images/causal_sequence/the_performance_causal/the_performance_causal_8.png"" class=""exp-image"">
                    <div class=""question-area""></div> 
                </div>","null","","","","","","","","","","",""
"","","","","","html-button-response","137","1553704","0.0-137.0","DA054711DEA64AF0955AB1E6102A531A","019cedd3-4ef9-712b-a1c6-d0d7d8cc024e","019cedc9-bfe1-7bb5-8857-de065a1e03dd","","844","
                <div class=""stimulus-container"">
                    <img src=""images/causal_sequence/the_performance_causal/the_performance_causal_8.png"" class=""exp-image"">
                    <div class=""question-area"">
                        <p style=""font-size: 20px; font-weight: bold; margin: 0;"">Is there a person in this image?</p>
                    </div>
                </div>","0","main_experiment_trial","8","the_performance_causal","causal_sequence","","","","","","",""
"","","","","","html-keyboard-response","138","1558715","0.0-138.0","DA054711DEA64AF0955AB1E6102A531A","019cedd3-4ef9-712b-a1c6-d0d7d8cc024e","019cedc9-bfe1-7bb5-8857-de065a1e03dd","","null","
                <div class=""stimulus-container"">
                    <img src=""images/causal_sequence/the_performance_causal/the_performance_causal_9.png"" class=""exp-image"">
                    <div class=""question-area""></div> 
                </div>","null","","","","","","","","","","",""
"","","","","","html-button-response","139","1559500","0.0-139.0","DA054711DEA64AF0955AB1E6102A531A","019cedd3-4ef9-712b-a1c6-d0d7d8cc024e","019cedc9-bfe1-7bb5-8857-de065a1e03dd","","784","
                <div class=""stimulus-container"">
                    <img src=""images/causal_sequence/the_performance_causal/the_performance_causal_9.png"" class=""exp-image"">
                    <div class=""question-area"">
                        <p style=""font-size: 20px; font-weight: bold; margin: 0;"">Is there a person in this image?</p>
                    </div>
                </div>","0","main_experiment_trial","9","the_performance_causal","causal_sequence","","","","","","",""
"","","","","","html-keyboard-response","140","1564511","0.0-140.0","DA054711DEA64AF0955AB1E6102A531A","019cedd3-4ef9-712b-a1c6-d0d7d8cc024e","019cedc9-bfe1-7bb5-8857-de065a1e03dd","","null","
                <div class=""stimulus-container"">
                    <img src=""images/causal_sequence/the_performance_causal/the_performance_causal_ten.png"" class=""exp-image"">
                    <div class=""question-area""></div> 
                </div>","null","","","","","","","","","","",""
"","","","","","html-button-response","141","1564716","0.0-141.0","DA054711DEA64AF0955AB1E6102A531A","019cedd3-4ef9-712b-a1c6-d0d7d8cc024e","019cedc9-bfe1-7bb5-8857-de065a1e03dd","","203","
                <div class=""stimulus-container"">
                    <img src=""images/causal_sequence/the_performance_causal/the_performance_causal_ten.png"" class=""exp-image"">
                    <div class=""question-area"">
                        <p style=""font-size: 20px; font-weight: bold; margin: 0;"">Is there a person in this image?</p>
                    </div>
                </div>","0","main_experiment_trial","ten","the_performance_causal","causal_sequence","","","","","","",""
"","","","","","html-keyboard-response","142","1565731","0.0-142.0","DA054711DEA64AF0955AB1E6102A531A","019cedd3-4ef9-712b-a1c6-d0d7d8cc024e","019cedc9-bfe1-7bb5-8857-de065a1e03dd","","null","<div style=""background-color: white; width: 100vw; height: 100vh;""></div>","null","","","","","","","","","","",""
"","","","","","html-keyboard-response","143","1570735","0.0-143.0","DA054711DEA64AF0955AB1E6102A531A","019cedd3-4ef9-712b-a1c6-d0d7d8cc024e","019cedc9-bfe1-7bb5-8857-de065a1e03dd","","null","
                <div class=""stimulus-container"">
                    <img src=""images/causal_sequence/saving_a_cat_causal/saving_a_cat_causal_1.png"" class=""exp-image"">
                    <div class=""question-area""></div> 
                </div>","null","","","","","","","","","","",""
"","","","","","html-button-response","144","1571884","0.0-144.0","DA054711DEA64AF0955AB1E6102A531A","019cedd3-4ef9-712b-a1c6-d0d7d8cc024e","019cedc9-bfe1-7bb5-8857-de065a1e03dd","","1149","
                <div class=""stimulus-container"">
                    <img src=""images/causal_sequence/saving_a_cat_causal/saving_a_cat_causal_1.png"" class=""exp-image"">
                    <div class=""question-area"">
                        <p style=""font-size: 20px; font-weight: bold; margin: 0;"">Is there a person in this image?</p>
                    </div>
                </div>","0","main_experiment_trial","1","saving_a_cat_causal","causal_sequence","","","","","","",""
"","","","","","html-keyboard-response","145","1576899","0.0-145.0","DA054711DEA64AF0955AB1E6102A531A","019cedd3-4ef9-712b-a1c6-d0d7d8cc024e","019cedc9-bfe1-7bb5-8857-de065a1e03dd","","null","
                <div class=""stimulus-container"">
                    <img src=""images/causal_sequence/saving_a_cat_causal/saving_a_cat_causal_2.png"" class=""exp-image"">
                    <div class=""question-area""></div> 
                </div>","null","","","","","","","","","","",""
"","","","","","html-button-response","146","1579900","0.0-146.0","DA054711DEA64AF0955AB1E6102A531A","019cedd3-4ef9-712b-a1c6-d0d7d8cc024e","019cedc9-bfe1-7bb5-8857-de065a1e03dd","","null","
                <div class=""stimulus-container"">
                    <img src=""images/causal_sequence/saving_a_cat_causal/saving_a_cat_causal_2.png"" class=""exp-image"">
                    <div class=""question-area"">
                        <p style=""font-size: 20px; font-weight: bold; margin: 0;"">Is there a person in this image?</p>
                    </div>
                </div>","null","main_experiment_trial","2","saving_a_cat_causal","causal_sequence","","","","","","",""
"","","","","","html-keyboard-response","147","1584913","0.0-147.0","DA054711DEA64AF0955AB1E6102A531A","019cedd3-4ef9-712b-a1c6-d0d7d8cc024e","019cedc9-bfe1-7bb5-8857-de065a1e03dd","","null","
                <div class=""stimulus-container"">
                    <img src=""images/causal_sequence/saving_a_cat_causal/saving_a_cat_causal_3.png"" class=""exp-image"">
                    <div class=""question-area""></div> 
                </div>","null","","","","","","","","","","",""
"","","","","","html-button-response","148","1585780","0.0-148.0","DA054711DEA64AF0955AB1E6102A531A","019cedd3-4ef9-712b-a1c6-d0d7d8cc024e","019cedc9-bfe1-7bb5-8857-de065a1e03dd","","866","
                <div class=""stimulus-container"">
                    <img src=""images/causal_sequence/saving_a_cat_causal/saving_a_cat_causal_3.png"" class=""exp-image"">
                    <div class=""question-area"">
                        <p style=""font-size: 20px; font-weight: bold; margin: 0;"">Is there a person in this image?</p>
                    </div>
                </div>","1","main_experiment_trial","3","saving_a_cat_causal","causal_sequence","","","","","","",""
"","","","","","html-keyboard-response","149","1590784","0.0-149.0","DA054711DEA64AF0955AB1E6102A531A","019cedd3-4ef9-712b-a1c6-d0d7d8cc024e","019cedc9-bfe1-7bb5-8857-de065a1e03dd","","null","
                <div class=""stimulus-container"">
                    <img src=""images/causal_sequence/saving_a_cat_causal/saving_a_cat_causal_4.png"" class=""exp-image"">
                    <div class=""question-area""></div> 
                </div>","null","","","","","","","","","","",""
"","","","","","html-button-response","150","1591605","0.0-150.0","DA054711DEA64AF0955AB1E6102A531A","019cedd3-4ef9-712b-a1c6-d0d7d8cc024e","019cedc9-bfe1-7bb5-8857-de065a1e03dd","","820","
                <div class=""stimulus-container"">
                    <img src=""images/causal_sequence/saving_a_cat_causal/saving_a_cat_causal_4.png"" class=""exp-image"">
                    <div class=""question-area"">
                        <p style=""font-size: 20px; font-weight: bold; margin: 0;"">Is there a person in this image?</p>
                    </div>
                </div>","0","main_experiment_trial","4","saving_a_cat_causal","causal_sequence","","","","","","",""
"","","","","","html-keyboard-response","151","1596606","0.0-151.0","DA054711DEA64AF0955AB1E6102A531A","019cedd3-4ef9-712b-a1c6-d0d7d8cc024e","019cedc9-bfe1-7bb5-8857-de065a1e03dd","","null","
                <div class=""stimulus-container"">
                    <img src=""images/causal_sequence/saving_a_cat_causal/saving_a_cat_causal_5.png"" class=""exp-image"">
                    <div class=""question-area""></div> 
                </div>","null","","","","","","","","","","",""
"","","","","","html-button-response","152","1597558","0.0-152.0","DA054711DEA64AF0955AB1E6102A531A","019cedd3-4ef9-712b-a1c6-d0d7d8cc024e","019cedc9-bfe1-7bb5-8857-de065a1e03dd","","951","
                <div class=""stimulus-container"">
                    <img src=""images/causal_sequence/saving_a_cat_causal/saving_a_cat_causal_5.png"" class=""exp-image"">
                    <div class=""question-area"">
                        <p style=""font-size: 20px; font-weight: bold; margin: 0;"">Is there a person in this image?</p>
                    </div>
                </div>","0","main_experiment_trial","5","saving_a_cat_causal","causal_sequence","","","","","","",""
"","","","","","html-keyboard-response","153","1602570","0.0-153.0","DA054711DEA64AF0955AB1E6102A531A","019cedd3-4ef9-712b-a1c6-d0d7d8cc024e","019cedc9-bfe1-7bb5-8857-de065a1e03dd","","null","
                <div class=""stimulus-container"">
                    <img src=""images/causal_sequence/saving_a_cat_causal/saving_a_cat_causal_6.png"" class=""exp-image"">
                    <div class=""question-area""></div> 
                </div>","null","","","","","","","","","","",""
"","","","","","html-button-response","154","1603649","0.0-154.0","DA054711DEA64AF0955AB1E6102A531A","019cedd3-4ef9-712b-a1c6-d0d7d8cc024e","019cedc9-bfe1-7bb5-8857-de065a1e03dd","","1078","
                <div class=""stimulus-container"">
                    <img src=""images/causal_sequence/saving_a_cat_causal/saving_a_cat_causal_6.png"" class=""exp-image"">
                    <div class=""question-area"">
                        <p style=""font-size: 20px; font-weight: bold; margin: 0;"">Is there a person in this image?</p>
                    </div>
                </div>","0","main_experiment_trial","6","saving_a_cat_causal","causal_sequence","","","","","","",""
"","","","","","html-keyboard-response","155","1608655","0.0-155.0","DA054711DEA64AF0955AB1E6102A531A","019cedd3-4ef9-712b-a1c6-d0d7d8cc024e","019cedc9-bfe1-7bb5-8857-de065a1e03dd","","null","
                <div class=""stimulus-container"">
                    <img src=""images/causal_sequence/saving_a_cat_causal/saving_a_cat_causal_7.png"" class=""exp-image"">
                    <div class=""question-area""></div> 
                </div>","null","","","","","","","","","","",""
"","","","","","html-button-response","156","1609066","0.0-156.0","DA054711DEA64AF0955AB1E6102A531A","019cedd3-4ef9-712b-a1c6-d0d7d8cc024e","019cedc9-bfe1-7bb5-8857-de065a1e03dd","","411","
                <div class=""stimulus-container"">
                    <img src=""images/causal_sequence/saving_a_cat_causal/saving_a_cat_causal_7.png"" class=""exp-image"">
                    <div class=""question-area"">
                        <p style=""font-size: 20px; font-weight: bold; margin: 0;"">Is there a person in this image?</p>
                    </div>
                </div>","0","main_experiment_trial","7","saving_a_cat_causal","causal_sequence","","","","","","",""
"","","","","","html-keyboard-response","157","1614078","0.0-157.0","DA054711DEA64AF0955AB1E6102A531A","019cedd3-4ef9-712b-a1c6-d0d7d8cc024e","019cedc9-bfe1-7bb5-8857-de065a1e03dd","","null","
                <div class=""stimulus-container"">
                    <img src=""images/causal_sequence/saving_a_cat_causal/saving_a_cat_causal_8.png"" class=""exp-image"">
                    <div class=""question-area""></div> 
                </div>","null","","","","","","","","","","",""
"","","","","","html-button-response","158","1615646","0.0-158.0","DA054711DEA64AF0955AB1E6102A531A","019cedd3-4ef9-712b-a1c6-d0d7d8cc024e","019cedc9-bfe1-7bb5-8857-de065a1e03dd","","1568","
                <div class=""stimulus-container"">
                    <img src=""images/causal_sequence/saving_a_cat_causal/saving_a_cat_causal_8.png"" class=""exp-image"">
                    <div class=""question-area"">
                        <p style=""font-size: 20px; font-weight: bold; margin: 0;"">Is there a person in this image?</p>
                    </div>
                </div>","0","main_experiment_trial","8","saving_a_cat_causal","causal_sequence","","","","","","",""
"","","","","","html-keyboard-response","159","1620654","0.0-159.0","DA054711DEA64AF0955AB1E6102A531A","019cedd3-4ef9-712b-a1c6-d0d7d8cc024e","019cedc9-bfe1-7bb5-8857-de065a1e03dd","","null","
                <div class=""stimulus-container"">
                    <img src=""images/causal_sequence/saving_a_cat_causal/saving_a_cat_causal_9.png"" class=""exp-image"">
                    <div class=""question-area""></div> 
                </div>","null","","","","","","","","","","",""
"","","","","","html-button-response","160","1620951","0.0-160.0","DA054711DEA64AF0955AB1E6102A531A","019cedd3-4ef9-712b-a1c6-d0d7d8cc024e","019cedc9-bfe1-7bb5-8857-de065a1e03dd","","296","
                <div class=""stimulus-container"">
                    <img src=""images/causal_sequence/saving_a_cat_causal/saving_a_cat_causal_9.png"" class=""exp-image"">
                    <div class=""question-area"">
                        <p style=""font-size: 20px; font-weight: bold; margin: 0;"">Is there a person in this image?</p>
                    </div>
                </div>","0","main_experiment_trial","9","saving_a_cat_causal","causal_sequence","","","","","","",""
"","","","","","html-keyboard-response","161","1625961","0.0-161.0","DA054711DEA64AF0955AB1E6102A531A","019cedd3-4ef9-712b-a1c6-d0d7d8cc024e","019cedc9-bfe1-7bb5-8857-de065a1e03dd","","null","
                <div class=""stimulus-container"">
                    <img src=""images/causal_sequence/saving_a_cat_causal/saving_a_cat_causal_ten.png"" class=""exp-image"">
                    <div class=""question-area""></div> 
                </div>","null","","","","","","","","","","",""
"","","","","","html-button-response","162","1627634","0.0-162.0","DA054711DEA64AF0955AB1E6102A531A","019cedd3-4ef9-712b-a1c6-d0d7d8cc024e","019cedc9-bfe1-7bb5-8857-de065a1e03dd","","1673","
                <div class=""stimulus-container"">
                    <img src=""images/causal_sequence/saving_a_cat_causal/saving_a_cat_causal_ten.png"" class=""exp-image"">
                    <div class=""question-area"">
                        <p style=""font-size: 20px; font-weight: bold; margin: 0;"">Is there a person in this image?</p>
                    </div>
                </div>","0","main_experiment_trial","ten","saving_a_cat_causal","causal_sequence","","","","","","",""
"","","","","","html-keyboard-response","163","1628641","0.0-163.0","DA054711DEA64AF0955AB1E6102A531A","019cedd3-4ef9-712b-a1c6-d0d7d8cc024e","019cedc9-bfe1-7bb5-8857-de065a1e03dd","","null","<div style=""background-color: white; width: 100vw; height: 100vh;""></div>","null","","","","","","","","","","",""
"","","","","","html-keyboard-response","164","1633653","0.0-164.0","DA054711DEA64AF0955AB1E6102A531A","019cedd3-4ef9-712b-a1c6-d0d7d8cc024e","019cedc9-bfe1-7bb5-8857-de065a1e03dd","","null","
                <div class=""stimulus-container"">
                    <img src=""images/schematic_sequence/supermarket_scheme/supermarket_scheme_1.png"" class=""exp-image"">
                    <div class=""question-area""></div> 
                </div>","null","","","","","","","","","","",""
"","","","","","html-button-response","165","1634183","0.0-165.0","DA054711DEA64AF0955AB1E6102A531A","019cedd3-4ef9-712b-a1c6-d0d7d8cc024e","019cedc9-bfe1-7bb5-8857-de065a1e03dd","","529","
                <div class=""stimulus-container"">
                    <img src=""images/schematic_sequence/supermarket_scheme/supermarket_scheme_1.png"" class=""exp-image"">
                    <div class=""question-area"">
                        <p style=""font-size: 20px; font-weight: bold; margin: 0;"">Is there a person in this image?</p>
                    </div>
                </div>","1","main_experiment_trial","1","supermarket_scheme","schematic_sequence","","","","","","",""
"","","","","","html-keyboard-response","166","1639190","0.0-166.0","DA054711DEA64AF0955AB1E6102A531A","019cedd3-4ef9-712b-a1c6-d0d7d8cc024e","019cedc9-bfe1-7bb5-8857-de065a1e03dd","","null","
                <div class=""stimulus-container"">
                    <img src=""images/schematic_sequence/supermarket_scheme/supermarket_scheme_2.png"" class=""exp-image"">
                    <div class=""question-area""></div> 
                </div>","null","","","","","","","","","","",""
"","","","","","html-button-response","167","1640071","0.0-167.0","DA054711DEA64AF0955AB1E6102A531A","019cedd3-4ef9-712b-a1c6-d0d7d8cc024e","019cedc9-bfe1-7bb5-8857-de065a1e03dd","","880","
                <div class=""stimulus-container"">
                    <img src=""images/schematic_sequence/supermarket_scheme/supermarket_scheme_2.png"" class=""exp-image"">
                    <div class=""question-area"">
                        <p style=""font-size: 20px; font-weight: bold; margin: 0;"">Is there a person in this image?</p>
                    </div>
                </div>","1","main_experiment_trial","2","supermarket_scheme","schematic_sequence","","","","","","",""
"","","","","","html-keyboard-response","168","1645080","0.0-168.0","DA054711DEA64AF0955AB1E6102A531A","019cedd3-4ef9-712b-a1c6-d0d7d8cc024e","019cedc9-bfe1-7bb5-8857-de065a1e03dd","","null","
                <div class=""stimulus-container"">
                    <img src=""images/schematic_sequence/supermarket_scheme/supermarket_scheme_3.png"" class=""exp-image"">
                    <div class=""question-area""></div> 
                </div>","null","","","","","","","","","","",""
"","","","","","html-button-response","169","1646213","0.0-169.0","DA054711DEA64AF0955AB1E6102A531A","019cedd3-4ef9-712b-a1c6-d0d7d8cc024e","019cedc9-bfe1-7bb5-8857-de065a1e03dd","","1131","
                <div class=""stimulus-container"">
                    <img src=""images/schematic_sequence/supermarket_scheme/supermarket_scheme_3.png"" class=""exp-image"">
                    <div class=""question-area"">
                        <p style=""font-size: 20px; font-weight: bold; margin: 0;"">Is there a person in this image?</p>
                    </div>
                </div>","1","main_experiment_trial","3","supermarket_scheme","schematic_sequence","","","","","","",""
"","","","","","html-keyboard-response","170","1651214","0.0-170.0","DA054711DEA64AF0955AB1E6102A531A","019cedd3-4ef9-712b-a1c6-d0d7d8cc024e","019cedc9-bfe1-7bb5-8857-de065a1e03dd","","null","
                <div class=""stimulus-container"">
                    <img src=""images/schematic_sequence/supermarket_scheme/supermarket_scheme_4.png"" class=""exp-image"">
                    <div class=""question-area""></div> 
                </div>","null","","","","","","","","","","",""
"","","","","","html-button-response","171","1651759","0.0-171.0","DA054711DEA64AF0955AB1E6102A531A","019cedd3-4ef9-712b-a1c6-d0d7d8cc024e","019cedc9-bfe1-7bb5-8857-de065a1e03dd","","544","
                <div class=""stimulus-container"">
                    <img src=""images/schematic_sequence/supermarket_scheme/supermarket_scheme_4.png"" class=""exp-image"">
                    <div class=""question-area"">
                        <p style=""font-size: 20px; font-weight: bold; margin: 0;"">Is there a person in this image?</p>
                    </div>
                </div>","0","main_experiment_trial","4","supermarket_scheme","schematic_sequence","","","","","","",""
"","","","","","html-keyboard-response","172","1656772","0.0-172.0","DA054711DEA64AF0955AB1E6102A531A","019cedd3-4ef9-712b-a1c6-d0d7d8cc024e","019cedc9-bfe1-7bb5-8857-de065a1e03dd","","null","
                <div class=""stimulus-container"">
                    <img src=""images/schematic_sequence/supermarket_scheme/supermarket_scheme_5.png"" class=""exp-image"">
                    <div class=""question-area""></div> 
                </div>","null","","","","","","","","","","",""
"","","","","","html-button-response","173","1657185","0.0-173.0","DA054711DEA64AF0955AB1E6102A531A","019cedd3-4ef9-712b-a1c6-d0d7d8cc024e","019cedc9-bfe1-7bb5-8857-de065a1e03dd","","412","
                <div class=""stimulus-container"">
                    <img src=""images/schematic_sequence/supermarket_scheme/supermarket_scheme_5.png"" class=""exp-image"">
                    <div class=""question-area"">
                        <p style=""font-size: 20px; font-weight: bold; margin: 0;"">Is there a person in this image?</p>
                    </div>
                </div>","1","main_experiment_trial","5","supermarket_scheme","schematic_sequence","","","","","","",""
"","","","","","html-keyboard-response","174","1662197","0.0-174.0","DA054711DEA64AF0955AB1E6102A531A","019cedd3-4ef9-712b-a1c6-d0d7d8cc024e","019cedc9-bfe1-7bb5-8857-de065a1e03dd","","null","
                <div class=""stimulus-container"">
                    <img src=""images/schematic_sequence/supermarket_scheme/supermarket_scheme_6.png"" class=""exp-image"">
                    <div class=""question-area""></div> 
                </div>","null","","","","","","","","","","",""
"","","","","","html-button-response","175","1662985","0.0-175.0","DA054711DEA64AF0955AB1E6102A531A","019cedd3-4ef9-712b-a1c6-d0d7d8cc024e","019cedc9-bfe1-7bb5-8857-de065a1e03dd","","788","
                <div class=""stimulus-container"">
                    <img src=""images/schematic_sequence/supermarket_scheme/supermarket_scheme_6.png"" class=""exp-image"">
                    <div class=""question-area"">
                        <p style=""font-size: 20px; font-weight: bold; margin: 0;"">Is there a person in this image?</p>
                    </div>
                </div>","0","main_experiment_trial","6","supermarket_scheme","schematic_sequence","","","","","","",""
"","","","","","html-keyboard-response","176","1667993","0.0-176.0","DA054711DEA64AF0955AB1E6102A531A","019cedd3-4ef9-712b-a1c6-d0d7d8cc024e","019cedc9-bfe1-7bb5-8857-de065a1e03dd","","null","
                <div class=""stimulus-container"">
                    <img src=""images/schematic_sequence/supermarket_scheme/supermarket_scheme_7.png"" class=""exp-image"">
                    <div class=""question-area""></div> 
                </div>","null","","","","","","","","","","",""
"","","","","","html-button-response","177","1668419","0.0-177.0","DA054711DEA64AF0955AB1E6102A531A","019cedd3-4ef9-712b-a1c6-d0d7d8cc024e","019cedc9-bfe1-7bb5-8857-de065a1e03dd","","425","
                <div class=""stimulus-container"">
                    <img src=""images/schematic_sequence/supermarket_scheme/supermarket_scheme_7.png"" class=""exp-image"">
                    <div class=""question-area"">
                        <p style=""font-size: 20px; font-weight: bold; margin: 0;"">Is there a person in this image?</p>
                    </div>
                </div>","0","main_experiment_trial","7","supermarket_scheme","schematic_sequence","","","","","","",""
"","","","","","html-keyboard-response","178","1673425","0.0-178.0","DA054711DEA64AF0955AB1E6102A531A","019cedd3-4ef9-712b-a1c6-d0d7d8cc024e","019cedc9-bfe1-7bb5-8857-de065a1e03dd","","null","
                <div class=""stimulus-container"">
                    <img src=""images/schematic_sequence/supermarket_scheme/supermarket_scheme_8.png"" class=""exp-image"">
                    <div class=""question-area""></div> 
                </div>","null","","","","","","","","","","",""
"","","","","","html-button-response","179","1674170","0.0-179.0","DA054711DEA64AF0955AB1E6102A531A","019cedd3-4ef9-712b-a1c6-d0d7d8cc024e","019cedc9-bfe1-7bb5-8857-de065a1e03dd","","745","
                <div class=""stimulus-container"">
                    <img src=""images/schematic_sequence/supermarket_scheme/supermarket_scheme_8.png"" class=""exp-image"">
                    <div class=""question-area"">
                        <p style=""font-size: 20px; font-weight: bold; margin: 0;"">Is there a person in this image?</p>
                    </div>
                </div>","0","main_experiment_trial","8","supermarket_scheme","schematic_sequence","","","","","","",""
"","","","","","html-keyboard-response","180","1679172","0.0-180.0","DA054711DEA64AF0955AB1E6102A531A","019cedd3-4ef9-712b-a1c6-d0d7d8cc024e","019cedc9-bfe1-7bb5-8857-de065a1e03dd","","null","
                <div class=""stimulus-container"">
                    <img src=""images/schematic_sequence/supermarket_scheme/supermarket_scheme_9.png"" class=""exp-image"">
                    <div class=""question-area""></div> 
                </div>","null","","","","","","","","","","",""
"","","","","","html-button-response","181","1682188","0.0-181.0","DA054711DEA64AF0955AB1E6102A531A","019cedd3-4ef9-712b-a1c6-d0d7d8cc024e","019cedc9-bfe1-7bb5-8857-de065a1e03dd","","null","
