"success","timeout","failed_images","failed_audio","failed_video","trial_type","trial_index","time_elapsed","internal_node_id","subject_id","study_id","session_id","view_history","rt","stimulus","response","task","image_index","folder","sequence_type","valuable_image_index","reward_type","chosen_image_index","target_X","correct_choice"
"true","false","[]","[]","[]","preload","0","4635","0.0-0.0","89903843D905492388B73C7CBFB3F04B","019cf834-a7c9-7326-80aa-af1d8aa209d4","019cf80d-4266-7117-8a51-54e13c84aca4","","","","","","","","","","","","",""
"","","","","","instructions","1","7592","0.0-1.0","89903843D905492388B73C7CBFB3F04B","019cf834-a7c9-7326-80aa-af1d8aa209d4","019cf80d-4266-7117-8a51-54e13c84aca4","[{""page_index"":0,""viewing_time"":2956}]","2956","","","","","","","","","","",""
"","","","","","instructions","2","9629","0.0-2.0","89903843D905492388B73C7CBFB3F04B","019cf834-a7c9-7326-80aa-af1d8aa209d4","019cf80d-4266-7117-8a51-54e13c84aca4","[{""page_index"":0,""viewing_time"":2037}]","2037","","","","","","","","","","",""
"true","","","","","fullscreen","3","11738","0.0-3.0","89903843D905492388B73C7CBFB3F04B","019cf834-a7c9-7326-80aa-af1d8aa209d4","019cf80d-4266-7117-8a51-54e13c84aca4","","1093","","","","","","","","","","",""
"","","","","","instructions","4","14681","0.0-4.0","89903843D905492388B73C7CBFB3F04B","019cf834-a7c9-7326-80aa-af1d8aa209d4","019cf80d-4266-7117-8a51-54e13c84aca4","[{""page_index"":0,""viewing_time"":2942}]","2942","","","","","","","","","","",""
"","","","","","instructions","5","16741","0.0-5.0","89903843D905492388B73C7CBFB3F04B","019cf834-a7c9-7326-80aa-af1d8aa209d4","019cf80d-4266-7117-8a51-54e13c84aca4","[{""page_index"":0,""viewing_time"":2060}]","2060","","","","","","","","","","",""
"","","","","","html-keyboard-response","6","20749","0.0-6.0","89903843D905492388B73C7CBFB3F04B","019cf834-a7c9-7326-80aa-af1d8aa209d4","019cf80d-4266-7117-8a51-54e13c84aca4","","null","
                <div class=""stimulus-container"">
                    <img src=""images/instructions/movie_1.png"" class=""exp-image"">
                    <div class=""question-area""></div> 
                </div>","null","","","","","","","","",""
"","","","","","html-button-response","7","22341","0.0-7.0","89903843D905492388B73C7CBFB3F04B","019cf834-a7c9-7326-80aa-af1d8aa209d4","019cf80d-4266-7117-8a51-54e13c84aca4","","1590","
                <div class=""stimulus-container"">
                    <img src=""images/instructions/movie_1.png"" class=""exp-image"">
                    <div class=""question-area"">
                        <p style=""font-size: 20px; font-weight: bold; margin: 0;"">Was there a person in this image?</p>
                    </div>
                </div>","0","example_question","1","","","","","","",""
"","","","","","html-keyboard-response","8","26356","0.0-8.0","89903843D905492388B73C7CBFB3F04B","019cf834-a7c9-7326-80aa-af1d8aa209d4","019cf80d-4266-7117-8a51-54e13c84aca4","","null","
                <div class=""stimulus-container"">
                    <img src=""images/instructions/movie_2.png"" class=""exp-image"">
                    <div class=""question-area""></div> 
                </div>","null","","","","","","","","",""
"","","","","","html-button-response","9","28040","0.0-9.0","89903843D905492388B73C7CBFB3F04B","019cf834-a7c9-7326-80aa-af1d8aa209d4","019cf80d-4266-7117-8a51-54e13c84aca4","","1683","
                <div class=""stimulus-container"">
                    <img src=""images/instructions/movie_2.png"" class=""exp-image"">
                    <div class=""question-area"">
                        <p style=""font-size: 20px; font-weight: bold; margin: 0;"">Was there a person in this image?</p>
                    </div>
                </div>","0","example_question","2","","","","","","",""
"","","","","","html-keyboard-response","10","32050","0.0-10.0","89903843D905492388B73C7CBFB3F04B","019cf834-a7c9-7326-80aa-af1d8aa209d4","019cf80d-4266-7117-8a51-54e13c84aca4","","null","
                <div class=""stimulus-container"">
                    <img src=""images/instructions/movie_3.png"" class=""exp-image"">
                    <div class=""question-area""></div> 
                </div>","null","","","","","","","","",""
"","","","","","html-button-response","11","32813","0.0-11.0","89903843D905492388B73C7CBFB3F04B","019cf834-a7c9-7326-80aa-af1d8aa209d4","019cf80d-4266-7117-8a51-54e13c84aca4","","762","
                <div class=""stimulus-container"">
                    <img src=""images/instructions/movie_3.png"" class=""exp-image"">
                    <div class=""question-area"">
                        <p style=""font-size: 20px; font-weight: bold; margin: 0;"">Was there a person in this image?</p>
                    </div>
                </div>","0","example_question","3","","","","","","",""
"","","","","","html-keyboard-response","12","36814","0.0-12.0","89903843D905492388B73C7CBFB3F04B","019cf834-a7c9-7326-80aa-af1d8aa209d4","019cf80d-4266-7117-8a51-54e13c84aca4","","null","
                <div class=""stimulus-container"">
                    <img src=""images/instructions/movie_4.png"" class=""exp-image"">
                    <div class=""question-area""></div> 
                </div>","null","","","","","","","","",""
"","","","","","html-button-response","13","37266","0.0-13.0","89903843D905492388B73C7CBFB3F04B","019cf834-a7c9-7326-80aa-af1d8aa209d4","019cf80d-4266-7117-8a51-54e13c84aca4","","450","
                <div class=""stimulus-container"">
                    <img src=""images/instructions/movie_4.png"" class=""exp-image"">
                    <div class=""question-area"">
                        <p style=""font-size: 20px; font-weight: bold; margin: 0;"">Was there a person in this image?</p>
                    </div>
                </div>","0","example_question","4","","","","","","",""
"","","","","","instructions","14","38585","0.0-14.0","89903843D905492388B73C7CBFB3F04B","019cf834-a7c9-7326-80aa-af1d8aa209d4","019cf80d-4266-7117-8a51-54e13c84aca4","[{""page_index"":0,""viewing_time"":1319}]","1320","","","","","","","","","","",""
"","","","","","instructions","15","42238","0.0-15.0","89903843D905492388B73C7CBFB3F04B","019cf834-a7c9-7326-80aa-af1d8aa209d4","019cf80d-4266-7117-8a51-54e13c84aca4","[{""page_index"":0,""viewing_time"":3651}]","3652","","","","","","","","","","",""
"","","","","","html-keyboard-response","16","43254","0.0-16.0","89903843D905492388B73C7CBFB3F04B","019cf834-a7c9-7326-80aa-af1d8aa209d4","019cf80d-4266-7117-8a51-54e13c84aca4","","null","<div style=""background-color: white; width: 100vw; height: 100vh;""></div>","null","","","","","","","","",""
"","","","","","html-keyboard-response","17","48266","0.0-17.0","89903843D905492388B73C7CBFB3F04B","019cf834-a7c9-7326-80aa-af1d8aa209d4","019cf80d-4266-7117-8a51-54e13c84aca4","","null","
                <div class=""stimulus-container"">
                    <img src=""images/schematic_sequence/flight_scheme/flight_scheme_1.png"" class=""exp-image"">
                    <div class=""question-area""></div> 
                </div>","null","","","","","","","","",""
"","","","","","html-button-response","18","48763","0.0-18.0","89903843D905492388B73C7CBFB3F04B","019cf834-a7c9-7326-80aa-af1d8aa209d4","019cf80d-4266-7117-8a51-54e13c84aca4","","495","
                <div class=""stimulus-container"">
                    <img src=""images/schematic_sequence/flight_scheme/flight_scheme_1.png"" class=""exp-image"">
                    <div class=""question-area"">
                        <p style=""font-size: 20px; font-weight: bold; margin: 0;"">Is there a person in this image?</p>
                    </div>
                </div>","0","main_experiment_trial","1","flight_scheme","schematic_sequence","","","","",""
"","","","","","html-keyboard-response","19","53765","0.0-19.0","89903843D905492388B73C7CBFB3F04B","019cf834-a7c9-7326-80aa-af1d8aa209d4","019cf80d-4266-7117-8a51-54e13c84aca4","","null","
                <div class=""stimulus-container"">
                    <img src=""images/schematic_sequence/flight_scheme/flight_scheme_2.png"" class=""exp-image"">
                    <div class=""question-area""></div> 
                </div>","null","","","","","","","","",""
"","","","","","html-button-response","20","54131","0.0-20.0","89903843D905492388B73C7CBFB3F04B","019cf834-a7c9-7326-80aa-af1d8aa209d4","019cf80d-4266-7117-8a51-54e13c84aca4","","365","
                <div class=""stimulus-container"">
                    <img src=""images/schematic_sequence/flight_scheme/flight_scheme_2.png"" class=""exp-image"">
                    <div class=""question-area"">
                        <p style=""font-size: 20px; font-weight: bold; margin: 0;"">Is there a person in this image?</p>
                    </div>
                </div>","1","main_experiment_trial","2","flight_scheme","schematic_sequence","","","","",""
"","","","","","html-keyboard-response","21","59138","0.0-21.0","89903843D905492388B73C7CBFB3F04B","019cf834-a7c9-7326-80aa-af1d8aa209d4","019cf80d-4266-7117-8a51-54e13c84aca4","","null","
                <div class=""stimulus-container"">
                    <img src=""images/schematic_sequence/flight_scheme/flight_scheme_3.png"" class=""exp-image"">
                    <div class=""question-area""></div> 
                </div>","null","","","","","","","","",""
"","","","","","html-button-response","22","59877","0.0-22.0","89903843D905492388B73C7CBFB3F04B","019cf834-a7c9-7326-80aa-af1d8aa209d4","019cf80d-4266-7117-8a51-54e13c84aca4","","738","
                <div class=""stimulus-container"">
                    <img src=""images/schematic_sequence/flight_scheme/flight_scheme_3.png"" class=""exp-image"">
                    <div class=""question-area"">
                        <p style=""font-size: 20px; font-weight: bold; margin: 0;"">Is there a person in this image?</p>
                    </div>
                </div>","0","main_experiment_trial","3","flight_scheme","schematic_sequence","","","","",""
"","","","","","html-keyboard-response","23","64879","0.0-23.0","89903843D905492388B73C7CBFB3F04B","019cf834-a7c9-7326-80aa-af1d8aa209d4","019cf80d-4266-7117-8a51-54e13c84aca4","","null","
                <div class=""stimulus-container"">
                    <img src=""images/schematic_sequence/flight_scheme/flight_scheme_4.png"" class=""exp-image"">
                    <div class=""question-area""></div> 
                </div>","null","","","","","","","","",""
"","","","","","html-button-response","24","67880","0.0-24.0","89903843D905492388B73C7CBFB3F04B","019cf834-a7c9-7326-80aa-af1d8aa209d4","019cf80d-4266-7117-8a51-54e13c84aca4","","null","
                <div class=""stimulus-container"">
                    <img src=""images/schematic_sequence/flight_scheme/flight_scheme_4.png"" class=""exp-image"">
                    <div class=""question-area"">
                        <p style=""font-size: 20px; font-weight: bold; margin: 0;"">Is there a person in this image?</p>
                    </div>
                </div>","null","main_experiment_trial","4","flight_scheme","schematic_sequence","","","","",""
"","","","","","html-keyboard-response","25","72886","0.0-25.0","89903843D905492388B73C7CBFB3F04B","019cf834-a7c9-7326-80aa-af1d8aa209d4","019cf80d-4266-7117-8a51-54e13c84aca4","","null","
                <div class=""stimulus-container"">
                    <img src=""images/schematic_sequence/flight_scheme/flight_scheme_5.png"" class=""exp-image"">
                    <div class=""question-area""></div> 
                </div>","null","","","","","","","","",""
"","","","","","html-button-response","26","73951","0.0-26.0","89903843D905492388B73C7CBFB3F04B","019cf834-a7c9-7326-80aa-af1d8aa209d4","019cf80d-4266-7117-8a51-54e13c84aca4","","1064","
                <div class=""stimulus-container"">
                    <img src=""images/schematic_sequence/flight_scheme/flight_scheme_5.png"" class=""exp-image"">
                    <div class=""question-area"">
                        <p style=""font-size: 20px; font-weight: bold; margin: 0;"">Is there a person in this image?</p>
                    </div>
                </div>","0","main_experiment_trial","5","flight_scheme","schematic_sequence","","","","",""
"","","","","","html-keyboard-response","27","78952","0.0-27.0","89903843D905492388B73C7CBFB3F04B","019cf834-a7c9-7326-80aa-af1d8aa209d4","019cf80d-4266-7117-8a51-54e13c84aca4","","null","
                <div class=""stimulus-container"">
                    <img src=""images/schematic_sequence/flight_scheme/flight_scheme_6.png"" class=""exp-image"">
                    <div class=""question-area""></div> 
                </div>","null","","","","","","","","",""
"","","","","","html-button-response","28","79423","0.0-28.0","89903843D905492388B73C7CBFB3F04B","019cf834-a7c9-7326-80aa-af1d8aa209d4","019cf80d-4266-7117-8a51-54e13c84aca4","","469","
                <div class=""stimulus-container"">
                    <img src=""images/schematic_sequence/flight_scheme/flight_scheme_6.png"" class=""exp-image"">
                    <div class=""question-area"">
                        <p style=""font-size: 20px; font-weight: bold; margin: 0;"">Is there a person in this image?</p>
                    </div>
                </div>","1","main_experiment_trial","6","flight_scheme","schematic_sequence","","","","",""
"","","","","","html-keyboard-response","29","84432","0.0-29.0","89903843D905492388B73C7CBFB3F04B","019cf834-a7c9-7326-80aa-af1d8aa209d4","019cf80d-4266-7117-8a51-54e13c84aca4","","null","
                <div class=""stimulus-container"">
                    <img src=""images/schematic_sequence/flight_scheme/flight_scheme_7.png"" class=""exp-image"">
                    <div class=""question-area""></div> 
                </div>","null","","","","","","","","",""
"","","","","","html-button-response","30","85659","0.0-30.0","89903843D905492388B73C7CBFB3F04B","019cf834-a7c9-7326-80aa-af1d8aa209d4","019cf80d-4266-7117-8a51-54e13c84aca4","","1226","
                <div class=""stimulus-container"">
                    <img src=""images/schematic_sequence/flight_scheme/flight_scheme_7.png"" class=""exp-image"">
                    <div class=""question-area"">
                        <p style=""font-size: 20px; font-weight: bold; margin: 0;"">Is there a person in this image?</p>
                    </div>
                </div>","1","main_experiment_trial","7","flight_scheme","schematic_sequence","","","","",""
"","","","","","html-keyboard-response","31","90674","0.0-31.0","89903843D905492388B73C7CBFB3F04B","019cf834-a7c9-7326-80aa-af1d8aa209d4","019cf80d-4266-7117-8a51-54e13c84aca4","","null","
                <div class=""stimulus-container"">
                    <img src=""images/schematic_sequence/flight_scheme/flight_scheme_8.png"" class=""exp-image"">
                    <div class=""question-area""></div> 
                </div>","null","","","","","","","","",""
"","","","","","html-button-response","32","91179","0.0-32.0","89903843D905492388B73C7CBFB3F04B","019cf834-a7c9-7326-80aa-af1d8aa209d4","019cf80d-4266-7117-8a51-54e13c84aca4","","505","
                <div class=""stimulus-container"">
                    <img src=""images/schematic_sequence/flight_scheme/flight_scheme_8.png"" class=""exp-image"">
                    <div class=""question-area"">
                        <p style=""font-size: 20px; font-weight: bold; margin: 0;"">Is there a person in this image?</p>
                    </div>
                </div>","1","main_experiment_trial","8","flight_scheme","schematic_sequence","","","","",""
"","","","","","html-keyboard-response","33","96181","0.0-33.0","89903843D905492388B73C7CBFB3F04B","019cf834-a7c9-7326-80aa-af1d8aa209d4","019cf80d-4266-7117-8a51-54e13c84aca4","","null","
                <div class=""stimulus-container"">
                    <img src=""images/schematic_sequence/flight_scheme/flight_scheme_9.png"" class=""exp-image"">
                    <div class=""question-area""></div> 
                </div>","null","","","","","","","","",""
"","","","","","html-button-response","34","96586","0.0-34.0","89903843D905492388B73C7CBFB3F04B","019cf834-a7c9-7326-80aa-af1d8aa209d4","019cf80d-4266-7117-8a51-54e13c84aca4","","403","
                <div class=""stimulus-container"">
                    <img src=""images/schematic_sequence/flight_scheme/flight_scheme_9.png"" class=""exp-image"">
                    <div class=""question-area"">
                        <p style=""font-size: 20px; font-weight: bold; margin: 0;"">Is there a person in this image?</p>
                    </div>
                </div>","0","main_experiment_trial","9","flight_scheme","schematic_sequence","","","","",""
"","","","","","html-keyboard-response","35","101588","0.0-35.0","89903843D905492388B73C7CBFB3F04B","019cf834-a7c9-7326-80aa-af1d8aa209d4","019cf80d-4266-7117-8a51-54e13c84aca4","","null","
                <div class=""stimulus-container"">
                    <img src=""images/schematic_sequence/flight_scheme/flight_scheme_ten.png"" class=""exp-image"">
                    <div class=""question-area""></div> 
                </div>","null","","","","","","","","",""
"","","","","","html-button-response","36","102039","0.0-36.0","89903843D905492388B73C7CBFB3F04B","019cf834-a7c9-7326-80aa-af1d8aa209d4","019cf80d-4266-7117-8a51-54e13c84aca4","","450","
                <div class=""stimulus-container"">
                    <img src=""images/schematic_sequence/flight_scheme/flight_scheme_ten.png"" class=""exp-image"">
                    <div class=""question-area"">
                        <p style=""font-size: 20px; font-weight: bold; margin: 0;"">Is there a person in this image?</p>
                    </div>
                </div>","0","main_experiment_trial","ten","flight_scheme","schematic_sequence","","","","",""
"","","","","","html-keyboard-response","37","103039","0.0-37.0","89903843D905492388B73C7CBFB3F04B","019cf834-a7c9-7326-80aa-af1d8aa209d4","019cf80d-4266-7117-8a51-54e13c84aca4","","null","<div style=""background-color: white; width: 100vw; height: 100vh;""></div>","null","","","","","","","","",""
"","","","","","html-keyboard-response","38","108052","0.0-38.0","89903843D905492388B73C7CBFB3F04B","019cf834-a7c9-7326-80aa-af1d8aa209d4","019cf80d-4266-7117-8a51-54e13c84aca4","","null","
                <div class=""stimulus-container"">
                    <img src=""images/schematic_sequence/interview_scheme/interview_scheme_1.png"" class=""exp-image"">
                    <div class=""question-area""></div> 
                </div>","null","","","","","","","","",""
"","","","","","html-button-response","39","110549","0.0-39.0","89903843D905492388B73C7CBFB3F04B","019cf834-a7c9-7326-80aa-af1d8aa209d4","019cf80d-4266-7117-8a51-54e13c84aca4","","2496","
                <div class=""stimulus-container"">
                    <img src=""images/schematic_sequence/interview_scheme/interview_scheme_1.png"" class=""exp-image"">
                    <div class=""question-area"">
                        <p style=""font-size: 20px; font-weight: bold; margin: 0;"">Is there a person in this image?</p>
                    </div>
                </div>","1","main_experiment_trial","1","interview_scheme","schematic_sequence","","","","",""
"","","","","","html-keyboard-response","40","115558","0.0-40.0","89903843D905492388B73C7CBFB3F04B","019cf834-a7c9-7326-80aa-af1d8aa209d4","019cf80d-4266-7117-8a51-54e13c84aca4","","null","
                <div class=""stimulus-container"">
                    <img src=""images/schematic_sequence/interview_scheme/interview_scheme_2.png"" class=""exp-image"">
                    <div class=""question-area""></div> 
                </div>","null","","","","","","","","",""
"","","","","","html-button-response","41","116341","0.0-41.0","89903843D905492388B73C7CBFB3F04B","019cf834-a7c9-7326-80aa-af1d8aa209d4","019cf80d-4266-7117-8a51-54e13c84aca4","","782","
                <div class=""stimulus-container"">
                    <img src=""images/schematic_sequence/interview_scheme/interview_scheme_2.png"" class=""exp-image"">
                    <div class=""question-area"">
                        <p style=""font-size: 20px; font-weight: bold; margin: 0;"">Is there a person in this image?</p>
                    </div>
                </div>","0","main_experiment_trial","2","interview_scheme","schematic_sequence","","","","",""
"","","","","","html-keyboard-response","42","121358","0.0-42.0","89903843D905492388B73C7CBFB3F04B","019cf834-a7c9-7326-80aa-af1d8aa209d4","019cf80d-4266-7117-8a51-54e13c84aca4","","null","
                <div class=""stimulus-container"">
                    <img src=""images/schematic_sequence/interview_scheme/interview_scheme_3.png"" class=""exp-image"">
                    <div class=""question-area""></div> 
                </div>","null","","","","","","","","",""
"","","","","","html-button-response","43","121939","0.0-43.0","89903843D905492388B73C7CBFB3F04B","019cf834-a7c9-7326-80aa-af1d8aa209d4","019cf80d-4266-7117-8a51-54e13c84aca4","","580","
                <div class=""stimulus-container"">
                    <img src=""images/schematic_sequence/interview_scheme/interview_scheme_3.png"" class=""exp-image"">
                    <div class=""question-area"">
                        <p style=""font-size: 20px; font-weight: bold; margin: 0;"">Is there a person in this image?</p>
                    </div>
                </div>","1","main_experiment_trial","3","interview_scheme","schematic_sequence","","","","",""
"","","","","","html-keyboard-response","44","126943","0.0-44.0","89903843D905492388B73C7CBFB3F04B","019cf834-a7c9-7326-80aa-af1d8aa209d4","019cf80d-4266-7117-8a51-54e13c84aca4","","null","
                <div class=""stimulus-container"">
                    <img src=""images/schematic_sequence/interview_scheme/interview_scheme_4.png"" class=""exp-image"">
                    <div class=""question-area""></div> 
                </div>","null","","","","","","","","",""
"","","","","","html-button-response","45","127423","0.0-45.0","89903843D905492388B73C7CBFB3F04B","019cf834-a7c9-7326-80aa-af1d8aa209d4","019cf80d-4266-7117-8a51-54e13c84aca4","","479","
                <div class=""stimulus-container"">
                    <img src=""images/schematic_sequence/interview_scheme/interview_scheme_4.png"" class=""exp-image"">
                    <div class=""question-area"">
                        <p style=""font-size: 20px; font-weight: bold; margin: 0;"">Is there a person in this image?</p>
                    </div>
                </div>","1","main_experiment_trial","4","interview_scheme","schematic_sequence","","","","",""
"","","","","","html-keyboard-response","46","132438","0.0-46.0","89903843D905492388B73C7CBFB3F04B","019cf834-a7c9-7326-80aa-af1d8aa209d4","019cf80d-4266-7117-8a51-54e13c84aca4","","null","
                <div class=""stimulus-container"">
                    <img src=""images/schematic_sequence/interview_scheme/interview_scheme_5.png"" class=""exp-image"">
                    <div class=""question-area""></div> 
                </div>","null","","","","","","","","",""
"","","","","","html-button-response","47","133029","0.0-47.0","89903843D905492388B73C7CBFB3F04B","019cf834-a7c9-7326-80aa-af1d8aa209d4","019cf80d-4266-7117-8a51-54e13c84aca4","","589","
                <div class=""stimulus-container"">
                    <img src=""images/schematic_sequence/interview_scheme/interview_scheme_5.png"" class=""exp-image"">
                    <div class=""question-area"">
                        <p style=""font-size: 20px; font-weight: bold; margin: 0;"">Is there a person in this image?</p>
                    </div>
                </div>","0","main_experiment_trial","5","interview_scheme","schematic_sequence","","","","",""
"","","","","","html-keyboard-response","48","138038","0.0-48.0","89903843D905492388B73C7CBFB3F04B","019cf834-a7c9-7326-80aa-af1d8aa209d4","019cf80d-4266-7117-8a51-54e13c84aca4","","null","
                <div class=""stimulus-container"">
                    <img src=""images/schematic_sequence/interview_scheme/interview_scheme_6.png"" class=""exp-image"">
                    <div class=""question-area""></div> 
                </div>","null","","","","","","","","",""
"","","","","","html-button-response","49","138544","0.0-49.0","89903843D905492388B73C7CBFB3F04B","019cf834-a7c9-7326-80aa-af1d8aa209d4","019cf80d-4266-7117-8a51-54e13c84aca4","","505","
                <div class=""stimulus-container"">
                    <img src=""images/schematic_sequence/interview_scheme/interview_scheme_6.png"" class=""exp-image"">
                    <div class=""question-area"">
                        <p style=""font-size: 20px; font-weight: bold; margin: 0;"">Is there a person in this image?</p>
                    </div>
                </div>","0","main_experiment_trial","6","interview_scheme","schematic_sequence","","","","",""
"","","","","","html-keyboard-response","50","143546","0.0-50.0","89903843D905492388B73C7CBFB3F04B","019cf834-a7c9-7326-80aa-af1d8aa209d4","019cf80d-4266-7117-8a51-54e13c84aca4","","null","
                <div class=""stimulus-container"">
                    <img src=""images/schematic_sequence/interview_scheme/interview_scheme_7.png"" class=""exp-image"">
                    <div class=""question-area""></div> 
                </div>","null","","","","","","","","",""
"","","","","","html-button-response","51","143967","0.0-51.0","89903843D905492388B73C7CBFB3F04B","019cf834-a7c9-7326-80aa-af1d8aa209d4","019cf80d-4266-7117-8a51-54e13c84aca4","","420","
                <div class=""stimulus-container"">
                    <img src=""images/schematic_sequence/interview_scheme/interview_scheme_7.png"" class=""exp-image"">
                    <div class=""question-area"">
                        <p style=""font-size: 20px; font-weight: bold; margin: 0;"">Is there a person in this image?</p>
                    </div>
                </div>","0","main_experiment_trial","7","interview_scheme","schematic_sequence","","","","",""
"","","","","","html-keyboard-response","52","148976","0.0-52.0","89903843D905492388B73C7CBFB3F04B","019cf834-a7c9-7326-80aa-af1d8aa209d4","019cf80d-4266-7117-8a51-54e13c84aca4","","null","
                <div class=""stimulus-container"">
                    <img src=""images/schematic_sequence/interview_scheme/interview_scheme_8.png"" class=""exp-image"">
                    <div class=""question-area""></div> 
                </div>","null","","","","","","","","",""
"","","","","","html-button-response","53","149419","0.0-53.0","89903843D905492388B73C7CBFB3F04B","019cf834-a7c9-7326-80aa-af1d8aa209d4","019cf80d-4266-7117-8a51-54e13c84aca4","","441","
                <div class=""stimulus-container"">
                    <img src=""images/schematic_sequence/interview_scheme/interview_scheme_8.png"" class=""exp-image"">
                    <div class=""question-area"">
                        <p style=""font-size: 20px; font-weight: bold; margin: 0;"">Is there a person in this image?</p>
                    </div>
                </div>","0","main_experiment_trial","8","interview_scheme","schematic_sequence","","","","",""
"","","","","","html-keyboard-response","54","154435","0.0-54.0","89903843D905492388B73C7CBFB3F04B","019cf834-a7c9-7326-80aa-af1d8aa209d4","019cf80d-4266-7117-8a51-54e13c84aca4","","null","
                <div class=""stimulus-container"">
                    <img src=""images/schematic_sequence/interview_scheme/interview_scheme_9.png"" class=""exp-image"">
                    <div class=""question-area""></div> 
                </div>","null","","","","","","","","",""
"","","","","","html-button-response","55","154824","0.0-55.0","89903843D905492388B73C7CBFB3F04B","019cf834-a7c9-7326-80aa-af1d8aa209d4","019cf80d-4266-7117-8a51-54e13c84aca4","","388","
                <div class=""stimulus-container"">
                    <img src=""images/schematic_sequence/interview_scheme/interview_scheme_9.png"" class=""exp-image"">
                    <div class=""question-area"">
                        <p style=""font-size: 20px; font-weight: bold; margin: 0;"">Is there a person in this image?</p>
                    </div>
                </div>","0","main_experiment_trial","9","interview_scheme","schematic_sequence","","","","",""
"","","","","","html-keyboard-response","56","159834","0.0-56.0","89903843D905492388B73C7CBFB3F04B","019cf834-a7c9-7326-80aa-af1d8aa209d4","019cf80d-4266-7117-8a51-54e13c84aca4","","null","
                <div class=""stimulus-container"">
                    <img src=""images/schematic_sequence/interview_scheme/interview_scheme_ten.png"" class=""exp-image"">
                    <div class=""question-area""></div> 
                </div>","null","","","","","","","","",""
"","","","","","html-button-response","57","160256","0.0-57.0","89903843D905492388B73C7CBFB3F04B","019cf834-a7c9-7326-80aa-af1d8aa209d4","019cf80d-4266-7117-8a51-54e13c84aca4","","421","
                <div class=""stimulus-container"">
                    <img src=""images/schematic_sequence/interview_scheme/interview_scheme_ten.png"" class=""exp-image"">
                    <div class=""question-area"">
                        <p style=""font-size: 20px; font-weight: bold; margin: 0;"">Is there a person in this image?</p>
                    </div>
                </div>","0","main_experiment_trial","ten","interview_scheme","schematic_sequence","","","","",""
"","","","","","html-keyboard-response","58","161260","0.0-58.0","89903843D905492388B73C7CBFB3F04B","019cf834-a7c9-7326-80aa-af1d8aa209d4","019cf80d-4266-7117-8a51-54e13c84aca4","","null","<div style=""background-color: white; width: 100vw; height: 100vh;""></div>","null","","","","","","","","",""
"","","","","","html-keyboard-response","59","166266","0.0-59.0","89903843D905492388B73C7CBFB3F04B","019cf834-a7c9-7326-80aa-af1d8aa209d4","019cf80d-4266-7117-8a51-54e13c84aca4","","null","
                <div class=""stimulus-container"">
                    <img src=""images/semantic_sequence/kitchen_operations_semantic/kitchen_operations_semantic_1.png"" class=""exp-image"">
                    <div class=""question-area""></div> 
                </div>","null","","","","","","","","",""
"","","","","","html-button-response","60","166679","0.0-60.0","89903843D905492388B73C7CBFB3F04B","019cf834-a7c9-7326-80aa-af1d8aa209d4","019cf80d-4266-7117-8a51-54e13c84aca4","","412","
                <div class=""stimulus-container"">
                    <img src=""images/semantic_sequence/kitchen_operations_semantic/kitchen_operations_semantic_1.png"" class=""exp-image"">
                    <div class=""question-area"">
                        <p style=""font-size: 20px; font-weight: bold; margin: 0;"">Is there a person in this image?</p>
                    </div>
                </div>","0","main_experiment_trial","1","kitchen_operations_semantic","semantic_sequence","","","","",""
"","","","","","html-keyboard-response","61","171690","0.0-61.0","89903843D905492388B73C7CBFB3F04B","019cf834-a7c9-7326-80aa-af1d8aa209d4","019cf80d-4266-7117-8a51-54e13c84aca4","","null","
                <div class=""stimulus-container"">
                    <img src=""images/semantic_sequence/kitchen_operations_semantic/kitchen_operations_semantic_2.png"" class=""exp-image"">
                    <div class=""question-area""></div> 
                </div>","null","","","","","","","","",""
"","","","","","html-button-response","62","172124","0.0-62.0","89903843D905492388B73C7CBFB3F04B","019cf834-a7c9-7326-80aa-af1d8aa209d4","019cf80d-4266-7117-8a51-54e13c84aca4","","431","
                <div class=""stimulus-container"">
                    <img src=""images/semantic_sequence/kitchen_operations_semantic/kitchen_operations_semantic_2.png"" class=""exp-image"">
                    <div class=""question-area"">
                        <p style=""font-size: 20px; font-weight: bold; margin: 0;"">Is there a person in this image?</p>
                    </div>
                </div>","0","main_experiment_trial","2","kitchen_operations_semantic","semantic_sequence","","","","",""
"","","","","","html-keyboard-response","63","177135","0.0-63.0","89903843D905492388B73C7CBFB3F04B","019cf834-a7c9-7326-80aa-af1d8aa209d4","019cf80d-4266-7117-8a51-54e13c84aca4","","null","
                <div class=""stimulus-container"">
                    <img src=""images/semantic_sequence/kitchen_operations_semantic/kitchen_operations_semantic_3.png"" class=""exp-image"">
                    <div class=""question-area""></div> 
                </div>","null","","","","","","","","",""
"","","","","","html-button-response","64","177526","0.0-64.0","89903843D905492388B73C7CBFB3F04B","019cf834-a7c9-7326-80aa-af1d8aa209d4","019cf80d-4266-7117-8a51-54e13c84aca4","","390","
                <div class=""stimulus-container"">
                    <img src=""images/semantic_sequence/kitchen_operations_semantic/kitchen_operations_semantic_3.png"" class=""exp-image"">
                    <div class=""question-area"">
                        <p style=""font-size: 20px; font-weight: bold; margin: 0;"">Is there a person in this image?</p>
                    </div>
                </div>","0","main_experiment_trial","3","kitchen_operations_semantic","semantic_sequence","","","","",""
"","","","","","html-keyboard-response","65","182537","0.0-65.0","89903843D905492388B73C7CBFB3F04B","019cf834-a7c9-7326-80aa-af1d8aa209d4","019cf80d-4266-7117-8a51-54e13c84aca4","","null","
                <div class=""stimulus-container"">
                    <img src=""images/semantic_sequence/kitchen_operations_semantic/kitchen_operations_semantic_4.png"" class=""exp-image"">
                    <div class=""question-area""></div> 
                </div>","null","","","","","","","","",""
"","","","","","html-button-response","66","183230","0.0-66.0","89903843D905492388B73C7CBFB3F04B","019cf834-a7c9-7326-80aa-af1d8aa209d4","019cf80d-4266-7117-8a51-54e13c84aca4","","692","
                <div class=""stimulus-container"">
                    <img src=""images/semantic_sequence/kitchen_operations_semantic/kitchen_operations_semantic_4.png"" class=""exp-image"">
                    <div class=""question-area"">
                        <p style=""font-size: 20px; font-weight: bold; margin: 0;"">Is there a person in this image?</p>
                    </div>
                </div>","0","main_experiment_trial","4","kitchen_operations_semantic","semantic_sequence","","","","",""
"","","","","","html-keyboard-response","67","188232","0.0-67.0","89903843D905492388B73C7CBFB3F04B","019cf834-a7c9-7326-80aa-af1d8aa209d4","019cf80d-4266-7117-8a51-54e13c84aca4","","null","
                <div class=""stimulus-container"">
                    <img src=""images/semantic_sequence/kitchen_operations_semantic/kitchen_operations_semantic_5.png"" class=""exp-image"">
                    <div class=""question-area""></div> 
                </div>","null","","","","","","","","",""
"","","","","","html-button-response","68","188950","0.0-68.0","89903843D905492388B73C7CBFB3F04B","019cf834-a7c9-7326-80aa-af1d8aa209d4","019cf80d-4266-7117-8a51-54e13c84aca4","","717","
                <div class=""stimulus-container"">
                    <img src=""images/semantic_sequence/kitchen_operations_semantic/kitchen_operations_semantic_5.png"" class=""exp-image"">
                    <div class=""question-area"">
                        <p style=""font-size: 20px; font-weight: bold; margin: 0;"">Is there a person in this image?</p>
                    </div>
                </div>","0","main_experiment_trial","5","kitchen_operations_semantic","semantic_sequence","","","","",""
"","","","","","html-keyboard-response","69","193961","0.0-69.0","89903843D905492388B73C7CBFB3F04B","019cf834-a7c9-7326-80aa-af1d8aa209d4","019cf80d-4266-7117-8a51-54e13c84aca4","","null","
                <div class=""stimulus-container"">
                    <img src=""images/semantic_sequence/kitchen_operations_semantic/kitchen_operations_semantic_6.png"" class=""exp-image"">
                    <div class=""question-area""></div> 
                </div>","null","","","","","","","","",""
"","","","","","html-button-response","70","194652","0.0-70.0","89903843D905492388B73C7CBFB3F04B","019cf834-a7c9-7326-80aa-af1d8aa209d4","019cf80d-4266-7117-8a51-54e13c84aca4","","690","
                <div class=""stimulus-container"">
                    <img src=""images/semantic_sequence/kitchen_operations_semantic/kitchen_operations_semantic_6.png"" class=""exp-image"">
                    <div class=""question-area"">
                        <p style=""font-size: 20px; font-weight: bold; margin: 0;"">Is there a person in this image?</p>
                    </div>
                </div>","0","main_experiment_trial","6","kitchen_operations_semantic","semantic_sequence","","","","",""
"","","","","","html-keyboard-response","71","199658","0.0-71.0","89903843D905492388B73C7CBFB3F04B","019cf834-a7c9-7326-80aa-af1d8aa209d4","019cf80d-4266-7117-8a51-54e13c84aca4","","null","
                <div class=""stimulus-container"">
                    <img src=""images/semantic_sequence/kitchen_operations_semantic/kitchen_operations_semantic_7.png"" class=""exp-image"">
                    <div class=""question-area""></div> 
                </div>","null","","","","","","","","",""
"","","","","","html-button-response","72","200153","0.0-72.0","89903843D905492388B73C7CBFB3F04B","019cf834-a7c9-7326-80aa-af1d8aa209d4","019cf80d-4266-7117-8a51-54e13c84aca4","","494","
                <div class=""stimulus-container"">
                    <img src=""images/semantic_sequence/kitchen_operations_semantic/kitchen_operations_semantic_7.png"" class=""exp-image"">
                    <div class=""question-area"">
                        <p style=""font-size: 20px; font-weight: bold; margin: 0;"">Is there a person in this image?</p>
                    </div>
                </div>","0","main_experiment_trial","7","kitchen_operations_semantic","semantic_sequence","","","","",""
"","","","","","html-keyboard-response","73","205156","0.0-73.0","89903843D905492388B73C7CBFB3F04B","019cf834-a7c9-7326-80aa-af1d8aa209d4","019cf80d-4266-7117-8a51-54e13c84aca4","","null","
                <div class=""stimulus-container"">
                    <img src=""images/semantic_sequence/kitchen_operations_semantic/kitchen_operations_semantic_8.png"" class=""exp-image"">
                    <div class=""question-area""></div> 
                </div>","null","","","","","","","","",""
"","","","","","html-button-response","74","205531","0.0-74.0","89903843D905492388B73C7CBFB3F04B","019cf834-a7c9-7326-80aa-af1d8aa209d4","019cf80d-4266-7117-8a51-54e13c84aca4","","373","
                <div class=""stimulus-container"">
                    <img src=""images/semantic_sequence/kitchen_operations_semantic/kitchen_operations_semantic_8.png"" class=""exp-image"">
                    <div class=""question-area"">
                        <p style=""font-size: 20px; font-weight: bold; margin: 0;"">Is there a person in this image?</p>
                    </div>
                </div>","0","main_experiment_trial","8","kitchen_operations_semantic","semantic_sequence","","","","",""
"","","","","","html-keyboard-response","75","210540","0.0-75.0","89903843D905492388B73C7CBFB3F04B","019cf834-a7c9-7326-80aa-af1d8aa209d4","019cf80d-4266-7117-8a51-54e13c84aca4","","null","
                <div class=""stimulus-container"">
                    <img src=""images/semantic_sequence/kitchen_operations_semantic/kitchen_operations_semantic_9.png"" class=""exp-image"">
                    <div class=""question-area""></div> 
                </div>","null","","","","","","","","",""
"","","","","","html-button-response","76","210925","0.0-76.0","89903843D905492388B73C7CBFB3F04B","019cf834-a7c9-7326-80aa-af1d8aa209d4","019cf80d-4266-7117-8a51-54e13c84aca4","","384","
                <div class=""stimulus-container"">
                    <img src=""images/semantic_sequence/kitchen_operations_semantic/kitchen_operations_semantic_9.png"" class=""exp-image"">
                    <div class=""question-area"">
                        <p style=""font-size: 20px; font-weight: bold; margin: 0;"">Is there a person in this image?</p>
                    </div>
                </div>","0","main_experiment_trial","9","kitchen_operations_semantic","semantic_sequence","","","","",""
"","","","","","html-keyboard-response","77","215932","0.0-77.0","89903843D905492388B73C7CBFB3F04B","019cf834-a7c9-7326-80aa-af1d8aa209d4","019cf80d-4266-7117-8a51-54e13c84aca4","","null","
                <div class=""stimulus-container"">
                    <img src=""images/semantic_sequence/kitchen_operations_semantic/kitchen_operations_semantic_ten.png"" class=""exp-image"">
                    <div class=""question-area""></div> 
                </div>","null","","","","","","","","",""
"","","","","","html-button-response","78","216355","0.0-78.0","89903843D905492388B73C7CBFB3F04B","019cf834-a7c9-7326-80aa-af1d8aa209d4","019cf80d-4266-7117-8a51-54e13c84aca4","","422","
                <div class=""stimulus-container"">
                    <img src=""images/semantic_sequence/kitchen_operations_semantic/kitchen_operations_semantic_ten.png"" class=""exp-image"">
                    <div class=""question-area"">
                        <p style=""font-size: 20px; font-weight: bold; margin: 0;"">Is there a person in this image?</p>
                    </div>
                </div>","0","main_experiment_trial","ten","kitchen_operations_semantic","semantic_sequence","","","","",""
"","","","","","html-keyboard-response","79","217371","0.0-79.0","89903843D905492388B73C7CBFB3F04B","019cf834-a7c9-7326-80aa-af1d8aa209d4","019cf80d-4266-7117-8a51-54e13c84aca4","","null","<div style=""background-color: white; width: 100vw; height: 100vh;""></div>","null","","","","","","","","",""
"","","","","","html-keyboard-response","80","222386","0.0-80.0","89903843D905492388B73C7CBFB3F04B","019cf834-a7c9-7326-80aa-af1d8aa209d4","019cf80d-4266-7117-8a51-54e13c84aca4","","null","
                <div class=""stimulus-container"">
                    <img src=""images/semantic_sequence/self_care_activities_semantic/self_care_activities_semantic_1.png"" class=""exp-image"">
                    <div class=""question-area""></div> 
                </div>","null","","","","","","","","",""
"","","","","","html-button-response","81","222934","0.0-81.0","89903843D905492388B73C7CBFB3F04B","019cf834-a7c9-7326-80aa-af1d8aa209d4","019cf80d-4266-7117-8a51-54e13c84aca4","","547","
                <div class=""stimulus-container"">
                    <img src=""images/semantic_sequence/self_care_activities_semantic/self_care_activities_semantic_1.png"" class=""exp-image"">
                    <div class=""question-area"">
                        <p style=""font-size: 20px; font-weight: bold; margin: 0;"">Is there a person in this image?</p>
                    </div>
                </div>","0","main_experiment_trial","1","self_care_activities_semantic","semantic_sequence","","","","",""
"","","","","","html-keyboard-response","82","227945","0.0-82.0","89903843D905492388B73C7CBFB3F04B","019cf834-a7c9-7326-80aa-af1d8aa209d4","019cf80d-4266-7117-8a51-54e13c84aca4","","null","
                <div class=""stimulus-container"">
                    <img src=""images/semantic_sequence/self_care_activities_semantic/self_care_activities_semantic_2.png"" class=""exp-image"">
                    <div class=""question-area""></div> 
                </div>","null","","","","","","","","",""
"","","","","","html-button-response","83","228626","0.0-83.0","89903843D905492388B73C7CBFB3F04B","019cf834-a7c9-7326-80aa-af1d8aa209d4","019cf80d-4266-7117-8a51-54e13c84aca4","","679","
                <div class=""stimulus-container"">
                    <img src=""images/semantic_sequence/self_care_activities_semantic/self_care_activities_semantic_2.png"" class=""exp-image"">
                    <div class=""question-area"">
                        <p style=""font-size: 20px; font-weight: bold; margin: 0;"">Is there a person in this image?</p>
                    </div>
                </div>","0","main_experiment_trial","2","self_care_activities_semantic","semantic_sequence","","","","",""
"","","","","","html-keyboard-response","84","233638","0.0-84.0","89903843D905492388B73C7CBFB3F04B","019cf834-a7c9-7326-80aa-af1d8aa209d4","019cf80d-4266-7117-8a51-54e13c84aca4","","null","
                <div class=""stimulus-container"">
                    <img src=""images/semantic_sequence/self_care_activities_semantic/self_care_activities_semantic_3.png"" class=""exp-image"">
                    <div class=""question-area""></div> 
                </div>","null","","","","","","","","",""
"","","","","","html-button-response","85","234910","0.0-85.0","89903843D905492388B73C7CBFB3F04B","019cf834-a7c9-7326-80aa-af1d8aa209d4","019cf80d-4266-7117-8a51-54e13c84aca4","","1271","
                <div class=""stimulus-container"">
                    <img src=""images/semantic_sequence/self_care_activities_semantic/self_care_activities_semantic_3.png"" class=""exp-image"">
                    <div class=""question-area"">
                        <p style=""font-size: 20px; font-weight: bold; margin: 0;"">Is there a person in this image?</p>
                    </div>
                </div>","0","main_experiment_trial","3","self_care_activities_semantic","semantic_sequence","","","","",""
"","","","","","html-keyboard-response","86","239918","0.0-86.0","89903843D905492388B73C7CBFB3F04B","019cf834-a7c9-7326-80aa-af1d8aa209d4","019cf80d-4266-7117-8a51-54e13c84aca4","","null","
                <div class=""stimulus-container"">
                    <img src=""images/semantic_sequence/self_care_activities_semantic/self_care_activities_semantic_4.png"" class=""exp-image"">
                    <div class=""question-area""></div> 
                </div>","null","","","","","","","","",""
"","","","","","html-button-response","87","240585","0.0-87.0","89903843D905492388B73C7CBFB3F04B","019cf834-a7c9-7326-80aa-af1d8aa209d4","019cf80d-4266-7117-8a51-54e13c84aca4","","666","
                <div class=""stimulus-container"">
                    <img src=""images/semantic_sequence/self_care_activities_semantic/self_care_activities_semantic_4.png"" class=""exp-image"">
                    <div class=""question-area"">
                        <p style=""font-size: 20px; font-weight: bold; margin: 0;"">Is there a person in this image?</p>
                    </div>
                </div>","0","main_experiment_trial","4","self_care_activities_semantic","semantic_sequence","","","","",""
"","","","","","html-keyboard-response","88","245598","0.0-88.0","89903843D905492388B73C7CBFB3F04B","019cf834-a7c9-7326-80aa-af1d8aa209d4","019cf80d-4266-7117-8a51-54e13c84aca4","","null","
                <div class=""stimulus-container"">
                    <img src=""images/semantic_sequence/self_care_activities_semantic/self_care_activities_semantic_5.png"" class=""exp-image"">
                    <div class=""question-area""></div> 
                </div>","null","","","","","","","","",""
"","","","","","html-button-response","89","246045","0.0-89.0","89903843D905492388B73C7CBFB3F04B","019cf834-a7c9-7326-80aa-af1d8aa209d4","019cf80d-4266-7117-8a51-54e13c84aca4","","445","
                <div class=""stimulus-container"">
                    <img src=""images/semantic_sequence/self_care_activities_semantic/self_care_activities_semantic_5.png"" class=""exp-image"">
                    <div class=""question-area"">
                        <p style=""font-size: 20px; font-weight: bold; margin: 0;"">Is there a person in this image?</p>
                    </div>
                </div>","0","main_experiment_trial","5","self_care_activities_semantic","semantic_sequence","","","","",""
"","","","","","html-keyboard-response","90","251049","0.0-90.0","89903843D905492388B73C7CBFB3F04B","019cf834-a7c9-7326-80aa-af1d8aa209d4","019cf80d-4266-7117-8a51-54e13c84aca4","","null","
                <div class=""stimulus-container"">
                    <img src=""images/semantic_sequence/self_care_activities_semantic/self_care_activities_semantic_6.png"" class=""exp-image"">
                    <div class=""question-area""></div> 
                </div>","null","","","","","","","","",""
"","","","","","html-button-response","91","252701","0.0-91.0","89903843D905492388B73C7CBFB3F04B","019cf834-a7c9-7326-80aa-af1d8aa209d4","019cf80d-4266-7117-8a51-54e13c84aca4","","1650","
                <div class=""stimulus-container"">
                    <img src=""images/semantic_sequence/self_care_activities_semantic/self_care_activities_semantic_6.png"" class=""exp-image"">
                    <div class=""question-area"">
                        <p style=""font-size: 20px; font-weight: bold; margin: 0;"">Is there a person in this image?</p>
                    </div>
                </div>","1","main_experiment_trial","6","self_care_activities_semantic","semantic_sequence","","","","",""
"","","","","","html-keyboard-response","92","257702","0.0-92.0","89903843D905492388B73C7CBFB3F04B","019cf834-a7c9-7326-80aa-af1d8aa209d4","019cf80d-4266-7117-8a51-54e13c84aca4","","null","
                <div class=""stimulus-container"">
                    <img src=""images/semantic_sequence/self_care_activities_semantic/self_care_activities_semantic_7.png"" class=""exp-image"">
                    <div class=""question-area""></div> 
                </div>","null","","","","","","","","",""
"","","","","","html-button-response","93","258467","0.0-93.0","89903843D905492388B73C7CBFB3F04B","019cf834-a7c9-7326-80aa-af1d8aa209d4","019cf80d-4266-7117-8a51-54e13c84aca4","","763","
                <div class=""stimulus-container"">
                    <img src=""images/semantic_sequence/self_care_activities_semantic/self_care_activities_semantic_7.png"" class=""exp-image"">
                    <div class=""question-area"">
                        <p style=""font-size: 20px; font-weight: bold; margin: 0;"">Is there a person in this image?</p>
                    </div>
                </div>","0","main_experiment_trial","7","self_care_activities_semantic","semantic_sequence","","","","",""
"","","","","","html-keyboard-response","94","263475","0.0-94.0","89903843D905492388B73C7CBFB3F04B","019cf834-a7c9-7326-80aa-af1d8aa209d4","019cf80d-4266-7117-8a51-54e13c84aca4","","null","
                <div class=""stimulus-container"">
                    <img src=""images/semantic_sequence/self_care_activities_semantic/self_care_activities_semantic_8.png"" class=""exp-image"">
                    <div class=""question-area""></div> 
                </div>","null","","","","","","","","",""
"","","","","","html-button-response","95","264447","0.0-95.0","89903843D905492388B73C7CBFB3F04B","019cf834-a7c9-7326-80aa-af1d8aa209d4","019cf80d-4266-7117-8a51-54e13c84aca4","","971","
                <div class=""stimulus-container"">
                    <img src=""images/semantic_sequence/self_care_activities_semantic/self_care_activities_semantic_8.png"" class=""exp-image"">
                    <div class=""question-area"">
                        <p style=""font-size: 20px; font-weight: bold; margin: 0;"">Is there a person in this image?</p>
                    </div>
                </div>","0","main_experiment_trial","8","self_care_activities_semantic","semantic_sequence","","","","",""
"","","","","","html-keyboard-response","96","269461","0.0-96.0","89903843D905492388B73C7CBFB3F04B","019cf834-a7c9-7326-80aa-af1d8aa209d4","019cf80d-4266-7117-8a51-54e13c84aca4","","null","
                <div class=""stimulus-container"">
                    <img src=""images/semantic_sequence/self_care_activities_semantic/self_care_activities_semantic_9.png"" class=""exp-image"">
                    <div class=""question-area""></div> 
                </div>","null","","","","","","","","",""
"","","","","","html-button-response","97","270422","0.0-97.0","89903843D905492388B73C7CBFB3F04B","019cf834-a7c9-7326-80aa-af1d8aa209d4","019cf80d-4266-7117-8a51-54e13c84aca4","","959","
                <div class=""stimulus-container"">
                    <img src=""images/semantic_sequence/self_care_activities_semantic/self_care_activities_semantic_9.png"" class=""exp-image"">
                    <div class=""question-area"">
                        <p style=""font-size: 20px; font-weight: bold; margin: 0;"">Is there a person in this image?</p>
                    </div>
                </div>","0","main_experiment_trial","9","self_care_activities_semantic","semantic_sequence","","","","",""
"","","","","","html-keyboard-response","98","275428","0.0-98.0","89903843D905492388B73C7CBFB3F04B","019cf834-a7c9-7326-80aa-af1d8aa209d4","019cf80d-4266-7117-8a51-54e13c84aca4","","null","
                <div class=""stimulus-container"">
                    <img src=""images/semantic_sequence/self_care_activities_semantic/self_care_activities_semantic_ten.png"" class=""exp-image"">
                    <div class=""question-area""></div> 
                </div>","null","","","","","","","","",""
"","","","","","html-button-response","99","276124","0.0-99.0","89903843D905492388B73C7CBFB3F04B","019cf834-a7c9-7326-80aa-af1d8aa209d4","019cf80d-4266-7117-8a51-54e13c84aca4","","695","
                <div class=""stimulus-container"">
                    <img src=""images/semantic_sequence/self_care_activities_semantic/self_care_activities_semantic_ten.png"" class=""exp-image"">
                    <div class=""question-area"">
                        <p style=""font-size: 20px; font-weight: bold; margin: 0;"">Is there a person in this image?</p>
                    </div>
                </div>","0","main_experiment_trial","ten","self_care_activities_semantic","semantic_sequence","","","","",""
"","","","","","html-keyboard-response","100","277139","0.0-100.0","89903843D905492388B73C7CBFB3F04B","019cf834-a7c9-7326-80aa-af1d8aa209d4","019cf80d-4266-7117-8a51-54e13c84aca4","","null","<div style=""background-color: white; width: 100vw; height: 100vh;""></div>","null","","","","","","","","",""
"","","","","","html-keyboard-response","101","282154","0.0-101.0","89903843D905492388B73C7CBFB3F04B","019cf834-a7c9-7326-80aa-af1d8aa209d4","019cf80d-4266-7117-8a51-54e13c84aca4","","null","
                <div class=""stimulus-container"">
                    <img src=""images/schematic_sequence/restaurant_scheme/restaurant_scheme_1.png"" class=""exp-image"">
                    <div class=""question-area""></div> 
                </div>","null","","","","","","","","",""
"","","","","","html-button-response","102","283128","0.0-102.0","89903843D905492388B73C7CBFB3F04B","019cf834-a7c9-7326-80aa-af1d8aa209d4","019cf80d-4266-7117-8a51-54e13c84aca4","","972","
                <div class=""stimulus-container"">
                    <img src=""images/schematic_sequence/restaurant_scheme/restaurant_scheme_1.png"" class=""exp-image"">
                    <div class=""question-area"">
                        <p style=""font-size: 20px; font-weight: bold; margin: 0;"">Is there a person in this image?</p>
                    </div>
                </div>","0","main_experiment_trial","1","restaurant_scheme","schematic_sequence","","","","",""
"","","","","","html-keyboard-response","103","288133","0.0-103.0","89903843D905492388B73C7CBFB3F04B","019cf834-a7c9-7326-80aa-af1d8aa209d4","019cf80d-4266-7117-8a51-54e13c84aca4","","null","
                <div class=""stimulus-container"">
                    <img src=""images/schematic_sequence/restaurant_scheme/restaurant_scheme_2.png"" class=""exp-image"">
                    <div class=""question-area""></div> 
                </div>","null","","","","","","","","",""
"","","","","","html-button-response","104","289725","0.0-104.0","89903843D905492388B73C7CBFB3F04B","019cf834-a7c9-7326-80aa-af1d8aa209d4","019cf80d-4266-7117-8a51-54e13c84aca4","","1591","
                <div class=""stimulus-container"">
                    <img src=""images/schematic_sequence/restaurant_scheme/restaurant_scheme_2.png"" class=""exp-image"">
                    <div class=""question-area"">
                        <p style=""font-size: 20px; font-weight: bold; margin: 0;"">Is there a person in this image?</p>
                    </div>
                </div>","1","main_experiment_trial","2","restaurant_scheme","schematic_sequence","","","","",""
"","","","","","html-keyboard-response","105","294738","0.0-105.0","89903843D905492388B73C7CBFB3F04B","019cf834-a7c9-7326-80aa-af1d8aa209d4","019cf80d-4266-7117-8a51-54e13c84aca4","","null","
                <div class=""stimulus-container"">
                    <img src=""images/schematic_sequence/restaurant_scheme/restaurant_scheme_3.png"" class=""exp-image"">
                    <div class=""question-area""></div> 
                </div>","null","","","","","","","","",""
"","","","","","html-button-response","106","297305","0.0-106.0","89903843D905492388B73C7CBFB3F04B","019cf834-a7c9-7326-80aa-af1d8aa209d4","019cf80d-4266-7117-8a51-54e13c84aca4","","2566","
                <div class=""stimulus-container"">
                    <img src=""images/schematic_sequence/restaurant_scheme/restaurant_scheme_3.png"" class=""exp-image"">
                    <div class=""question-area"">
                        <p style=""font-size: 20px; font-weight: bold; margin: 0;"">Is there a person in this image?</p>
                    </div>
                </div>","1","main_experiment_trial","3","restaurant_scheme","schematic_sequence","","","","",""
"","","","","","html-keyboard-response","107","302313","0.0-107.0","89903843D905492388B73C7CBFB3F04B","019cf834-a7c9-7326-80aa-af1d8aa209d4","019cf80d-4266-7117-8a51-54e13c84aca4","","null","
                <div class=""stimulus-container"">
                    <img src=""images/schematic_sequence/restaurant_scheme/restaurant_scheme_4.png"" class=""exp-image"">
                    <div class=""question-area""></div> 
                </div>","null","","","","","","","","",""
"","","","","","html-button-response","108","304275","0.0-108.0","89903843D905492388B73C7CBFB3F04B","019cf834-a7c9-7326-80aa-af1d8aa209d4","019cf80d-4266-7117-8a51-54e13c84aca4","","1960","
                <div class=""stimulus-container"">
                    <img src=""images/schematic_sequence/restaurant_scheme/restaurant_scheme_4.png"" class=""exp-image"">
                    <div class=""question-area"">
                        <p style=""font-size: 20px; font-weight: bold; margin: 0;"">Is there a person in this image?</p>
                    </div>
                </div>","0","main_experiment_trial","4","restaurant_scheme","schematic_sequence","","","","",""
"","","","","","html-keyboard-response","109","309280","0.0-109.0","89903843D905492388B73C7CBFB3F04B","019cf834-a7c9-7326-80aa-af1d8aa209d4","019cf80d-4266-7117-8a51-54e13c84aca4","","null","
                <div class=""stimulus-container"">
                    <img src=""images/schematic_sequence/restaurant_scheme/restaurant_scheme_5.png"" class=""exp-image"">
                    <div class=""question-area""></div> 
                </div>","null","","","","","","","","",""
"","","","","","html-button-response","110","310287","0.0-110.0","89903843D905492388B73C7CBFB3F04B","019cf834-a7c9-7326-80aa-af1d8aa209d4","019cf80d-4266-7117-8a51-54e13c84aca4","","1006","
                <div class=""stimulus-container"">
                    <img src=""images/schematic_sequence/restaurant_scheme/restaurant_scheme_5.png"" class=""exp-image"">
                    <div class=""question-area"">
                        <p style=""font-size: 20px; font-weight: bold; margin: 0;"">Is there a person in this image?</p>
                    </div>
                </div>","0","main_experiment_trial","5","restaurant_scheme","schematic_sequence","","","","",""
"","","","","","html-keyboard-response","111","315300","0.0-111.0","89903843D905492388B73C7CBFB3F04B","019cf834-a7c9-7326-80aa-af1d8aa209d4","019cf80d-4266-7117-8a51-54e13c84aca4","","null","
                <div class=""stimulus-container"">
                    <img src=""images/schematic_sequence/restaurant_scheme/restaurant_scheme_6.png"" class=""exp-image"">
                    <div class=""question-area""></div> 
                </div>","null","","","","","","","","",""
"","","","","","html-button-response","112","316377","0.0-112.0","89903843D905492388B73C7CBFB3F04B","019cf834-a7c9-7326-80aa-af1d8aa209d4","019cf80d-4266-7117-8a51-54e13c84aca4","","1076","
                <div class=""stimulus-container"">
                    <img src=""images/schematic_sequence/restaurant_scheme/restaurant_scheme_6.png"" class=""exp-image"">
                    <div class=""question-area"">
                        <p style=""font-size: 20px; font-weight: bold; margin: 0;"">Is there a person in this image?</p>
                    </div>
                </div>","1","main_experiment_trial","6","restaurant_scheme","schematic_sequence","","","","",""
"","","","","","html-keyboard-response","113","321387","0.0-113.0","89903843D905492388B73C7CBFB3F04B","019cf834-a7c9-7326-80aa-af1d8aa209d4","019cf80d-4266-7117-8a51-54e13c84aca4","","null","
                <div class=""stimulus-container"">
                    <img src=""images/schematic_sequence/restaurant_scheme/restaurant_scheme_7.png"" class=""exp-image"">
                    <div class=""question-area""></div> 
                </div>","null","","","","","","","","",""
"","","","","","html-button-response","114","322475","0.0-114.0","89903843D905492388B73C7CBFB3F04B","019cf834-a7c9-7326-80aa-af1d8aa209d4","019cf80d-4266-7117-8a51-54e13c84aca4","","1086","
                <div class=""stimulus-container"">
                    <img src=""images/schematic_sequence/restaurant_scheme/restaurant_scheme_7.png"" class=""exp-image"">
                    <div class=""question-area"">
                        <p style=""font-size: 20px; font-weight: bold; margin: 0;"">Is there a person in this image?</p>
                    </div>
                </div>","1","main_experiment_trial","7","restaurant_scheme","schematic_sequence","","","","",""
"","","","","","html-keyboard-response","115","327477","0.0-115.0","89903843D905492388B73C7CBFB3F04B","019cf834-a7c9-7326-80aa-af1d8aa209d4","019cf80d-4266-7117-8a51-54e13c84aca4","","null","
                <div class=""stimulus-container"">
                    <img src=""images/schematic_sequence/restaurant_scheme/restaurant_scheme_8.png"" class=""exp-image"">
                    <div class=""question-area""></div> 
                </div>","null","","","","","","","","",""
"","","","","","html-button-response","116","328486","0.0-116.0","89903843D905492388B73C7CBFB3F04B","019cf834-a7c9-7326-80aa-af1d8aa209d4","019cf80d-4266-7117-8a51-54e13c84aca4","","1008","
                <div class=""stimulus-container"">
                    <img src=""images/schematic_sequence/restaurant_scheme/restaurant_scheme_8.png"" class=""exp-image"">
                    <div class=""question-area"">
                        <p style=""font-size: 20px; font-weight: bold; margin: 0;"">Is there a person in this image?</p>
                    </div>
                </div>","0","main_experiment_trial","8","restaurant_scheme","schematic_sequence","","","","",""
"","","","","","html-keyboard-response","117","333495","0.0-117.0","89903843D905492388B73C7CBFB3F04B","019cf834-a7c9-7326-80aa-af1d8aa209d4","019cf80d-4266-7117-8a51-54e13c84aca4","","null","
                <div class=""stimulus-container"">
                    <img src=""images/schematic_sequence/restaurant_scheme/restaurant_scheme_9.png"" class=""exp-image"">
                    <div class=""question-area""></div> 
                </div>","null","","","","","","","","",""
"","","","","","html-button-response","118","336310","0.0-118.0","89903843D905492388B73C7CBFB3F04B","019cf834-a7c9-7326-80aa-af1d8aa209d4","019cf80d-4266-7117-8a51-54e13c84aca4","","2814","
                <div class=""stimulus-container"">
                    <img src=""images/schematic_sequence/restaurant_scheme/restaurant_scheme_9.png"" class=""exp-image"">
                    <div class=""question-area"">
                        <p style=""font-size: 20px; font-weight: bold; margin: 0;"">Is there a person in this image?</p>
                    </div>
                </div>","0","main_experiment_trial","9","restaurant_scheme","schematic_sequence","","","","",""
"","","","","","html-keyboard-response","119","341314","0.0-119.0","89903843D905492388B73C7CBFB3F04B","019cf834-a7c9-7326-80aa-af1d8aa209d4","019cf80d-4266-7117-8a51-54e13c84aca4","","null","
                <div class=""stimulus-container"">
                    <img src=""images/schematic_sequence/restaurant_scheme/restaurant_scheme_ten.png"" class=""exp-image"">
                    <div class=""question-area""></div> 
                </div>","null","","","","","","","","",""
"","","","","","html-button-response","120","342253","0.0-120.0","89903843D905492388B73C7CBFB3F04B","019cf834-a7c9-7326-80aa-af1d8aa209d4","019cf80d-4266-7117-8a51-54e13c84aca4","","938","
                <div class=""stimulus-container"">
                    <img src=""images/schematic_sequence/restaurant_scheme/restaurant_scheme_ten.png"" class=""exp-image"">
                    <div class=""question-area"">
                        <p style=""font-size: 20px; font-weight: bold; margin: 0;"">Is there a person in this image?</p>
                    </div>
                </div>","0","main_experiment_trial","ten","restaurant_scheme","schematic_sequence","","","","",""
"","","","","","html-keyboard-response","121","343263","0.0-121.0","89903843D905492388B73C7CBFB3F04B","019cf834-a7c9-7326-80aa-af1d8aa209d4","019cf80d-4266-7117-8a51-54e13c84aca4","","null","<div style=""background-color: white; width: 100vw; height: 100vh;""></div>","null","","","","","","","","",""
"","","","","","html-keyboard-response","122","348269","0.0-122.0","89903843D905492388B73C7CBFB3F04B","019cf834-a7c9-7326-80aa-af1d8aa209d4","019cf80d-4266-7117-8a51-54e13c84aca4","","null","
                <div class=""stimulus-container"">
                    <img src=""images/schematic_sequence/hotel_scheme/hotel_scheme_1.png"" class=""exp-image"">
                    <div class=""question-area""></div> 
                </div>","null","","","","","","","","",""
"","","","","","html-button-response","123","348922","0.0-123.0","89903843D905492388B73C7CBFB3F04B","019cf834-a7c9-7326-80aa-af1d8aa209d4","019cf80d-4266-7117-8a51-54e13c84aca4","","651","
                <div class=""stimulus-container"">
                    <img src=""images/schematic_sequence/hotel_scheme/hotel_scheme_1.png"" class=""exp-image"">
                    <div class=""question-area"">
                        <p style=""font-size: 20px; font-weight: bold; margin: 0;"">Is there a person in this image?</p>
                    </div>
                </div>","1","main_experiment_trial","1","hotel_scheme","schematic_sequence","","","","",""
"","","","","","html-keyboard-response","124","353929","0.0-124.0","89903843D905492388B73C7CBFB3F04B","019cf834-a7c9-7326-80aa-af1d8aa209d4","019cf80d-4266-7117-8a51-54e13c84aca4","","null","
                <div class=""stimulus-container"">
                    <img src=""images/schematic_sequence/hotel_scheme/hotel_scheme_2.png"" class=""exp-image"">
                    <div class=""question-area""></div> 
                </div>","null","","","","","","","","",""
"","","","","","html-button-response","125","354583","0.0-125.0","89903843D905492388B73C7CBFB3F04B","019cf834-a7c9-7326-80aa-af1d8aa209d4","019cf80d-4266-7117-8a51-54e13c84aca4","","653","
                <div class=""stimulus-container"">
                    <img src=""images/schematic_sequence/hotel_scheme/hotel_scheme_2.png"" class=""exp-image"">
                    <div class=""question-area"">
                        <p style=""font-size: 20px; font-weight: bold; margin: 0;"">Is there a person in this image?</p>
                    </div>
                </div>","0","main_experiment_trial","2","hotel_scheme","schematic_sequence","","","","",""
"","","","","","html-keyboard-response","126","359606","0.0-126.0","89903843D905492388B73C7CBFB3F04B","019cf834-a7c9-7326-80aa-af1d8aa209d4","019cf80d-4266-7117-8a51-54e13c84aca4","","null","
                <div class=""stimulus-container"">
                    <img src=""images/schematic_sequence/hotel_scheme/hotel_scheme_3.png"" class=""exp-image"">
                    <div class=""question-area""></div> 
                </div>","null","","","","","","","","",""
"","","","","","html-button-response","127","360124","0.0-127.0","89903843D905492388B73C7CBFB3F04B","019cf834-a7c9-7326-80aa-af1d8aa209d4","019cf80d-4266-7117-8a51-54e13c84aca4","","517","
                <div class=""stimulus-container"">
                    <img src=""images/schematic_sequence/hotel_scheme/hotel_scheme_3.png"" class=""exp-image"">
                    <div class=""question-area"">
                        <p style=""font-size: 20px; font-weight: bold; margin: 0;"">Is there a person in this image?</p>
                    </div>
                </div>","0","main_experiment_trial","3","hotel_scheme","schematic_sequence","","","","",""
"","","","","","html-keyboard-response","128","365139","0.0-128.0","89903843D905492388B73C7CBFB3F04B","019cf834-a7c9-7326-80aa-af1d8aa209d4","019cf80d-4266-7117-8a51-54e13c84aca4","","null","
                <div class=""stimulus-container"">
                    <img src=""images/schematic_sequence/hotel_scheme/hotel_scheme_4.png"" class=""exp-image"">
                    <div class=""question-area""></div> 
                </div>","null","","","","","","","","",""
"","","","","","html-button-response","129","366393","0.0-129.0","89903843D905492388B73C7CBFB3F04B","019cf834-a7c9-7326-80aa-af1d8aa209d4","019cf80d-4266-7117-8a51-54e13c84aca4","","1252","
                <div class=""stimulus-container"">
                    <img src=""images/schematic_sequence/hotel_scheme/hotel_scheme_4.png"" class=""exp-image"">
                    <div class=""question-area"">
                        <p style=""font-size: 20px; font-weight: bold; margin: 0;"">Is there a person in this image?</p>
                    </div>
                </div>","1","main_experiment_trial","4","hotel_scheme","schematic_sequence","","","","",""
"","","","","","html-keyboard-response","130","371406","0.0-130.0","89903843D905492388B73C7CBFB3F04B","019cf834-a7c9-7326-80aa-af1d8aa209d4","019cf80d-4266-7117-8a51-54e13c84aca4","","null","
                <div class=""stimulus-container"">
                    <img src=""images/schematic_sequence/hotel_scheme/hotel_scheme_5.png"" class=""exp-image"">
                    <div class=""question-area""></div> 
                </div>","null","","","","","","","","",""
"","","","","","html-button-response","131","372155","0.0-131.0","89903843D905492388B73C7CBFB3F04B","019cf834-a7c9-7326-80aa-af1d8aa209d4","019cf80d-4266-7117-8a51-54e13c84aca4","","749","
                <div class=""stimulus-container"">
                    <img src=""images/schematic_sequence/hotel_scheme/hotel_scheme_5.png"" class=""exp-image"">
                    <div class=""question-area"">
                        <p style=""font-size: 20px; font-weight: bold; margin: 0;"">Is there a person in this image?</p>
                    </div>
                </div>","0","main_experiment_trial","5","hotel_scheme","schematic_sequence","","","","",""
"","","","","","html-keyboard-response","132","377168","0.0-132.0","89903843D905492388B73C7CBFB3F04B","019cf834-a7c9-7326-80aa-af1d8aa209d4","019cf80d-4266-7117-8a51-54e13c84aca4","","null","
                <div class=""stimulus-container"">
                    <img src=""images/schematic_sequence/hotel_scheme/hotel_scheme_6.png"" class=""exp-image"">
                    <div class=""question-area""></div> 
                </div>","null","","","","","","","","",""
"","","","","","html-button-response","133","378402","0.0-133.0","89903843D905492388B73C7CBFB3F04B","019cf834-a7c9-7326-80aa-af1d8aa209d4","019cf80d-4266-7117-8a51-54e13c84aca4","","1232","
                <div class=""stimulus-container"">
                    <img src=""images/schematic_sequence/hotel_scheme/hotel_scheme_6.png"" class=""exp-image"">
                    <div class=""question-area"">
                        <p style=""font-size: 20px; font-weight: bold; margin: 0;"">Is there a person in this image?</p>
                    </div>
                </div>","0","main_experiment_trial","6","hotel_scheme","schematic_sequence","","","","",""
"","","","","","html-keyboard-response","134","383413","0.0-134.0","89903843D905492388B73C7CBFB3F04B","019cf834-a7c9-7326-80aa-af1d8aa209d4","019cf80d-4266-7117-8a51-54e13c84aca4","","null","
                <div class=""stimulus-container"">
                    <img src=""images/schematic_sequence/hotel_scheme/hotel_scheme_7.png"" class=""exp-image"">
                    <div class=""question-area""></div> 
                </div>","null","","","","","","","","",""
"","","","","","html-button-response","135","383868","0.0-135.0","89903843D905492388B73C7CBFB3F04B","019cf834-a7c9-7326-80aa-af1d8aa209d4","019cf80d-4266-7117-8a51-54e13c84aca4","","453","
                <div class=""stimulus-container"">
                    <img src=""images/schematic_sequence/hotel_scheme/hotel_scheme_7.png"" class=""exp-image"">
                    <div class=""question-area"">
                        <p style=""font-size: 20px; font-weight: bold; margin: 0;"">Is there a person in this image?</p>
                    </div>
                </div>","0","main_experiment_trial","7","hotel_scheme","schematic_sequence","","","","",""
"","","","","","html-keyboard-response","136","388883","0.0-136.0","89903843D905492388B73C7CBFB3F04B","019cf834-a7c9-7326-80aa-af1d8aa209d4","019cf80d-4266-7117-8a51-54e13c84aca4","","null","
                <div class=""stimulus-container"">
                    <img src=""images/schematic_sequence/hotel_scheme/hotel_scheme_8.png"" class=""exp-image"">
                    <div class=""question-area""></div> 
                </div>","null","","","","","","","","",""
"","","","","","html-button-response","137","389731","0.0-137.0","89903843D905492388B73C7CBFB3F04B","019cf834-a7c9-7326-80aa-af1d8aa209d4","019cf80d-4266-7117-8a51-54e13c84aca4","","847","
                <div class=""stimulus-container"">
                    <img src=""images/schematic_sequence/hotel_scheme/hotel_scheme_8.png"" class=""exp-image"">
                    <div class=""question-area"">
                        <p style=""font-size: 20px; font-weight: bold; margin: 0;"">Is there a person in this image?</p>
                    </div>
                </div>","0","main_experiment_trial","8","hotel_scheme","schematic_sequence","","","","",""
"","","","","","html-keyboard-response","138","394736","0.0-138.0","89903843D905492388B73C7CBFB3F04B","019cf834-a7c9-7326-80aa-af1d8aa209d4","019cf80d-4266-7117-8a51-54e13c84aca4","","null","
                <div class=""stimulus-container"">
                    <img src=""images/schematic_sequence/hotel_scheme/hotel_scheme_9.png"" class=""exp-image"">
                    <div class=""question-area""></div> 
                </div>","null","","","","","","","","",""
"","","","","","html-button-response","139","396843","0.0-139.0","89903843D905492388B73C7CBFB3F04B","019cf834-a7c9-7326-80aa-af1d8aa209d4","019cf80d-4266-7117-8a51-54e13c84aca4","","2105","
                <div class=""stimulus-container"">
                    <img src=""images/schematic_sequence/hotel_scheme/hotel_scheme_9.png"" class=""exp-image"">
                    <div class=""question-area"">
                        <p style=""font-size: 20px; font-weight: bold; margin: 0;"">Is there a person in this image?</p>
                    </div>
                </div>","0","main_experiment_trial","9","hotel_scheme","schematic_sequence","","","","",""
"","","","","","html-keyboard-response","140","401854","0.0-140.0","89903843D905492388B73C7CBFB3F04B","019cf834-a7c9-7326-80aa-af1d8aa209d4","019cf80d-4266-7117-8a51-54e13c84aca4","","null","
                <div class=""stimulus-container"">
                    <img src=""images/schematic_sequence/hotel_scheme/hotel_scheme_ten.png"" class=""exp-image"">
                    <div class=""question-area""></div> 
                </div>","null","","","","","","","","",""
"","","","","","html-button-response","141","402813","0.0-141.0","89903843D905492388B73C7CBFB3F04B","019cf834-a7c9-7326-80aa-af1d8aa209d4","019cf80d-4266-7117-8a51-54e13c84aca4","","958","
                <div class=""stimulus-container"">
                    <img src=""images/schematic_sequence/hotel_scheme/hotel_scheme_ten.png"" class=""exp-image"">
                    <div class=""question-area"">
                        <p style=""font-size: 20px; font-weight: bold; margin: 0;"">Is there a person in this image?</p>
                    </div>
                </div>","0","main_experiment_trial","ten","hotel_scheme","schematic_sequence","","","","",""
"","","","","","html-keyboard-response","142","403817","0.0-142.0","89903843D905492388B73C7CBFB3F04B","019cf834-a7c9-7326-80aa-af1d8aa209d4","019cf80d-4266-7117-8a51-54e13c84aca4","","null","<div style=""background-color: white; width: 100vw; height: 100vh;""></div>","null","","","","","","","","",""
"","","","","","html-keyboard-response","143","408828","0.0-143.0","89903843D905492388B73C7CBFB3F04B","019cf834-a7c9-7326-80aa-af1d8aa209d4","019cf80d-4266-7117-8a51-54e13c84aca4","","null","
                <div class=""stimulus-container"">
                    <img src=""images/semantic_sequence/physical_activity_semantic/physical_activity_semantic_1.png"" class=""exp-image"">
                    <div class=""question-area""></div> 
                </div>","null","","","","","","","","",""
"","","","","","html-button-response","144","409798","0.0-144.0","89903843D905492388B73C7CBFB3F04B","019cf834-a7c9-7326-80aa-af1d8aa209d4","019cf80d-4266-7117-8a51-54e13c84aca4","","968","
                <div class=""stimulus-container"">
                    <img src=""images/semantic_sequence/physical_activity_semantic/physical_activity_semantic_1.png"" class=""exp-image"">
                    <div class=""question-area"">
                        <p style=""font-size: 20px; font-weight: bold; margin: 0;"">Is there a person in this image?</p>
                    </div>
                </div>","0","main_experiment_trial","1","physical_activity_semantic","semantic_sequence","","","","",""
"","","","","","html-keyboard-response","145","414812","0.0-145.0","89903843D905492388B73C7CBFB3F04B","019cf834-a7c9-7326-80aa-af1d8aa209d4","019cf80d-4266-7117-8a51-54e13c84aca4","","null","
                <div class=""stimulus-container"">
                    <img src=""images/semantic_sequence/physical_activity_semantic/physical_activity_semantic_2.png"" class=""exp-image"">
                    <div class=""question-area""></div> 
                </div>","null","","","","","","","","",""
"","","","","","html-button-response","146","415432","0.0-146.0","89903843D905492388B73C7CBFB3F04B","019cf834-a7c9-7326-80aa-af1d8aa209d4","019cf80d-4266-7117-8a51-54e13c84aca4","","618","
                <div class=""stimulus-container"">
                    <img src=""images/semantic_sequence/physical_activity_semantic/physical_activity_semantic_2.png"" class=""exp-image"">
                    <div class=""question-area"">
                        <p style=""font-size: 20px; font-weight: bold; margin: 0;"">Is there a person in this image?</p>
                    </div>
                </div>","0","main_experiment_trial","2","physical_activity_semantic","semantic_sequence","","","","",""
"","","","","","html-keyboard-response","147","420439","0.0-147.0","89903843D905492388B73C7CBFB3F04B","019cf834-a7c9-7326-80aa-af1d8aa209d4","019cf80d-4266-7117-8a51-54e13c84aca4","","null","
                <div class=""stimulus-container"">
                    <img src=""images/semantic_sequence/physical_activity_semantic/physical_activity_semantic_3.png"" class=""exp-image"">
                    <div class=""question-area""></div> 
                </div>","null","","","","","","","","",""
"","","","","","html-button-response","148","420963","0.0-148.0","89903843D905492388B73C7CBFB3F04B","019cf834-a7c9-7326-80aa-af1d8aa209d4","019cf80d-4266-7117-8a51-54e13c84aca4","","524","
                <div class=""stimulus-container"">
                    <img src=""images/semantic_sequence/physical_activity_semantic/physical_activity_semantic_3.png"" class=""exp-image"">
                    <div class=""question-area"">
                        <p style=""font-size: 20px; font-weight: bold; margin: 0;"">Is there a person in this image?</p>
                    </div>
                </div>","0","main_experiment_trial","3","physical_activity_semantic","semantic_sequence","","","","",""
"","","","","","html-keyboard-response","149","425970","0.0-149.0","89903843D905492388B73C7CBFB3F04B","019cf834-a7c9-7326-80aa-af1d8aa209d4","019cf80d-4266-7117-8a51-54e13c84aca4","","null","
                <div class=""stimulus-container"">
                    <img src=""images/semantic_sequence/physical_activity_semantic/physical_activity_semantic_4.png"" class=""exp-image"">
                    <div class=""question-area""></div> 
                </div>","null","","","","","","","","",""
"","","","","","html-button-response","150","427044","0.0-150.0","89903843D905492388B73C7CBFB3F04B","019cf834-a7c9-7326-80aa-af1d8aa209d4","019cf80d-4266-7117-8a51-54e13c84aca4","","1071","
                <div class=""stimulus-container"">
                    <img src=""images/semantic_sequence/physical_activity_semantic/physical_activity_semantic_4.png"" class=""exp-image"">
                    <div class=""question-area"">
                        <p style=""font-size: 20px; font-weight: bold; margin: 0;"">Is there a person in this image?</p>
                    </div>
                </div>","0","main_experiment_trial","4","physical_activity_semantic","semantic_sequence","","","","",""
"","","","","","html-keyboard-response","151","432056","0.0-151.0","89903843D905492388B73C7CBFB3F04B","019cf834-a7c9-7326-80aa-af1d8aa209d4","019cf80d-4266-7117-8a51-54e13c84aca4","","null","
                <div class=""stimulus-container"">
                    <img src=""images/semantic_sequence/physical_activity_semantic/physical_activity_semantic_5.png"" class=""exp-image"">
                    <div class=""question-area""></div> 
                </div>","null","","","","","","","","",""
"","","","","","html-button-response","152","433535","0.0-152.0","89903843D905492388B73C7CBFB3F04B","019cf834-a7c9-7326-80aa-af1d8aa209d4","019cf80d-4266-7117-8a51-54e13c84aca4","","1478","
                <div class=""stimulus-container"">
                    <img src=""images/semantic_sequence/physical_activity_semantic/physical_activity_semantic_5.png"" class=""exp-image"">
                    <div class=""question-area"">
                        <p style=""font-size: 20px; font-weight: bold; margin: 0;"">Is there a person in this image?</p>
                    </div>
                </div>","0","main_experiment_trial","5","physical_activity_semantic","semantic_sequence","","","","",""
"","","","","","html-keyboard-response","153","438538","0.0-153.0","89903843D905492388B73C7CBFB3F04B","019cf834-a7c9-7326-80aa-af1d8aa209d4","019cf80d-4266-7117-8a51-54e13c84aca4","","null","
                <div class=""stimulus-container"">
                    <img src=""images/semantic_sequence/physical_activity_semantic/physical_activity_semantic_6.png"" class=""exp-image"">
                    <div class=""question-area""></div> 
                </div>","null","","","","","","","","",""
"","","","","","html-button-response","154","441265","0.0-154.0","89903843D905492388B73C7CBFB3F04B","019cf834-a7c9-7326-80aa-af1d8aa209d4","019cf80d-4266-7117-8a51-54e13c84aca4","","2727","
                <div class=""stimulus-container"">
                    <img src=""images/semantic_sequence/physical_activity_semantic/physical_activity_semantic_6.png"" class=""exp-image"">
                    <div class=""question-area"">
                        <p style=""font-size: 20px; font-weight: bold; margin: 0;"">Is there a person in this image?</p>
                    </div>
                </div>","0","main_experiment_trial","6","physical_activity_semantic","semantic_sequence","","","","",""
"","","","","","html-keyboard-response","155","446278","0.0-155.0","89903843D905492388B73C7CBFB3F04B","019cf834-a7c9-7326-80aa-af1d8aa209d4","019cf80d-4266-7117-8a51-54e13c84aca4","","null","
                <div class=""stimulus-container"">
                    <img src=""images/semantic_sequence/physical_activity_semantic/physical_activity_semantic_7.png"" class=""exp-image"">
                    <div class=""question-area""></div> 
                </div>","null","","","","","","","","",""
"","","","","","html-button-response","156","447143","0.0-156.0","89903843D905492388B73C7CBFB3F04B","019cf834-a7c9-7326-80aa-af1d8aa209d4","019cf80d-4266-7117-8a51-54e13c84aca4","","864","
                <div class=""stimulus-container"">
                    <img src=""images/semantic_sequence/physical_activity_semantic/physical_activity_semantic_7.png"" class=""exp-image"">
                    <div class=""question-area"">
                        <p style=""font-size: 20px; font-weight: bold; margin: 0;"">Is there a person in this image?</p>
                    </div>
                </div>","0","main_experiment_trial","7","physical_activity_semantic","semantic_sequence","","","","",""
"","","","","","html-keyboard-response","157","452151","0.0-157.0","89903843D905492388B73C7CBFB3F04B","019cf834-a7c9-7326-80aa-af1d8aa209d4","019cf80d-4266-7117-8a51-54e13c84aca4","","null","
                <div class=""stimulus-container"">
                    <img src=""images/semantic_sequence/physical_activity_semantic/physical_activity_semantic_8.png"" class=""exp-image"">
                    <div class=""question-area""></div> 
                </div>","null","","","","","","","","",""
"","","","","","html-button-response","158","452956","0.0-158.0","89903843D905492388B73C7CBFB3F04B","019cf834-a7c9-7326-80aa-af1d8aa209d4","019cf80d-4266-7117-8a51-54e13c84aca4","","804","
                <div class=""stimulus-container"">
                    <img src=""images/semantic_sequence/physical_activity_semantic/physical_activity_semantic_8.png"" class=""exp-image"">
                    <div class=""question-area"">
                        <p style=""font-size: 20px; font-weight: bold; margin: 0;"">Is there a person in this image?</p>
                    </div>
                </div>","0","main_experiment_trial","8","physical_activity_semantic","semantic_sequence","","","","",""
"","","","","","html-keyboard-response","159","457966","0.0-159.0","89903843D905492388B73C7CBFB3F04B","019cf834-a7c9-7326-80aa-af1d8aa209d4","019cf80d-4266-7117-8a51-54e13c84aca4","","null","
                <div class=""stimulus-container"">
                    <img src=""images/semantic_sequence/physical_activity_semantic/physical_activity_semantic_9.png"" class=""exp-image"">
                    <div class=""question-area""></div> 
                </div>","null","","","","","","","","",""
"","","","","","html-button-response","160","459595","0.0-160.0","89903843D905492388B73C7CBFB3F04B","019cf834-a7c9-7326-80aa-af1d8aa209d4","019cf80d-4266-7117-8a51-54e13c84aca4","","1628","
                <div class=""stimulus-container"">
                    <img src=""images/semantic_sequence/physical_activity_semantic/physical_activity_semantic_9.png"" class=""exp-image"">
                    <div class=""question-area"">
                        <p style=""font-size: 20px; font-weight: bold; margin: 0;"">Is there a person in this image?</p>
                    </div>
                </div>","0","main_experiment_trial","9","physical_activity_semantic","semantic_sequence","","","","",""
"","","","","","html-keyboard-response","161","464597","0.0-161.0","89903843D905492388B73C7CBFB3F04B","019cf834-a7c9-7326-80aa-af1d8aa209d4","019cf80d-4266-7117-8a51-54e13c84aca4","","null","
                <div class=""stimulus-container"">
                    <img src=""images/semantic_sequence/physical_activity_semantic/physical_activity_semantic_ten.png"" class=""exp-image"">
                    <div class=""question-area""></div> 
                </div>","null","","","","","","","","",""
"","","","","","html-button-response","162","465701","0.0-162.0","89903843D905492388B73C7CBFB3F04B","019cf834-a7c9-7326-80aa-af1d8aa209d4","019cf80d-4266-7117-8a51-54e13c84aca4","","1102","
                <div class=""stimulus-container"">
                    <img src=""images/semantic_sequence/physical_activity_semantic/physical_activity_semantic_ten.png"" class=""exp-image"">
                    <div class=""question-area"">
                        <p style=""font-size: 20px; font-weight: bold; margin: 0;"">Is there a person in this image?</p>
                    </div>
                </div>","0","main_experiment_trial","ten","physical_activity_semantic","semantic_sequence","","","","",""
"","","","","","html-keyboard-response","163","466711","0.0-163.0","89903843D905492388B73C7CBFB3F04B","019cf834-a7c9-7326-80aa-af1d8aa209d4","019cf80d-4266-7117-8a51-54e13c84aca4","","null","<div style=""background-color: white; width: 100vw; height: 100vh;""></div>","null","","","","","","","","",""
"","","","","","html-keyboard-response","164","471714","0.0-164.0","89903843D905492388B73C7CBFB3F04B","019cf834-a7c9-7326-80aa-af1d8aa209d4","019cf80d-4266-7117-8a51-54e13c84aca4","","null","
                <div class=""stimulus-container"">
                    <img src=""images/semantic_sequence/maintaining_a_car_semantic/maintaining_a_car_semantic_1.png"" class=""exp-image"">
                    <div class=""question-area""></div> 
                </div>","null","","","","","","","","",""
"","","","","","html-button-response","165","473103","0.0-165.0","89903843D905492388B73C7CBFB3F04B","019cf834-a7c9-7326-80aa-af1d8aa209d4","019cf80d-4266-7117-8a51-54e13c84aca4","","1388","
                <div class=""stimulus-container"">
                    <img src=""images/semantic_sequence/maintaining_a_car_semantic/maintaining_a_car_semantic_1.png"" class=""exp-image"">
                    <div class=""question-area"">
                        <p style=""font-size: 20px; font-weight: bold; margin: 0;"">Is there a person in this image?</p>
                    </div>
                </div>","0","main_experiment_trial","1","maintaining_a_car_semantic","semantic_sequence","","","","",""
"","","","","","html-keyboard-response","166","478118","0.0-166.0","89903843D905492388B73C7CBFB3F04B","019cf834-a7c9-7326-80aa-af1d8aa209d4","019cf80d-4266-7117-8a51-54e13c84aca4","","null","
                <div class=""stimulus-container"">
                    <img src=""images/semantic_sequence/maintaining_a_car_semantic/maintaining_a_car_semantic_2.png"" class=""exp-image"">
                    <div class=""question-area""></div> 
                </div>","null","","","","","","","","",""
"","","","","","html-button-response","167","479231","0.0-167.0","89903843D905492388B73C7CBFB3F04B","019cf834-a7c9-7326-80aa-af1d8aa209d4","019cf80d-4266-7117-8a51-54e13c84aca4","","1112","
                <div class=""stimulus-container"">
                    <img src=""images/semantic_sequence/maintaining_a_car_semantic/maintaining_a_car_semantic_2.png"" class=""exp-image"">
                    <div class=""question-area"">
                        <p style=""font-size: 20px; font-weight: bold; margin: 0;"">Is there a person in this image?</p>
                    </div>
                </div>","0","main_experiment_trial","2","maintaining_a_car_semantic","semantic_sequence","","","","",""
"","","","","","html-keyboard-response","168","484244","0.0-168.0","89903843D905492388B73C7CBFB3F04B","019cf834-a7c9-7326-80aa-af1d8aa209d4","019cf80d-4266-7117-8a51-54e13c84aca4","","null","
                <div class=""stimulus-container"">
                    <img src=""images/semantic_sequence/maintaining_a_car_semantic/maintaining_a_car_semantic_3.png"" class=""exp-image"">
                    <div class=""question-area""></div> 
                </div>","null","","","","","","","","",""
"","","","","","html-button-response","169","485765","0.0-169.0","89903843D905492388B73C7CBFB3F04B","019cf834-a7c9-7326-80aa-af1d8aa209d4","019cf80d-4266-7117-8a51-54e13c84aca4","","1520","
                <div class=""stimulus-container"">
                    <img src=""images/semantic_sequence/maintaining_a_car_semantic/maintaining_a_car_semantic_3.png"" class=""exp-image"">
                    <div class=""question-area"">
                        <p style=""font-size: 20px; font-weight: bold; margin: 0;"">Is there a person in this image?</p>
                    </div>
                </div>","0","main_experiment_trial","3","maintaining_a_car_semantic","semantic_sequence","","","","",""
"","","","","","html-keyboard-response","170","490781","0.0-170.0","89903843D905492388B73C7CBFB3F04B","019cf834-a7c9-7326-80aa-af1d8aa209d4","019cf80d-4266-7117-8a51-54e13c84aca4","","null","
                <div class=""stimulus-container"">
                    <img src=""images/semantic_sequence/maintaining_a_car_semantic/maintaining_a_car_semantic_4.png"" class=""exp-image"">
                    <div class=""question-area""></div> 
                </div>","null","","","","","","","","",""
"","","","","","html-button-response","171","491834","0.0-171.0","89903843D905492388B73C7CBFB3F04B","019cf834-a7c9-7326-80aa-af1d8aa209d4","019cf80d-4266-7117-8a51-54e13c84aca4","","1051","
                <div class=""stimulus-container"">
                    <img src=""images/semantic_sequence/maintaining_a_car_semantic/maintaining_a_car_semantic_4.png"" class=""exp-image"">
                    <div class=""question-area"">
                        <p style=""font-size: 20px; font-weight: bold; margin: 0;"">Is there a person in this image?</p>
                    </div>
                </div>","0","main_experiment_trial","4","maintaining_a_car_semantic","semantic_sequence","","","","",""
"","","","","","html-keyboard-response","172","496847","0.0-172.0","89903843D905492388B73C7CBFB3F04B","019cf834-a7c9-7326-80aa-af1d8aa209d4","019cf80d-4266-7117-8a51-54e13c84aca4","","null","
                <div class=""stimulus-container"">
                    <img src=""images/semantic_sequence/maintaining_a_car_semantic/maintaining_a_car_semantic_5.png"" class=""exp-image"">
                    <div class=""question-area""></div> 
                </div>","null","","","","","","","","",""
"","","","","","html-button-response","173","498385","0.0-173.0","89903843D905492388B73C7CBFB3F04B","019cf834-a7c9-7326-80aa-af1d8aa209d4","019cf80d-4266-7117-8a51-54e13c84aca4","","1537","
                <div class=""stimulus-container"">
                    <img src=""images/semantic_sequence/maintaining_a_car_semantic/maintaining_a_car_semantic_5.png"" class=""exp-image"">
                    <div class=""question-area"">
                        <p style=""font-size: 20px; font-weight: bold; margin: 0;"">Is there a person in this image?</p>
                    </div>
                </div>","0","main_experiment_trial","5","maintaining_a_car_semantic","semantic_sequence","","","","",""
"","","","","","html-keyboard-response","174","503400","0.0-174.0","89903843D905492388B73C7CBFB3F04B","019cf834-a7c9-7326-80aa-af1d8aa209d4","019cf80d-4266-7117-8a51-54e13c84aca4","","null","
                <div class=""stimulus-container"">
                    <img src=""images/semantic_sequence/maintaining_a_car_semantic/maintaining_a_car_semantic_6.png"" class=""exp-image"">
                    <div class=""question-area""></div> 
                </div>","null","","","","","","","","",""
"","","","","","html-button-response","175","504786","0.0-175.0","89903843D905492388B73C7CBFB3F04B","019cf834-a7c9-7326-80aa-af1d8aa209d4","019cf80d-4266-7117-8a51-54e13c84aca4","","1384","
                <div class=""stimulus-container"">
                    <img src=""images/semantic_sequence/maintaining_a_car_semantic/maintaining_a_car_semantic_6.png"" class=""exp-image"">
                    <div class=""question-area"">
                        <p style=""font-size: 20px; font-weight: bold; margin: 0;"">Is there a person in this image?</p>
                    </div>
                </div>","0","main_experiment_trial","6","maintaining_a_car_semantic","semantic_sequence","","","","",""
"","","","","","html-keyboard-response","176","509797","0.0-176.0","89903843D905492388B73C7CBFB3F04B","019cf834-a7c9-7326-80aa-af1d8aa209d4","019cf80d-4266-7117-8a51-54e13c84aca4","","null","
                <div class=""stimulus-container"">
                    <img src=""images/semantic_sequence/maintaining_a_car_semantic/maintaining_a_car_semantic_7.png"" class=""exp-image"">
                    <div class=""question-area""></div> 
                </div>","null","","","","","","","","",""
"","","","","","html-button-response","177","510524","0.0-177.0","89903843D905492388B73C7CBFB3F04B","019cf834-a7c9-7326-80aa-af1d8aa209d4","019cf80d-4266-7117-8a51-54e13c84aca4","","726","
                <div class=""stimulus-container"">
                    <img src=""images/semantic_sequence/maintaining_a_car_semantic/maintaining_a_car_semantic_7.png"" class=""exp-image"">
                    <div class=""question-area"">
                        <p style=""font-size: 20px; font-weight: bold; margin: 0;"">Is there a person in this image?</p>
                    </div>
                </div>","0","main_experiment_trial","7","maintaining_a_car_semantic","semantic_sequence","","","","",""
"","","","","","html-keyboard-response","178","515535","0.0-178.0","89903843D905492388B73C7CBFB3F04B","019cf834-a7c9-7326-80aa-af1d8aa209d4","019cf80d-4266-7117-8a51-54e13c84aca4","","null","
                <div class=""stimulus-container"">
                    <img src=""images/semantic_sequence/maintaining_a_car_semantic/maintaining_a_car_semantic_8.png"" class=""exp-image"">
                    <div class=""question-area""></div> 
                </div>","null","","","","","","","","",""
"","","","","","html-button-response","179","516218","0.0-179.0","89903843D905492388B73C7CBFB3F04B","019cf834-a7c9-7326-80aa-af1d8aa209d4","019cf80d-4266-7117-8a51-54e13c84aca4","","682","
                <div class=""stimulus-container"">
                    <img src=""images/semantic_sequence/maintaining_a_car_semantic/maintaining_a_car_semantic_8.png"" class=""exp-image"">
                    <div class=""question-area"">
                        <p style=""font-size: 20px; font-weight: bold; margin: 0;"">Is there a person in this image?</p>
                    </div>
