"success","timeout","failed_images","failed_audio","failed_video","trial_type","trial_index","time_elapsed","internal_node_id","subject_id","study_id","session_id","view_history","rt","stimulus","response","task","image_index","folder","sequence_type","valuable_image_index","reward_type","chosen_image_index","target_X","correct_choice"
"true","false","[]","[]","[]","preload","0","18371","0.0-0.0","6856D29CC0AD487CA557F138AC7F9B4A","019cf0b2-e040-7ffe-8f9d-46db1ec8283a","019cf037-5203-781a-b900-108ccb1cab86","","","","","","","","","","","","",""
"","","","","","instructions","1","21269","0.0-1.0","6856D29CC0AD487CA557F138AC7F9B4A","019cf0b2-e040-7ffe-8f9d-46db1ec8283a","019cf037-5203-781a-b900-108ccb1cab86","[{""page_index"":0,""viewing_time"":2897}]","2897","","","","","","","","","","",""
"","","","","","instructions","2","25083","0.0-2.0","6856D29CC0AD487CA557F138AC7F9B4A","019cf0b2-e040-7ffe-8f9d-46db1ec8283a","019cf037-5203-781a-b900-108ccb1cab86","[{""page_index"":0,""viewing_time"":3814}]","3814","","","","","","","","","","",""
"true","","","","","fullscreen","3","28534","0.0-3.0","6856D29CC0AD487CA557F138AC7F9B4A","019cf0b2-e040-7ffe-8f9d-46db1ec8283a","019cf037-5203-781a-b900-108ccb1cab86","","2439","","","","","","","","","","",""
"","","","","","instructions","4","42152","0.0-4.0","6856D29CC0AD487CA557F138AC7F9B4A","019cf0b2-e040-7ffe-8f9d-46db1ec8283a","019cf037-5203-781a-b900-108ccb1cab86","[{""page_index"":0,""viewing_time"":13617}]","13617","","","","","","","","","","",""
"","","","","","instructions","5","64507","0.0-5.0","6856D29CC0AD487CA557F138AC7F9B4A","019cf0b2-e040-7ffe-8f9d-46db1ec8283a","019cf037-5203-781a-b900-108ccb1cab86","[{""page_index"":0,""viewing_time"":22355}]","22355","","","","","","","","","","",""
"","","","","","html-keyboard-response","6","68538","0.0-6.0","6856D29CC0AD487CA557F138AC7F9B4A","019cf0b2-e040-7ffe-8f9d-46db1ec8283a","019cf037-5203-781a-b900-108ccb1cab86","","null","
                <div class=""stimulus-container"">
                    <img src=""images/instructions/movie_1.png"" class=""exp-image"">
                    <div class=""question-area""></div> 
                </div>","null","","","","","","","","",""
"","","","","","html-button-response","7","71555","0.0-7.0","6856D29CC0AD487CA557F138AC7F9B4A","019cf0b2-e040-7ffe-8f9d-46db1ec8283a","019cf037-5203-781a-b900-108ccb1cab86","","null","
                <div class=""stimulus-container"">
                    <img src=""images/instructions/movie_1.png"" class=""exp-image"">
                    <div class=""question-area"">
                        <p style=""font-size: 20px; font-weight: bold; margin: 0;"">Was there a person in this image?</p>
                    </div>
                </div>","null","example_question","1","","","","","","",""
"","","","","","html-keyboard-response","8","75567","0.0-8.0","6856D29CC0AD487CA557F138AC7F9B4A","019cf0b2-e040-7ffe-8f9d-46db1ec8283a","019cf037-5203-781a-b900-108ccb1cab86","","null","
                <div class=""stimulus-container"">
                    <img src=""images/instructions/movie_2.png"" class=""exp-image"">
                    <div class=""question-area""></div> 
                </div>","null","","","","","","","","",""
"","","","","","html-button-response","9","76881","0.0-9.0","6856D29CC0AD487CA557F138AC7F9B4A","019cf0b2-e040-7ffe-8f9d-46db1ec8283a","019cf037-5203-781a-b900-108ccb1cab86","","1311","
                <div class=""stimulus-container"">
                    <img src=""images/instructions/movie_2.png"" class=""exp-image"">
                    <div class=""question-area"">
                        <p style=""font-size: 20px; font-weight: bold; margin: 0;"">Was there a person in this image?</p>
                    </div>
                </div>","0","example_question","2","","","","","","",""
"","","","","","html-keyboard-response","10","80893","0.0-10.0","6856D29CC0AD487CA557F138AC7F9B4A","019cf0b2-e040-7ffe-8f9d-46db1ec8283a","019cf037-5203-781a-b900-108ccb1cab86","","null","
                <div class=""stimulus-container"">
                    <img src=""images/instructions/movie_3.png"" class=""exp-image"">
                    <div class=""question-area""></div> 
                </div>","null","","","","","","","","",""
"","","","","","html-button-response","11","81885","0.0-11.0","6856D29CC0AD487CA557F138AC7F9B4A","019cf0b2-e040-7ffe-8f9d-46db1ec8283a","019cf037-5203-781a-b900-108ccb1cab86","","992","
                <div class=""stimulus-container"">
                    <img src=""images/instructions/movie_3.png"" class=""exp-image"">
                    <div class=""question-area"">
                        <p style=""font-size: 20px; font-weight: bold; margin: 0;"">Was there a person in this image?</p>
                    </div>
                </div>","0","example_question","3","","","","","","",""
"","","","","","html-keyboard-response","12","85902","0.0-12.0","6856D29CC0AD487CA557F138AC7F9B4A","019cf0b2-e040-7ffe-8f9d-46db1ec8283a","019cf037-5203-781a-b900-108ccb1cab86","","null","
                <div class=""stimulus-container"">
                    <img src=""images/instructions/movie_4.png"" class=""exp-image"">
                    <div class=""question-area""></div> 
                </div>","null","","","","","","","","",""
"","","","","","html-button-response","13","86945","0.0-13.0","6856D29CC0AD487CA557F138AC7F9B4A","019cf0b2-e040-7ffe-8f9d-46db1ec8283a","019cf037-5203-781a-b900-108ccb1cab86","","1042","
                <div class=""stimulus-container"">
                    <img src=""images/instructions/movie_4.png"" class=""exp-image"">
                    <div class=""question-area"">
                        <p style=""font-size: 20px; font-weight: bold; margin: 0;"">Was there a person in this image?</p>
                    </div>
                </div>","0","example_question","4","","","","","","",""
"","","","","","instructions","14","89441","0.0-14.0","6856D29CC0AD487CA557F138AC7F9B4A","019cf0b2-e040-7ffe-8f9d-46db1ec8283a","019cf037-5203-781a-b900-108ccb1cab86","[{""page_index"":0,""viewing_time"":2496}]","2497","","","","","","","","","","",""
"","","","","","instructions","15","95720","0.0-15.0","6856D29CC0AD487CA557F138AC7F9B4A","019cf0b2-e040-7ffe-8f9d-46db1ec8283a","019cf037-5203-781a-b900-108ccb1cab86","[{""page_index"":0,""viewing_time"":6278}]","6278","","","","","","","","","","",""
"","","","","","html-keyboard-response","16","96730","0.0-16.0","6856D29CC0AD487CA557F138AC7F9B4A","019cf0b2-e040-7ffe-8f9d-46db1ec8283a","019cf037-5203-781a-b900-108ccb1cab86","","null","<div style=""background-color: white; width: 100vw; height: 100vh;""></div>","null","","","","","","","","",""
"","","","","","html-keyboard-response","17","101741","0.0-17.0","6856D29CC0AD487CA557F138AC7F9B4A","019cf0b2-e040-7ffe-8f9d-46db1ec8283a","019cf037-5203-781a-b900-108ccb1cab86","","null","
                <div class=""stimulus-container"">
                    <img src=""images/schematic_sequence/interview_scheme/interview_scheme_1.png"" class=""exp-image"">
                    <div class=""question-area""></div> 
                </div>","null","","","","","","","","",""
"","","","","","html-button-response","18","103439","0.0-18.0","6856D29CC0AD487CA557F138AC7F9B4A","019cf0b2-e040-7ffe-8f9d-46db1ec8283a","019cf037-5203-781a-b900-108ccb1cab86","","1696","
                <div class=""stimulus-container"">
                    <img src=""images/schematic_sequence/interview_scheme/interview_scheme_1.png"" class=""exp-image"">
                    <div class=""question-area"">
                        <p style=""font-size: 20px; font-weight: bold; margin: 0;"">Is there a person in this image?</p>
                    </div>
                </div>","1","main_experiment_trial","1","interview_scheme","schematic_sequence","","","","",""
"","","","","","html-keyboard-response","19","108454","0.0-19.0","6856D29CC0AD487CA557F138AC7F9B4A","019cf0b2-e040-7ffe-8f9d-46db1ec8283a","019cf037-5203-781a-b900-108ccb1cab86","","null","
                <div class=""stimulus-container"">
                    <img src=""images/schematic_sequence/interview_scheme/interview_scheme_2.png"" class=""exp-image"">
                    <div class=""question-area""></div> 
                </div>","null","","","","","","","","",""
"","","","","","html-button-response","20","110151","0.0-20.0","6856D29CC0AD487CA557F138AC7F9B4A","019cf0b2-e040-7ffe-8f9d-46db1ec8283a","019cf037-5203-781a-b900-108ccb1cab86","","1696","
                <div class=""stimulus-container"">
                    <img src=""images/schematic_sequence/interview_scheme/interview_scheme_2.png"" class=""exp-image"">
                    <div class=""question-area"">
                        <p style=""font-size: 20px; font-weight: bold; margin: 0;"">Is there a person in this image?</p>
                    </div>
                </div>","1","main_experiment_trial","2","interview_scheme","schematic_sequence","","","","",""
"","","","","","html-keyboard-response","21","115164","0.0-21.0","6856D29CC0AD487CA557F138AC7F9B4A","019cf0b2-e040-7ffe-8f9d-46db1ec8283a","019cf037-5203-781a-b900-108ccb1cab86","","null","
                <div class=""stimulus-container"">
                    <img src=""images/schematic_sequence/interview_scheme/interview_scheme_3.png"" class=""exp-image"">
                    <div class=""question-area""></div> 
                </div>","null","","","","","","","","",""
"","","","","","html-button-response","22","116268","0.0-22.0","6856D29CC0AD487CA557F138AC7F9B4A","019cf0b2-e040-7ffe-8f9d-46db1ec8283a","019cf037-5203-781a-b900-108ccb1cab86","","1103","
                <div class=""stimulus-container"">
                    <img src=""images/schematic_sequence/interview_scheme/interview_scheme_3.png"" class=""exp-image"">
                    <div class=""question-area"">
                        <p style=""font-size: 20px; font-weight: bold; margin: 0;"">Is there a person in this image?</p>
                    </div>
                </div>","1","main_experiment_trial","3","interview_scheme","schematic_sequence","","","","",""
"","","","","","html-keyboard-response","23","121361","0.0-23.0","6856D29CC0AD487CA557F138AC7F9B4A","019cf0b2-e040-7ffe-8f9d-46db1ec8283a","019cf037-5203-781a-b900-108ccb1cab86","","null","
                <div class=""stimulus-container"">
                    <img src=""images/schematic_sequence/interview_scheme/interview_scheme_4.png"" class=""exp-image"">
                    <div class=""question-area""></div> 
                </div>","null","","","","","","","","",""
"","","","","","html-button-response","24","122344","0.0-24.0","6856D29CC0AD487CA557F138AC7F9B4A","019cf0b2-e040-7ffe-8f9d-46db1ec8283a","019cf037-5203-781a-b900-108ccb1cab86","","982","
                <div class=""stimulus-container"">
                    <img src=""images/schematic_sequence/interview_scheme/interview_scheme_4.png"" class=""exp-image"">
                    <div class=""question-area"">
                        <p style=""font-size: 20px; font-weight: bold; margin: 0;"">Is there a person in this image?</p>
                    </div>
                </div>","1","main_experiment_trial","4","interview_scheme","schematic_sequence","","","","",""
"","","","","","html-keyboard-response","25","127351","0.0-25.0","6856D29CC0AD487CA557F138AC7F9B4A","019cf0b2-e040-7ffe-8f9d-46db1ec8283a","019cf037-5203-781a-b900-108ccb1cab86","","null","
                <div class=""stimulus-container"">
                    <img src=""images/schematic_sequence/interview_scheme/interview_scheme_5.png"" class=""exp-image"">
                    <div class=""question-area""></div> 
                </div>","null","","","","","","","","",""
"","","","","","html-button-response","26","128734","0.0-26.0","6856D29CC0AD487CA557F138AC7F9B4A","019cf0b2-e040-7ffe-8f9d-46db1ec8283a","019cf037-5203-781a-b900-108ccb1cab86","","1383","
                <div class=""stimulus-container"">
                    <img src=""images/schematic_sequence/interview_scheme/interview_scheme_5.png"" class=""exp-image"">
                    <div class=""question-area"">
                        <p style=""font-size: 20px; font-weight: bold; margin: 0;"">Is there a person in this image?</p>
                    </div>
                </div>","0","main_experiment_trial","5","interview_scheme","schematic_sequence","","","","",""
"","","","","","html-keyboard-response","27","133750","0.0-27.0","6856D29CC0AD487CA557F138AC7F9B4A","019cf0b2-e040-7ffe-8f9d-46db1ec8283a","019cf037-5203-781a-b900-108ccb1cab86","","null","
                <div class=""stimulus-container"">
                    <img src=""images/schematic_sequence/interview_scheme/interview_scheme_6.png"" class=""exp-image"">
                    <div class=""question-area""></div> 
                </div>","null","","","","","","","","",""
"","","","","","html-button-response","28","134717","0.0-28.0","6856D29CC0AD487CA557F138AC7F9B4A","019cf0b2-e040-7ffe-8f9d-46db1ec8283a","019cf037-5203-781a-b900-108ccb1cab86","","966","
                <div class=""stimulus-container"">
                    <img src=""images/schematic_sequence/interview_scheme/interview_scheme_6.png"" class=""exp-image"">
                    <div class=""question-area"">
                        <p style=""font-size: 20px; font-weight: bold; margin: 0;"">Is there a person in this image?</p>
                    </div>
                </div>","0","main_experiment_trial","6","interview_scheme","schematic_sequence","","","","",""
"","","","","","html-keyboard-response","29","139731","0.0-29.0","6856D29CC0AD487CA557F138AC7F9B4A","019cf0b2-e040-7ffe-8f9d-46db1ec8283a","019cf037-5203-781a-b900-108ccb1cab86","","null","
                <div class=""stimulus-container"">
                    <img src=""images/schematic_sequence/interview_scheme/interview_scheme_7.png"" class=""exp-image"">
                    <div class=""question-area""></div> 
                </div>","null","","","","","","","","",""
"","","","","","html-button-response","30","140384","0.0-30.0","6856D29CC0AD487CA557F138AC7F9B4A","019cf0b2-e040-7ffe-8f9d-46db1ec8283a","019cf037-5203-781a-b900-108ccb1cab86","","652","
                <div class=""stimulus-container"">
                    <img src=""images/schematic_sequence/interview_scheme/interview_scheme_7.png"" class=""exp-image"">
                    <div class=""question-area"">
                        <p style=""font-size: 20px; font-weight: bold; margin: 0;"">Is there a person in this image?</p>
                    </div>
                </div>","0","main_experiment_trial","7","interview_scheme","schematic_sequence","","","","",""
"","","","","","html-keyboard-response","31","145388","0.0-31.0","6856D29CC0AD487CA557F138AC7F9B4A","019cf0b2-e040-7ffe-8f9d-46db1ec8283a","019cf037-5203-781a-b900-108ccb1cab86","","null","
                <div class=""stimulus-container"">
                    <img src=""images/schematic_sequence/interview_scheme/interview_scheme_8.png"" class=""exp-image"">
                    <div class=""question-area""></div> 
                </div>","null","","","","","","","","",""
"","","","","","html-button-response","32","146105","0.0-32.0","6856D29CC0AD487CA557F138AC7F9B4A","019cf0b2-e040-7ffe-8f9d-46db1ec8283a","019cf037-5203-781a-b900-108ccb1cab86","","717","
                <div class=""stimulus-container"">
                    <img src=""images/schematic_sequence/interview_scheme/interview_scheme_8.png"" class=""exp-image"">
                    <div class=""question-area"">
                        <p style=""font-size: 20px; font-weight: bold; margin: 0;"">Is there a person in this image?</p>
                    </div>
                </div>","0","main_experiment_trial","8","interview_scheme","schematic_sequence","","","","",""
"","","","","","html-keyboard-response","33","151122","0.0-33.0","6856D29CC0AD487CA557F138AC7F9B4A","019cf0b2-e040-7ffe-8f9d-46db1ec8283a","019cf037-5203-781a-b900-108ccb1cab86","","null","
                <div class=""stimulus-container"">
                    <img src=""images/schematic_sequence/interview_scheme/interview_scheme_9.png"" class=""exp-image"">
                    <div class=""question-area""></div> 
                </div>","null","","","","","","","","",""
"","","","","","html-button-response","34","152057","0.0-34.0","6856D29CC0AD487CA557F138AC7F9B4A","019cf0b2-e040-7ffe-8f9d-46db1ec8283a","019cf037-5203-781a-b900-108ccb1cab86","","935","
                <div class=""stimulus-container"">
                    <img src=""images/schematic_sequence/interview_scheme/interview_scheme_9.png"" class=""exp-image"">
                    <div class=""question-area"">
                        <p style=""font-size: 20px; font-weight: bold; margin: 0;"">Is there a person in this image?</p>
                    </div>
                </div>","0","main_experiment_trial","9","interview_scheme","schematic_sequence","","","","",""
"","","","","","html-keyboard-response","35","157070","0.0-35.0","6856D29CC0AD487CA557F138AC7F9B4A","019cf0b2-e040-7ffe-8f9d-46db1ec8283a","019cf037-5203-781a-b900-108ccb1cab86","","null","
                <div class=""stimulus-container"">
                    <img src=""images/schematic_sequence/interview_scheme/interview_scheme_ten.png"" class=""exp-image"">
                    <div class=""question-area""></div> 
                </div>","null","","","","","","","","",""
"","","","","","html-button-response","36","157824","0.0-36.0","6856D29CC0AD487CA557F138AC7F9B4A","019cf0b2-e040-7ffe-8f9d-46db1ec8283a","019cf037-5203-781a-b900-108ccb1cab86","","753","
                <div class=""stimulus-container"">
                    <img src=""images/schematic_sequence/interview_scheme/interview_scheme_ten.png"" class=""exp-image"">
                    <div class=""question-area"">
                        <p style=""font-size: 20px; font-weight: bold; margin: 0;"">Is there a person in this image?</p>
                    </div>
                </div>","0","main_experiment_trial","ten","interview_scheme","schematic_sequence","","","","",""
"","","","","","html-keyboard-response","37","158832","0.0-37.0","6856D29CC0AD487CA557F138AC7F9B4A","019cf0b2-e040-7ffe-8f9d-46db1ec8283a","019cf037-5203-781a-b900-108ccb1cab86","","null","<div style=""background-color: white; width: 100vw; height: 100vh;""></div>","null","","","","","","","","",""
"","","","","","html-keyboard-response","38","163843","0.0-38.0","6856D29CC0AD487CA557F138AC7F9B4A","019cf0b2-e040-7ffe-8f9d-46db1ec8283a","019cf037-5203-781a-b900-108ccb1cab86","","null","
                <div class=""stimulus-container"">
                    <img src=""images/causal_sequence/dog_causal/dog_causal_1.png"" class=""exp-image"">
                    <div class=""question-area""></div> 
                </div>","null","","","","","","","","",""
"","","","","","html-button-response","39","165081","0.0-39.0","6856D29CC0AD487CA557F138AC7F9B4A","019cf0b2-e040-7ffe-8f9d-46db1ec8283a","019cf037-5203-781a-b900-108ccb1cab86","","1238","
                <div class=""stimulus-container"">
                    <img src=""images/causal_sequence/dog_causal/dog_causal_1.png"" class=""exp-image"">
                    <div class=""question-area"">
                        <p style=""font-size: 20px; font-weight: bold; margin: 0;"">Is there a person in this image?</p>
                    </div>
                </div>","0","main_experiment_trial","1","dog_causal","causal_sequence","","","","",""
"","","","","","html-keyboard-response","40","170085","0.0-40.0","6856D29CC0AD487CA557F138AC7F9B4A","019cf0b2-e040-7ffe-8f9d-46db1ec8283a","019cf037-5203-781a-b900-108ccb1cab86","","null","
                <div class=""stimulus-container"">
                    <img src=""images/causal_sequence/dog_causal/dog_causal_2.png"" class=""exp-image"">
                    <div class=""question-area""></div> 
                </div>","null","","","","","","","","",""
"","","","","","html-button-response","41","170933","0.0-41.0","6856D29CC0AD487CA557F138AC7F9B4A","019cf0b2-e040-7ffe-8f9d-46db1ec8283a","019cf037-5203-781a-b900-108ccb1cab86","","847","
                <div class=""stimulus-container"">
                    <img src=""images/causal_sequence/dog_causal/dog_causal_2.png"" class=""exp-image"">
                    <div class=""question-area"">
                        <p style=""font-size: 20px; font-weight: bold; margin: 0;"">Is there a person in this image?</p>
                    </div>
                </div>","0","main_experiment_trial","2","dog_causal","causal_sequence","","","","",""
"","","","","","html-keyboard-response","42","175946","0.0-42.0","6856D29CC0AD487CA557F138AC7F9B4A","019cf0b2-e040-7ffe-8f9d-46db1ec8283a","019cf037-5203-781a-b900-108ccb1cab86","","null","
                <div class=""stimulus-container"">
                    <img src=""images/causal_sequence/dog_causal/dog_causal_3.png"" class=""exp-image"">
                    <div class=""question-area""></div> 
                </div>","null","","","","","","","","",""
"","","","","","html-button-response","43","177018","0.0-43.0","6856D29CC0AD487CA557F138AC7F9B4A","019cf0b2-e040-7ffe-8f9d-46db1ec8283a","019cf037-5203-781a-b900-108ccb1cab86","","1072","
                <div class=""stimulus-container"">
                    <img src=""images/causal_sequence/dog_causal/dog_causal_3.png"" class=""exp-image"">
                    <div class=""question-area"">
                        <p style=""font-size: 20px; font-weight: bold; margin: 0;"">Is there a person in this image?</p>
                    </div>
                </div>","0","main_experiment_trial","3","dog_causal","causal_sequence","","","","",""
"","","","","","html-keyboard-response","44","182027","0.0-44.0","6856D29CC0AD487CA557F138AC7F9B4A","019cf0b2-e040-7ffe-8f9d-46db1ec8283a","019cf037-5203-781a-b900-108ccb1cab86","","null","
                <div class=""stimulus-container"">
                    <img src=""images/causal_sequence/dog_causal/dog_causal_4.png"" class=""exp-image"">
                    <div class=""question-area""></div> 
                </div>","null","","","","","","","","",""
"","","","","","html-button-response","45","182849","0.0-45.0","6856D29CC0AD487CA557F138AC7F9B4A","019cf0b2-e040-7ffe-8f9d-46db1ec8283a","019cf037-5203-781a-b900-108ccb1cab86","","821","
                <div class=""stimulus-container"">
                    <img src=""images/causal_sequence/dog_causal/dog_causal_4.png"" class=""exp-image"">
                    <div class=""question-area"">
                        <p style=""font-size: 20px; font-weight: bold; margin: 0;"">Is there a person in this image?</p>
                    </div>
                </div>","0","main_experiment_trial","4","dog_causal","causal_sequence","","","","",""
"","","","","","html-keyboard-response","46","187862","0.0-46.0","6856D29CC0AD487CA557F138AC7F9B4A","019cf0b2-e040-7ffe-8f9d-46db1ec8283a","019cf037-5203-781a-b900-108ccb1cab86","","null","
                <div class=""stimulus-container"">
                    <img src=""images/causal_sequence/dog_causal/dog_causal_5.png"" class=""exp-image"">
                    <div class=""question-area""></div> 
                </div>","null","","","","","","","","",""
"","","","","","html-button-response","47","188592","0.0-47.0","6856D29CC0AD487CA557F138AC7F9B4A","019cf0b2-e040-7ffe-8f9d-46db1ec8283a","019cf037-5203-781a-b900-108ccb1cab86","","714","
                <div class=""stimulus-container"">
                    <img src=""images/causal_sequence/dog_causal/dog_causal_5.png"" class=""exp-image"">
                    <div class=""question-area"">
                        <p style=""font-size: 20px; font-weight: bold; margin: 0;"">Is there a person in this image?</p>
                    </div>
                </div>","0","main_experiment_trial","5","dog_causal","causal_sequence","","","","",""
"","","","","","html-keyboard-response","48","193606","0.0-48.0","6856D29CC0AD487CA557F138AC7F9B4A","019cf0b2-e040-7ffe-8f9d-46db1ec8283a","019cf037-5203-781a-b900-108ccb1cab86","","null","
                <div class=""stimulus-container"">
                    <img src=""images/causal_sequence/dog_causal/dog_causal_6.png"" class=""exp-image"">
                    <div class=""question-area""></div> 
                </div>","null","","","","","","","","",""
"","","","","","html-button-response","49","194861","0.0-49.0","6856D29CC0AD487CA557F138AC7F9B4A","019cf0b2-e040-7ffe-8f9d-46db1ec8283a","019cf037-5203-781a-b900-108ccb1cab86","","1254","
                <div class=""stimulus-container"">
                    <img src=""images/causal_sequence/dog_causal/dog_causal_6.png"" class=""exp-image"">
                    <div class=""question-area"">
                        <p style=""font-size: 20px; font-weight: bold; margin: 0;"">Is there a person in this image?</p>
                    </div>
                </div>","0","main_experiment_trial","6","dog_causal","causal_sequence","","","","",""
"","","","","","html-keyboard-response","50","199863","0.0-50.0","6856D29CC0AD487CA557F138AC7F9B4A","019cf0b2-e040-7ffe-8f9d-46db1ec8283a","019cf037-5203-781a-b900-108ccb1cab86","","null","
                <div class=""stimulus-container"">
                    <img src=""images/causal_sequence/dog_causal/dog_causal_7.png"" class=""exp-image"">
                    <div class=""question-area""></div> 
                </div>","null","","","","","","","","",""
"","","","","","html-button-response","51","200659","0.0-51.0","6856D29CC0AD487CA557F138AC7F9B4A","019cf0b2-e040-7ffe-8f9d-46db1ec8283a","019cf037-5203-781a-b900-108ccb1cab86","","795","
                <div class=""stimulus-container"">
                    <img src=""images/causal_sequence/dog_causal/dog_causal_7.png"" class=""exp-image"">
                    <div class=""question-area"">
                        <p style=""font-size: 20px; font-weight: bold; margin: 0;"">Is there a person in this image?</p>
                    </div>
                </div>","0","main_experiment_trial","7","dog_causal","causal_sequence","","","","",""
"","","","","","html-keyboard-response","52","205663","0.0-52.0","6856D29CC0AD487CA557F138AC7F9B4A","019cf0b2-e040-7ffe-8f9d-46db1ec8283a","019cf037-5203-781a-b900-108ccb1cab86","","null","
                <div class=""stimulus-container"">
                    <img src=""images/causal_sequence/dog_causal/dog_causal_8.png"" class=""exp-image"">
                    <div class=""question-area""></div> 
                </div>","null","","","","","","","","",""
"","","","","","html-button-response","53","206440","0.0-53.0","6856D29CC0AD487CA557F138AC7F9B4A","019cf0b2-e040-7ffe-8f9d-46db1ec8283a","019cf037-5203-781a-b900-108ccb1cab86","","776","
                <div class=""stimulus-container"">
                    <img src=""images/causal_sequence/dog_causal/dog_causal_8.png"" class=""exp-image"">
                    <div class=""question-area"">
                        <p style=""font-size: 20px; font-weight: bold; margin: 0;"">Is there a person in this image?</p>
                    </div>
                </div>","0","main_experiment_trial","8","dog_causal","causal_sequence","","","","",""
"","","","","","html-keyboard-response","54","211443","0.0-54.0","6856D29CC0AD487CA557F138AC7F9B4A","019cf0b2-e040-7ffe-8f9d-46db1ec8283a","019cf037-5203-781a-b900-108ccb1cab86","","null","
                <div class=""stimulus-container"">
                    <img src=""images/causal_sequence/dog_causal/dog_causal_9.png"" class=""exp-image"">
                    <div class=""question-area""></div> 
                </div>","null","","","","","","","","",""
"","","","","","html-button-response","55","212314","0.0-55.0","6856D29CC0AD487CA557F138AC7F9B4A","019cf0b2-e040-7ffe-8f9d-46db1ec8283a","019cf037-5203-781a-b900-108ccb1cab86","","870","
                <div class=""stimulus-container"">
                    <img src=""images/causal_sequence/dog_causal/dog_causal_9.png"" class=""exp-image"">
                    <div class=""question-area"">
                        <p style=""font-size: 20px; font-weight: bold; margin: 0;"">Is there a person in this image?</p>
                    </div>
                </div>","0","main_experiment_trial","9","dog_causal","causal_sequence","","","","",""
"","","","","","html-keyboard-response","56","217329","0.0-56.0","6856D29CC0AD487CA557F138AC7F9B4A","019cf0b2-e040-7ffe-8f9d-46db1ec8283a","019cf037-5203-781a-b900-108ccb1cab86","","null","
                <div class=""stimulus-container"">
                    <img src=""images/causal_sequence/dog_causal/dog_causal_ten.png"" class=""exp-image"">
                    <div class=""question-area""></div> 
                </div>","null","","","","","","","","",""
"","","","","","html-button-response","57","218123","0.0-57.0","6856D29CC0AD487CA557F138AC7F9B4A","019cf0b2-e040-7ffe-8f9d-46db1ec8283a","019cf037-5203-781a-b900-108ccb1cab86","","793","
                <div class=""stimulus-container"">
                    <img src=""images/causal_sequence/dog_causal/dog_causal_ten.png"" class=""exp-image"">
                    <div class=""question-area"">
                        <p style=""font-size: 20px; font-weight: bold; margin: 0;"">Is there a person in this image?</p>
                    </div>
                </div>","0","main_experiment_trial","ten","dog_causal","causal_sequence","","","","",""
"","","","","","html-keyboard-response","58","219129","0.0-58.0","6856D29CC0AD487CA557F138AC7F9B4A","019cf0b2-e040-7ffe-8f9d-46db1ec8283a","019cf037-5203-781a-b900-108ccb1cab86","","null","<div style=""background-color: white; width: 100vw; height: 100vh;""></div>","null","","","","","","","","",""
"","","","","","html-keyboard-response","59","224139","0.0-59.0","6856D29CC0AD487CA557F138AC7F9B4A","019cf0b2-e040-7ffe-8f9d-46db1ec8283a","019cf037-5203-781a-b900-108ccb1cab86","","null","
                <div class=""stimulus-container"">
                    <img src=""images/causal_sequence/saving_a_cat_causal/saving_a_cat_causal_1.png"" class=""exp-image"">
                    <div class=""question-area""></div> 
                </div>","null","","","","","","","","",""
"","","","","","html-button-response","60","224940","0.0-60.0","6856D29CC0AD487CA557F138AC7F9B4A","019cf0b2-e040-7ffe-8f9d-46db1ec8283a","019cf037-5203-781a-b900-108ccb1cab86","","799","
                <div class=""stimulus-container"">
                    <img src=""images/causal_sequence/saving_a_cat_causal/saving_a_cat_causal_1.png"" class=""exp-image"">
                    <div class=""question-area"">
                        <p style=""font-size: 20px; font-weight: bold; margin: 0;"">Is there a person in this image?</p>
                    </div>
                </div>","0","main_experiment_trial","1","saving_a_cat_causal","causal_sequence","","","","",""
"","","","","","html-keyboard-response","61","229951","0.0-61.0","6856D29CC0AD487CA557F138AC7F9B4A","019cf0b2-e040-7ffe-8f9d-46db1ec8283a","019cf037-5203-781a-b900-108ccb1cab86","","null","
                <div class=""stimulus-container"">
                    <img src=""images/causal_sequence/saving_a_cat_causal/saving_a_cat_causal_2.png"" class=""exp-image"">
                    <div class=""question-area""></div> 
                </div>","null","","","","","","","","",""
"","","","","","html-button-response","62","230834","0.0-62.0","6856D29CC0AD487CA557F138AC7F9B4A","019cf0b2-e040-7ffe-8f9d-46db1ec8283a","019cf037-5203-781a-b900-108ccb1cab86","","883","
                <div class=""stimulus-container"">
                    <img src=""images/causal_sequence/saving_a_cat_causal/saving_a_cat_causal_2.png"" class=""exp-image"">
                    <div class=""question-area"">
                        <p style=""font-size: 20px; font-weight: bold; margin: 0;"">Is there a person in this image?</p>
                    </div>
                </div>","0","main_experiment_trial","2","saving_a_cat_causal","causal_sequence","","","","",""
"","","","","","html-keyboard-response","63","235850","0.0-63.0","6856D29CC0AD487CA557F138AC7F9B4A","019cf0b2-e040-7ffe-8f9d-46db1ec8283a","019cf037-5203-781a-b900-108ccb1cab86","","null","
                <div class=""stimulus-container"">
                    <img src=""images/causal_sequence/saving_a_cat_causal/saving_a_cat_causal_3.png"" class=""exp-image"">
                    <div class=""question-area""></div> 
                </div>","null","","","","","","","","",""
"","","","","","html-button-response","64","237049","0.0-64.0","6856D29CC0AD487CA557F138AC7F9B4A","019cf0b2-e040-7ffe-8f9d-46db1ec8283a","019cf037-5203-781a-b900-108ccb1cab86","","1197","
                <div class=""stimulus-container"">
                    <img src=""images/causal_sequence/saving_a_cat_causal/saving_a_cat_causal_3.png"" class=""exp-image"">
                    <div class=""question-area"">
                        <p style=""font-size: 20px; font-weight: bold; margin: 0;"">Is there a person in this image?</p>
                    </div>
                </div>","1","main_experiment_trial","3","saving_a_cat_causal","causal_sequence","","","","",""
"","","","","","html-keyboard-response","65","242058","0.0-65.0","6856D29CC0AD487CA557F138AC7F9B4A","019cf0b2-e040-7ffe-8f9d-46db1ec8283a","019cf037-5203-781a-b900-108ccb1cab86","","null","
                <div class=""stimulus-container"">
                    <img src=""images/causal_sequence/saving_a_cat_causal/saving_a_cat_causal_4.png"" class=""exp-image"">
                    <div class=""question-area""></div> 
                </div>","null","","","","","","","","",""
"","","","","","html-button-response","66","242972","0.0-66.0","6856D29CC0AD487CA557F138AC7F9B4A","019cf0b2-e040-7ffe-8f9d-46db1ec8283a","019cf037-5203-781a-b900-108ccb1cab86","","913","
                <div class=""stimulus-container"">
                    <img src=""images/causal_sequence/saving_a_cat_causal/saving_a_cat_causal_4.png"" class=""exp-image"">
                    <div class=""question-area"">
                        <p style=""font-size: 20px; font-weight: bold; margin: 0;"">Is there a person in this image?</p>
                    </div>
                </div>","0","main_experiment_trial","4","saving_a_cat_causal","causal_sequence","","","","",""
"","","","","","html-keyboard-response","67","247987","0.0-67.0","6856D29CC0AD487CA557F138AC7F9B4A","019cf0b2-e040-7ffe-8f9d-46db1ec8283a","019cf037-5203-781a-b900-108ccb1cab86","","null","
                <div class=""stimulus-container"">
                    <img src=""images/causal_sequence/saving_a_cat_causal/saving_a_cat_causal_5.png"" class=""exp-image"">
                    <div class=""question-area""></div> 
                </div>","null","","","","","","","","",""
"","","","","","html-button-response","68","249076","0.0-68.0","6856D29CC0AD487CA557F138AC7F9B4A","019cf0b2-e040-7ffe-8f9d-46db1ec8283a","019cf037-5203-781a-b900-108ccb1cab86","","1089","
                <div class=""stimulus-container"">
                    <img src=""images/causal_sequence/saving_a_cat_causal/saving_a_cat_causal_5.png"" class=""exp-image"">
                    <div class=""question-area"">
                        <p style=""font-size: 20px; font-weight: bold; margin: 0;"">Is there a person in this image?</p>
                    </div>
                </div>","0","main_experiment_trial","5","saving_a_cat_causal","causal_sequence","","","","",""
"","","","","","html-keyboard-response","69","254089","0.0-69.0","6856D29CC0AD487CA557F138AC7F9B4A","019cf0b2-e040-7ffe-8f9d-46db1ec8283a","019cf037-5203-781a-b900-108ccb1cab86","","null","
                <div class=""stimulus-container"">
                    <img src=""images/causal_sequence/saving_a_cat_causal/saving_a_cat_causal_6.png"" class=""exp-image"">
                    <div class=""question-area""></div> 
                </div>","null","","","","","","","","",""
"","","","","","html-button-response","70","256222","0.0-70.0","6856D29CC0AD487CA557F138AC7F9B4A","019cf0b2-e040-7ffe-8f9d-46db1ec8283a","019cf037-5203-781a-b900-108ccb1cab86","","2132","
                <div class=""stimulus-container"">
                    <img src=""images/causal_sequence/saving_a_cat_causal/saving_a_cat_causal_6.png"" class=""exp-image"">
                    <div class=""question-area"">
                        <p style=""font-size: 20px; font-weight: bold; margin: 0;"">Is there a person in this image?</p>
                    </div>
                </div>","0","main_experiment_trial","6","saving_a_cat_causal","causal_sequence","","","","",""
"","","","","","html-keyboard-response","71","261237","0.0-71.0","6856D29CC0AD487CA557F138AC7F9B4A","019cf0b2-e040-7ffe-8f9d-46db1ec8283a","019cf037-5203-781a-b900-108ccb1cab86","","null","
                <div class=""stimulus-container"">
                    <img src=""images/causal_sequence/saving_a_cat_causal/saving_a_cat_causal_7.png"" class=""exp-image"">
                    <div class=""question-area""></div> 
                </div>","null","","","","","","","","",""
"","","","","","html-button-response","72","262041","0.0-72.0","6856D29CC0AD487CA557F138AC7F9B4A","019cf0b2-e040-7ffe-8f9d-46db1ec8283a","019cf037-5203-781a-b900-108ccb1cab86","","803","
                <div class=""stimulus-container"">
                    <img src=""images/causal_sequence/saving_a_cat_causal/saving_a_cat_causal_7.png"" class=""exp-image"">
                    <div class=""question-area"">
                        <p style=""font-size: 20px; font-weight: bold; margin: 0;"">Is there a person in this image?</p>
                    </div>
                </div>","0","main_experiment_trial","7","saving_a_cat_causal","causal_sequence","","","","",""
"","","","","","html-keyboard-response","73","267050","0.0-73.0","6856D29CC0AD487CA557F138AC7F9B4A","019cf0b2-e040-7ffe-8f9d-46db1ec8283a","019cf037-5203-781a-b900-108ccb1cab86","","null","
                <div class=""stimulus-container"">
                    <img src=""images/causal_sequence/saving_a_cat_causal/saving_a_cat_causal_8.png"" class=""exp-image"">
                    <div class=""question-area""></div> 
                </div>","null","","","","","","","","",""
"","","","","","html-button-response","74","267843","0.0-74.0","6856D29CC0AD487CA557F138AC7F9B4A","019cf0b2-e040-7ffe-8f9d-46db1ec8283a","019cf037-5203-781a-b900-108ccb1cab86","","791","
                <div class=""stimulus-container"">
                    <img src=""images/causal_sequence/saving_a_cat_causal/saving_a_cat_causal_8.png"" class=""exp-image"">
                    <div class=""question-area"">
                        <p style=""font-size: 20px; font-weight: bold; margin: 0;"">Is there a person in this image?</p>
                    </div>
                </div>","0","main_experiment_trial","8","saving_a_cat_causal","causal_sequence","","","","",""
"","","","","","html-keyboard-response","75","272850","0.0-75.0","6856D29CC0AD487CA557F138AC7F9B4A","019cf0b2-e040-7ffe-8f9d-46db1ec8283a","019cf037-5203-781a-b900-108ccb1cab86","","null","
                <div class=""stimulus-container"">
                    <img src=""images/causal_sequence/saving_a_cat_causal/saving_a_cat_causal_9.png"" class=""exp-image"">
                    <div class=""question-area""></div> 
                </div>","null","","","","","","","","",""
"","","","","","html-button-response","76","275620","0.0-76.0","6856D29CC0AD487CA557F138AC7F9B4A","019cf0b2-e040-7ffe-8f9d-46db1ec8283a","019cf037-5203-781a-b900-108ccb1cab86","","2769","
                <div class=""stimulus-container"">
                    <img src=""images/causal_sequence/saving_a_cat_causal/saving_a_cat_causal_9.png"" class=""exp-image"">
                    <div class=""question-area"">
                        <p style=""font-size: 20px; font-weight: bold; margin: 0;"">Is there a person in this image?</p>
                    </div>
                </div>","0","main_experiment_trial","9","saving_a_cat_causal","causal_sequence","","","","",""
"","","","","","html-keyboard-response","77","280627","0.0-77.0","6856D29CC0AD487CA557F138AC7F9B4A","019cf0b2-e040-7ffe-8f9d-46db1ec8283a","019cf037-5203-781a-b900-108ccb1cab86","","null","
                <div class=""stimulus-container"">
                    <img src=""images/causal_sequence/saving_a_cat_causal/saving_a_cat_causal_ten.png"" class=""exp-image"">
                    <div class=""question-area""></div> 
                </div>","null","","","","","","","","",""
"","","","","","html-button-response","78","281494","0.0-78.0","6856D29CC0AD487CA557F138AC7F9B4A","019cf0b2-e040-7ffe-8f9d-46db1ec8283a","019cf037-5203-781a-b900-108ccb1cab86","","866","
                <div class=""stimulus-container"">
                    <img src=""images/causal_sequence/saving_a_cat_causal/saving_a_cat_causal_ten.png"" class=""exp-image"">
                    <div class=""question-area"">
                        <p style=""font-size: 20px; font-weight: bold; margin: 0;"">Is there a person in this image?</p>
                    </div>
                </div>","0","main_experiment_trial","ten","saving_a_cat_causal","causal_sequence","","","","",""
"","","","","","html-keyboard-response","79","282502","0.0-79.0","6856D29CC0AD487CA557F138AC7F9B4A","019cf0b2-e040-7ffe-8f9d-46db1ec8283a","019cf037-5203-781a-b900-108ccb1cab86","","null","<div style=""background-color: white; width: 100vw; height: 100vh;""></div>","null","","","","","","","","",""
"","","","","","html-keyboard-response","80","287508","0.0-80.0","6856D29CC0AD487CA557F138AC7F9B4A","019cf0b2-e040-7ffe-8f9d-46db1ec8283a","019cf037-5203-781a-b900-108ccb1cab86","","null","
                <div class=""stimulus-container"">
                    <img src=""images/causal_sequence/coin_causal/coin_causal_1.png"" class=""exp-image"">
                    <div class=""question-area""></div> 
                </div>","null","","","","","","","","",""
"","","","","","html-button-response","81","288669","0.0-81.0","6856D29CC0AD487CA557F138AC7F9B4A","019cf0b2-e040-7ffe-8f9d-46db1ec8283a","019cf037-5203-781a-b900-108ccb1cab86","","1160","
                <div class=""stimulus-container"">
                    <img src=""images/causal_sequence/coin_causal/coin_causal_1.png"" class=""exp-image"">
                    <div class=""question-area"">
                        <p style=""font-size: 20px; font-weight: bold; margin: 0;"">Is there a person in this image?</p>
                    </div>
                </div>","0","main_experiment_trial","1","coin_causal","causal_sequence","","","","",""
"","","","","","html-keyboard-response","82","293675","0.0-82.0","6856D29CC0AD487CA557F138AC7F9B4A","019cf0b2-e040-7ffe-8f9d-46db1ec8283a","019cf037-5203-781a-b900-108ccb1cab86","","null","
                <div class=""stimulus-container"">
                    <img src=""images/causal_sequence/coin_causal/coin_causal_2.png"" class=""exp-image"">
                    <div class=""question-area""></div> 
                </div>","null","","","","","","","","",""
"","","","","","html-button-response","83","294751","0.0-83.0","6856D29CC0AD487CA557F138AC7F9B4A","019cf0b2-e040-7ffe-8f9d-46db1ec8283a","019cf037-5203-781a-b900-108ccb1cab86","","1075","
                <div class=""stimulus-container"">
                    <img src=""images/causal_sequence/coin_causal/coin_causal_2.png"" class=""exp-image"">
                    <div class=""question-area"">
                        <p style=""font-size: 20px; font-weight: bold; margin: 0;"">Is there a person in this image?</p>
                    </div>
                </div>","0","main_experiment_trial","2","coin_causal","causal_sequence","","","","",""
"","","","","","html-keyboard-response","84","299767","0.0-84.0","6856D29CC0AD487CA557F138AC7F9B4A","019cf0b2-e040-7ffe-8f9d-46db1ec8283a","019cf037-5203-781a-b900-108ccb1cab86","","null","
                <div class=""stimulus-container"">
                    <img src=""images/causal_sequence/coin_causal/coin_causal_3.png"" class=""exp-image"">
                    <div class=""question-area""></div> 
                </div>","null","","","","","","","","",""
"","","","","","html-button-response","85","301128","0.0-85.0","6856D29CC0AD487CA557F138AC7F9B4A","019cf0b2-e040-7ffe-8f9d-46db1ec8283a","019cf037-5203-781a-b900-108ccb1cab86","","1361","
                <div class=""stimulus-container"">
                    <img src=""images/causal_sequence/coin_causal/coin_causal_3.png"" class=""exp-image"">
                    <div class=""question-area"">
                        <p style=""font-size: 20px; font-weight: bold; margin: 0;"">Is there a person in this image?</p>
                    </div>
                </div>","0","main_experiment_trial","3","coin_causal","causal_sequence","","","","",""
"","","","","","html-keyboard-response","86","306138","0.0-86.0","6856D29CC0AD487CA557F138AC7F9B4A","019cf0b2-e040-7ffe-8f9d-46db1ec8283a","019cf037-5203-781a-b900-108ccb1cab86","","null","
                <div class=""stimulus-container"">
                    <img src=""images/causal_sequence/coin_causal/coin_causal_4.png"" class=""exp-image"">
                    <div class=""question-area""></div> 
                </div>","null","","","","","","","","",""
"","","","","","html-button-response","87","306932","0.0-87.0","6856D29CC0AD487CA557F138AC7F9B4A","019cf0b2-e040-7ffe-8f9d-46db1ec8283a","019cf037-5203-781a-b900-108ccb1cab86","","792","
                <div class=""stimulus-container"">
                    <img src=""images/causal_sequence/coin_causal/coin_causal_4.png"" class=""exp-image"">
                    <div class=""question-area"">
                        <p style=""font-size: 20px; font-weight: bold; margin: 0;"">Is there a person in this image?</p>
                    </div>
                </div>","0","main_experiment_trial","4","coin_causal","causal_sequence","","","","",""
"","","","","","html-keyboard-response","88","311936","0.0-88.0","6856D29CC0AD487CA557F138AC7F9B4A","019cf0b2-e040-7ffe-8f9d-46db1ec8283a","019cf037-5203-781a-b900-108ccb1cab86","","null","
                <div class=""stimulus-container"">
                    <img src=""images/causal_sequence/coin_causal/coin_causal_5.png"" class=""exp-image"">
                    <div class=""question-area""></div> 
                </div>","null","","","","","","","","",""
"","","","","","html-button-response","89","313190","0.0-89.0","6856D29CC0AD487CA557F138AC7F9B4A","019cf0b2-e040-7ffe-8f9d-46db1ec8283a","019cf037-5203-781a-b900-108ccb1cab86","","1253","
                <div class=""stimulus-container"">
                    <img src=""images/causal_sequence/coin_causal/coin_causal_5.png"" class=""exp-image"">
                    <div class=""question-area"">
                        <p style=""font-size: 20px; font-weight: bold; margin: 0;"">Is there a person in this image?</p>
                    </div>
                </div>","0","main_experiment_trial","5","coin_causal","causal_sequence","","","","",""
"","","","","","html-keyboard-response","90","318201","0.0-90.0","6856D29CC0AD487CA557F138AC7F9B4A","019cf0b2-e040-7ffe-8f9d-46db1ec8283a","019cf037-5203-781a-b900-108ccb1cab86","","null","
                <div class=""stimulus-container"">
                    <img src=""images/causal_sequence/coin_causal/coin_causal_6.png"" class=""exp-image"">
                    <div class=""question-area""></div> 
                </div>","null","","","","","","","","",""
"","","","","","html-button-response","91","319053","0.0-91.0","6856D29CC0AD487CA557F138AC7F9B4A","019cf0b2-e040-7ffe-8f9d-46db1ec8283a","019cf037-5203-781a-b900-108ccb1cab86","","851","
                <div class=""stimulus-container"">
                    <img src=""images/causal_sequence/coin_causal/coin_causal_6.png"" class=""exp-image"">
                    <div class=""question-area"">
                        <p style=""font-size: 20px; font-weight: bold; margin: 0;"">Is there a person in this image?</p>
                    </div>
                </div>","0","main_experiment_trial","6","coin_causal","causal_sequence","","","","",""
"","","","","","html-keyboard-response","92","324057","0.0-92.0","6856D29CC0AD487CA557F138AC7F9B4A","019cf0b2-e040-7ffe-8f9d-46db1ec8283a","019cf037-5203-781a-b900-108ccb1cab86","","null","
                <div class=""stimulus-container"">
                    <img src=""images/causal_sequence/coin_causal/coin_causal_7.png"" class=""exp-image"">
                    <div class=""question-area""></div> 
                </div>","null","","","","","","","","",""
"","","","","","html-button-response","93","324910","0.0-93.0","6856D29CC0AD487CA557F138AC7F9B4A","019cf0b2-e040-7ffe-8f9d-46db1ec8283a","019cf037-5203-781a-b900-108ccb1cab86","","852","
                <div class=""stimulus-container"">
                    <img src=""images/causal_sequence/coin_causal/coin_causal_7.png"" class=""exp-image"">
                    <div class=""question-area"">
                        <p style=""font-size: 20px; font-weight: bold; margin: 0;"">Is there a person in this image?</p>
                    </div>
                </div>","1","main_experiment_trial","7","coin_causal","causal_sequence","","","","",""
"","","","","","html-keyboard-response","94","329922","0.0-94.0","6856D29CC0AD487CA557F138AC7F9B4A","019cf0b2-e040-7ffe-8f9d-46db1ec8283a","019cf037-5203-781a-b900-108ccb1cab86","","null","
                <div class=""stimulus-container"">
                    <img src=""images/causal_sequence/coin_causal/coin_causal_8.png"" class=""exp-image"">
                    <div class=""question-area""></div> 
                </div>","null","","","","","","","","",""
"","","","","","html-button-response","95","331970","0.0-95.0","6856D29CC0AD487CA557F138AC7F9B4A","019cf0b2-e040-7ffe-8f9d-46db1ec8283a","019cf037-5203-781a-b900-108ccb1cab86","","2046","
                <div class=""stimulus-container"">
                    <img src=""images/causal_sequence/coin_causal/coin_causal_8.png"" class=""exp-image"">
                    <div class=""question-area"">
                        <p style=""font-size: 20px; font-weight: bold; margin: 0;"">Is there a person in this image?</p>
                    </div>
                </div>","0","main_experiment_trial","8","coin_causal","causal_sequence","","","","",""
"","","","","","html-keyboard-response","96","336982","0.0-96.0","6856D29CC0AD487CA557F138AC7F9B4A","019cf0b2-e040-7ffe-8f9d-46db1ec8283a","019cf037-5203-781a-b900-108ccb1cab86","","null","
                <div class=""stimulus-container"">
                    <img src=""images/causal_sequence/coin_causal/coin_causal_9.png"" class=""exp-image"">
                    <div class=""question-area""></div> 
                </div>","null","","","","","","","","",""
"","","","","","html-button-response","97","338585","0.0-97.0","6856D29CC0AD487CA557F138AC7F9B4A","019cf0b2-e040-7ffe-8f9d-46db1ec8283a","019cf037-5203-781a-b900-108ccb1cab86","","1602","
                <div class=""stimulus-container"">
                    <img src=""images/causal_sequence/coin_causal/coin_causal_9.png"" class=""exp-image"">
                    <div class=""question-area"">
                        <p style=""font-size: 20px; font-weight: bold; margin: 0;"">Is there a person in this image?</p>
                    </div>
                </div>","0","main_experiment_trial","9","coin_causal","causal_sequence","","","","",""
"","","","","","html-keyboard-response","98","343597","0.0-98.0","6856D29CC0AD487CA557F138AC7F9B4A","019cf0b2-e040-7ffe-8f9d-46db1ec8283a","019cf037-5203-781a-b900-108ccb1cab86","","null","
                <div class=""stimulus-container"">
                    <img src=""images/causal_sequence/coin_causal/coin_causal_ten.png"" class=""exp-image"">
                    <div class=""question-area""></div> 
                </div>","null","","","","","","","","",""
"","","","","","html-button-response","99","345051","0.0-99.0","6856D29CC0AD487CA557F138AC7F9B4A","019cf0b2-e040-7ffe-8f9d-46db1ec8283a","019cf037-5203-781a-b900-108ccb1cab86","","1453","
                <div class=""stimulus-container"">
                    <img src=""images/causal_sequence/coin_causal/coin_causal_ten.png"" class=""exp-image"">
                    <div class=""question-area"">
                        <p style=""font-size: 20px; font-weight: bold; margin: 0;"">Is there a person in this image?</p>
                    </div>
                </div>","0","main_experiment_trial","ten","coin_causal","causal_sequence","","","","",""
"","","","","","html-keyboard-response","100","346054","0.0-100.0","6856D29CC0AD487CA557F138AC7F9B4A","019cf0b2-e040-7ffe-8f9d-46db1ec8283a","019cf037-5203-781a-b900-108ccb1cab86","","null","<div style=""background-color: white; width: 100vw; height: 100vh;""></div>","null","","","","","","","","",""
"","","","","","html-keyboard-response","101","351063","0.0-101.0","6856D29CC0AD487CA557F138AC7F9B4A","019cf0b2-e040-7ffe-8f9d-46db1ec8283a","019cf037-5203-781a-b900-108ccb1cab86","","null","
                <div class=""stimulus-container"">
                    <img src=""images/causal_sequence/museum_causal/museum_causal_1.png"" class=""exp-image"">
                    <div class=""question-area""></div> 
                </div>","null","","","","","","","","",""
"","","","","","html-button-response","102","353328","0.0-102.0","6856D29CC0AD487CA557F138AC7F9B4A","019cf0b2-e040-7ffe-8f9d-46db1ec8283a","019cf037-5203-781a-b900-108ccb1cab86","","2264","
                <div class=""stimulus-container"">
                    <img src=""images/causal_sequence/museum_causal/museum_causal_1.png"" class=""exp-image"">
                    <div class=""question-area"">
                        <p style=""font-size: 20px; font-weight: bold; margin: 0;"">Is there a person in this image?</p>
                    </div>
                </div>","0","main_experiment_trial","1","museum_causal","causal_sequence","","","","",""
"","","","","","html-keyboard-response","103","358330","0.0-103.0","6856D29CC0AD487CA557F138AC7F9B4A","019cf0b2-e040-7ffe-8f9d-46db1ec8283a","019cf037-5203-781a-b900-108ccb1cab86","","null","
                <div class=""stimulus-container"">
                    <img src=""images/causal_sequence/museum_causal/museum_causal_2.png"" class=""exp-image"">
                    <div class=""question-area""></div> 
                </div>","null","","","","","","","","",""
"","","","","","html-button-response","104","359027","0.0-104.0","6856D29CC0AD487CA557F138AC7F9B4A","019cf0b2-e040-7ffe-8f9d-46db1ec8283a","019cf037-5203-781a-b900-108ccb1cab86","","697","
                <div class=""stimulus-container"">
                    <img src=""images/causal_sequence/museum_causal/museum_causal_2.png"" class=""exp-image"">
                    <div class=""question-area"">
                        <p style=""font-size: 20px; font-weight: bold; margin: 0;"">Is there a person in this image?</p>
                    </div>
                </div>","1","main_experiment_trial","2","museum_causal","causal_sequence","","","","",""
"","","","","","html-keyboard-response","105","364042","0.0-105.0","6856D29CC0AD487CA557F138AC7F9B4A","019cf0b2-e040-7ffe-8f9d-46db1ec8283a","019cf037-5203-781a-b900-108ccb1cab86","","null","
                <div class=""stimulus-container"">
                    <img src=""images/causal_sequence/museum_causal/museum_causal_3.png"" class=""exp-image"">
                    <div class=""question-area""></div> 
                </div>","null","","","","","","","","",""
"","","","","","html-button-response","106","364787","0.0-106.0","6856D29CC0AD487CA557F138AC7F9B4A","019cf0b2-e040-7ffe-8f9d-46db1ec8283a","019cf037-5203-781a-b900-108ccb1cab86","","744","
                <div class=""stimulus-container"">
                    <img src=""images/causal_sequence/museum_causal/museum_causal_3.png"" class=""exp-image"">
                    <div class=""question-area"">
                        <p style=""font-size: 20px; font-weight: bold; margin: 0;"">Is there a person in this image?</p>
                    </div>
                </div>","0","main_experiment_trial","3","museum_causal","causal_sequence","","","","",""
"","","","","","html-keyboard-response","107","369798","0.0-107.0","6856D29CC0AD487CA557F138AC7F9B4A","019cf0b2-e040-7ffe-8f9d-46db1ec8283a","019cf037-5203-781a-b900-108ccb1cab86","","null","
                <div class=""stimulus-container"">
                    <img src=""images/causal_sequence/museum_causal/museum_causal_4.png"" class=""exp-image"">
                    <div class=""question-area""></div> 
                </div>","null","","","","","","","","",""
"","","","","","html-button-response","108","370904","0.0-108.0","6856D29CC0AD487CA557F138AC7F9B4A","019cf0b2-e040-7ffe-8f9d-46db1ec8283a","019cf037-5203-781a-b900-108ccb1cab86","","1105","
                <div class=""stimulus-container"">
                    <img src=""images/causal_sequence/museum_causal/museum_causal_4.png"" class=""exp-image"">
                    <div class=""question-area"">
                        <p style=""font-size: 20px; font-weight: bold; margin: 0;"">Is there a person in this image?</p>
                    </div>
                </div>","1","main_experiment_trial","4","museum_causal","causal_sequence","","","","",""
"","","","","","html-keyboard-response","109","375915","0.0-109.0","6856D29CC0AD487CA557F138AC7F9B4A","019cf0b2-e040-7ffe-8f9d-46db1ec8283a","019cf037-5203-781a-b900-108ccb1cab86","","null","
                <div class=""stimulus-container"">
                    <img src=""images/causal_sequence/museum_causal/museum_causal_5.png"" class=""exp-image"">
                    <div class=""question-area""></div> 
                </div>","null","","","","","","","","",""
"","","","","","html-button-response","110","376963","0.0-110.0","6856D29CC0AD487CA557F138AC7F9B4A","019cf0b2-e040-7ffe-8f9d-46db1ec8283a","019cf037-5203-781a-b900-108ccb1cab86","","1047","
                <div class=""stimulus-container"">
                    <img src=""images/causal_sequence/museum_causal/museum_causal_5.png"" class=""exp-image"">
                    <div class=""question-area"">
                        <p style=""font-size: 20px; font-weight: bold; margin: 0;"">Is there a person in this image?</p>
                    </div>
                </div>","0","main_experiment_trial","5","museum_causal","causal_sequence","","","","",""
"","","","","","html-keyboard-response","111","381964","0.0-111.0","6856D29CC0AD487CA557F138AC7F9B4A","019cf0b2-e040-7ffe-8f9d-46db1ec8283a","019cf037-5203-781a-b900-108ccb1cab86","","null","
                <div class=""stimulus-container"">
                    <img src=""images/causal_sequence/museum_causal/museum_causal_6.png"" class=""exp-image"">
                    <div class=""question-area""></div> 
                </div>","null","","","","","","","","",""
"","","","","","html-button-response","112","382845","0.0-112.0","6856D29CC0AD487CA557F138AC7F9B4A","019cf0b2-e040-7ffe-8f9d-46db1ec8283a","019cf037-5203-781a-b900-108ccb1cab86","","880","
                <div class=""stimulus-container"">
                    <img src=""images/causal_sequence/museum_causal/museum_causal_6.png"" class=""exp-image"">
                    <div class=""question-area"">
                        <p style=""font-size: 20px; font-weight: bold; margin: 0;"">Is there a person in this image?</p>
                    </div>
                </div>","0","main_experiment_trial","6","museum_causal","causal_sequence","","","","",""
"","","","","","html-keyboard-response","113","387854","0.0-113.0","6856D29CC0AD487CA557F138AC7F9B4A","019cf0b2-e040-7ffe-8f9d-46db1ec8283a","019cf037-5203-781a-b900-108ccb1cab86","","null","
                <div class=""stimulus-container"">
                    <img src=""images/causal_sequence/museum_causal/museum_causal_7.png"" class=""exp-image"">
                    <div class=""question-area""></div> 
                </div>","null","","","","","","","","",""
"","","","","","html-button-response","114","388712","0.0-114.0","6856D29CC0AD487CA557F138AC7F9B4A","019cf0b2-e040-7ffe-8f9d-46db1ec8283a","019cf037-5203-781a-b900-108ccb1cab86","","858","
                <div class=""stimulus-container"">
                    <img src=""images/causal_sequence/museum_causal/museum_causal_7.png"" class=""exp-image"">
                    <div class=""question-area"">
                        <p style=""font-size: 20px; font-weight: bold; margin: 0;"">Is there a person in this image?</p>
                    </div>
                </div>","1","main_experiment_trial","7","museum_causal","causal_sequence","","","","",""
"","","","","","html-keyboard-response","115","393730","0.0-115.0","6856D29CC0AD487CA557F138AC7F9B4A","019cf0b2-e040-7ffe-8f9d-46db1ec8283a","019cf037-5203-781a-b900-108ccb1cab86","","null","
                <div class=""stimulus-container"">
                    <img src=""images/causal_sequence/museum_causal/museum_causal_8.png"" class=""exp-image"">
                    <div class=""question-area""></div> 
                </div>","null","","","","","","","","",""
"","","","","","html-button-response","116","394754","0.0-116.0","6856D29CC0AD487CA557F138AC7F9B4A","019cf0b2-e040-7ffe-8f9d-46db1ec8283a","019cf037-5203-781a-b900-108ccb1cab86","","1023","
                <div class=""stimulus-container"">
                    <img src=""images/causal_sequence/museum_causal/museum_causal_8.png"" class=""exp-image"">
                    <div class=""question-area"">
                        <p style=""font-size: 20px; font-weight: bold; margin: 0;"">Is there a person in this image?</p>
                    </div>
                </div>","0","main_experiment_trial","8","museum_causal","causal_sequence","","","","",""
"","","","","","html-keyboard-response","117","399757","0.0-117.0","6856D29CC0AD487CA557F138AC7F9B4A","019cf0b2-e040-7ffe-8f9d-46db1ec8283a","019cf037-5203-781a-b900-108ccb1cab86","","null","
                <div class=""stimulus-container"">
                    <img src=""images/causal_sequence/museum_causal/museum_causal_9.png"" class=""exp-image"">
                    <div class=""question-area""></div> 
                </div>","null","","","","","","","","",""
"","","","","","html-button-response","118","400534","0.0-118.0","6856D29CC0AD487CA557F138AC7F9B4A","019cf0b2-e040-7ffe-8f9d-46db1ec8283a","019cf037-5203-781a-b900-108ccb1cab86","","777","
                <div class=""stimulus-container"">
                    <img src=""images/causal_sequence/museum_causal/museum_causal_9.png"" class=""exp-image"">
                    <div class=""question-area"">
                        <p style=""font-size: 20px; font-weight: bold; margin: 0;"">Is there a person in this image?</p>
                    </div>
                </div>","1","main_experiment_trial","9","museum_causal","causal_sequence","","","","",""
"","","","","","html-keyboard-response","119","405537","0.0-119.0","6856D29CC0AD487CA557F138AC7F9B4A","019cf0b2-e040-7ffe-8f9d-46db1ec8283a","019cf037-5203-781a-b900-108ccb1cab86","","null","
                <div class=""stimulus-container"">
                    <img src=""images/causal_sequence/museum_causal/museum_causal_ten.png"" class=""exp-image"">
                    <div class=""question-area""></div> 
                </div>","null","","","","","","","","",""
"","","","","","html-button-response","120","406418","0.0-120.0","6856D29CC0AD487CA557F138AC7F9B4A","019cf0b2-e040-7ffe-8f9d-46db1ec8283a","019cf037-5203-781a-b900-108ccb1cab86","","880","
                <div class=""stimulus-container"">
                    <img src=""images/causal_sequence/museum_causal/museum_causal_ten.png"" class=""exp-image"">
                    <div class=""question-area"">
                        <p style=""font-size: 20px; font-weight: bold; margin: 0;"">Is there a person in this image?</p>
                    </div>
                </div>","0","main_experiment_trial","ten","museum_causal","causal_sequence","","","","",""
"","","","","","html-keyboard-response","121","407423","0.0-121.0","6856D29CC0AD487CA557F138AC7F9B4A","019cf0b2-e040-7ffe-8f9d-46db1ec8283a","019cf037-5203-781a-b900-108ccb1cab86","","null","<div style=""background-color: white; width: 100vw; height: 100vh;""></div>","null","","","","","","","","",""
"","","","","","html-keyboard-response","122","412434","0.0-122.0","6856D29CC0AD487CA557F138AC7F9B4A","019cf0b2-e040-7ffe-8f9d-46db1ec8283a","019cf037-5203-781a-b900-108ccb1cab86","","null","
                <div class=""stimulus-container"">
                    <img src=""images/causal_sequence/package_causal/package_causal_1.png"" class=""exp-image"">
                    <div class=""question-area""></div> 
                </div>","null","","","","","","","","",""
"","","","","","html-button-response","123","413260","0.0-123.0","6856D29CC0AD487CA557F138AC7F9B4A","019cf0b2-e040-7ffe-8f9d-46db1ec8283a","019cf037-5203-781a-b900-108ccb1cab86","","826","
                <div class=""stimulus-container"">
                    <img src=""images/causal_sequence/package_causal/package_causal_1.png"" class=""exp-image"">
                    <div class=""question-area"">
                        <p style=""font-size: 20px; font-weight: bold; margin: 0;"">Is there a person in this image?</p>
                    </div>
                </div>","0","main_experiment_trial","1","package_causal","causal_sequence","","","","",""
"","","","","","html-keyboard-response","124","418276","0.0-124.0","6856D29CC0AD487CA557F138AC7F9B4A","019cf0b2-e040-7ffe-8f9d-46db1ec8283a","019cf037-5203-781a-b900-108ccb1cab86","","null","
                <div class=""stimulus-container"">
                    <img src=""images/causal_sequence/package_causal/package_causal_2.png"" class=""exp-image"">
                    <div class=""question-area""></div> 
                </div>","null","","","","","","","","",""
"","","","","","html-button-response","125","420708","0.0-125.0","6856D29CC0AD487CA557F138AC7F9B4A","019cf0b2-e040-7ffe-8f9d-46db1ec8283a","019cf037-5203-781a-b900-108ccb1cab86","","2430","
                <div class=""stimulus-container"">
                    <img src=""images/causal_sequence/package_causal/package_causal_2.png"" class=""exp-image"">
                    <div class=""question-area"">
                        <p style=""font-size: 20px; font-weight: bold; margin: 0;"">Is there a person in this image?</p>
                    </div>
                </div>","0","main_experiment_trial","2","package_causal","causal_sequence","","","","",""
"","","","","","html-keyboard-response","126","425714","0.0-126.0","6856D29CC0AD487CA557F138AC7F9B4A","019cf0b2-e040-7ffe-8f9d-46db1ec8283a","019cf037-5203-781a-b900-108ccb1cab86","","null","
                <div class=""stimulus-container"">
                    <img src=""images/causal_sequence/package_causal/package_causal_3.png"" class=""exp-image"">
                    <div class=""question-area""></div> 
                </div>","null","","","","","","","","",""
"","","","","","html-button-response","127","427750","0.0-127.0","6856D29CC0AD487CA557F138AC7F9B4A","019cf0b2-e040-7ffe-8f9d-46db1ec8283a","019cf037-5203-781a-b900-108ccb1cab86","","2036","
                <div class=""stimulus-container"">
                    <img src=""images/causal_sequence/package_causal/package_causal_3.png"" class=""exp-image"">
                    <div class=""question-area"">
                        <p style=""font-size: 20px; font-weight: bold; margin: 0;"">Is there a person in this image?</p>
                    </div>
                </div>","0","main_experiment_trial","3","package_causal","causal_sequence","","","","",""
"","","","","","html-keyboard-response","128","432765","0.0-128.0","6856D29CC0AD487CA557F138AC7F9B4A","019cf0b2-e040-7ffe-8f9d-46db1ec8283a","019cf037-5203-781a-b900-108ccb1cab86","","null","
                <div class=""stimulus-container"">
                    <img src=""images/causal_sequence/package_causal/package_causal_4.png"" class=""exp-image"">
                    <div class=""question-area""></div> 
                </div>","null","","","","","","","","",""
"","","","","","html-button-response","129","434426","0.0-129.0","6856D29CC0AD487CA557F138AC7F9B4A","019cf0b2-e040-7ffe-8f9d-46db1ec8283a","019cf037-5203-781a-b900-108ccb1cab86","","1661","
                <div class=""stimulus-container"">
                    <img src=""images/causal_sequence/package_causal/package_causal_4.png"" class=""exp-image"">
                    <div class=""question-area"">
                        <p style=""font-size: 20px; font-weight: bold; margin: 0;"">Is there a person in this image?</p>
                    </div>
                </div>","1","main_experiment_trial","4","package_causal","causal_sequence","","","","",""
"","","","","","html-keyboard-response","130","439433","0.0-130.0","6856D29CC0AD487CA557F138AC7F9B4A","019cf0b2-e040-7ffe-8f9d-46db1ec8283a","019cf037-5203-781a-b900-108ccb1cab86","","null","
                <div class=""stimulus-container"">
                    <img src=""images/causal_sequence/package_causal/package_causal_5.png"" class=""exp-image"">
                    <div class=""question-area""></div> 
                </div>","null","","","","","","","","",""
"","","","","","html-button-response","131","440799","0.0-131.0","6856D29CC0AD487CA557F138AC7F9B4A","019cf0b2-e040-7ffe-8f9d-46db1ec8283a","019cf037-5203-781a-b900-108ccb1cab86","","1366","
                <div class=""stimulus-container"">
                    <img src=""images/causal_sequence/package_causal/package_causal_5.png"" class=""exp-image"">
                    <div class=""question-area"">
                        <p style=""font-size: 20px; font-weight: bold; margin: 0;"">Is there a person in this image?</p>
                    </div>
                </div>","0","main_experiment_trial","5","package_causal","causal_sequence","","","","",""
"","","","","","html-keyboard-response","132","445815","0.0-132.0","6856D29CC0AD487CA557F138AC7F9B4A","019cf0b2-e040-7ffe-8f9d-46db1ec8283a","019cf037-5203-781a-b900-108ccb1cab86","","null","
                <div class=""stimulus-container"">
                    <img src=""images/causal_sequence/package_causal/package_causal_6.png"" class=""exp-image"">
                    <div class=""question-area""></div> 
                </div>","null","","","","","","","","",""
"","","","","","html-button-response","133","447376","0.0-133.0","6856D29CC0AD487CA557F138AC7F9B4A","019cf0b2-e040-7ffe-8f9d-46db1ec8283a","019cf037-5203-781a-b900-108ccb1cab86","","1561","
                <div class=""stimulus-container"">
                    <img src=""images/causal_sequence/package_causal/package_causal_6.png"" class=""exp-image"">
                    <div class=""question-area"">
                        <p style=""font-size: 20px; font-weight: bold; margin: 0;"">Is there a person in this image?</p>
                    </div>
                </div>","0","main_experiment_trial","6","package_causal","causal_sequence","","","","",""
"","","","","","html-keyboard-response","134","452381","0.0-134.0","6856D29CC0AD487CA557F138AC7F9B4A","019cf0b2-e040-7ffe-8f9d-46db1ec8283a","019cf037-5203-781a-b900-108ccb1cab86","","null","
                <div class=""stimulus-container"">
                    <img src=""images/causal_sequence/package_causal/package_causal_7.png"" class=""exp-image"">
                    <div class=""question-area""></div> 
                </div>","null","","","","","","","","",""
"","","","","","html-button-response","135","453282","0.0-135.0","6856D29CC0AD487CA557F138AC7F9B4A","019cf0b2-e040-7ffe-8f9d-46db1ec8283a","019cf037-5203-781a-b900-108ccb1cab86","","900","
                <div class=""stimulus-container"">
                    <img src=""images/causal_sequence/package_causal/package_causal_7.png"" class=""exp-image"">
                    <div class=""question-area"">
                        <p style=""font-size: 20px; font-weight: bold; margin: 0;"">Is there a person in this image?</p>
                    </div>
                </div>","0","main_experiment_trial","7","package_causal","causal_sequence","","","","",""
"","","","","","html-keyboard-response","136","458287","0.0-136.0","6856D29CC0AD487CA557F138AC7F9B4A","019cf0b2-e040-7ffe-8f9d-46db1ec8283a","019cf037-5203-781a-b900-108ccb1cab86","","null","
                <div class=""stimulus-container"">
                    <img src=""images/causal_sequence/package_causal/package_causal_8.png"" class=""exp-image"">
                    <div class=""question-area""></div> 
                </div>","null","","","","","","","","",""
"","","","","","html-button-response","137","459312","0.0-137.0","6856D29CC0AD487CA557F138AC7F9B4A","019cf0b2-e040-7ffe-8f9d-46db1ec8283a","019cf037-5203-781a-b900-108ccb1cab86","","1024","
                <div class=""stimulus-container"">
                    <img src=""images/causal_sequence/package_causal/package_causal_8.png"" class=""exp-image"">
                    <div class=""question-area"">
                        <p style=""font-size: 20px; font-weight: bold; margin: 0;"">Is there a person in this image?</p>
                    </div>
                </div>","0","main_experiment_trial","8","package_causal","causal_sequence","","","","",""
"","","","","","html-keyboard-response","138","464327","0.0-138.0","6856D29CC0AD487CA557F138AC7F9B4A","019cf0b2-e040-7ffe-8f9d-46db1ec8283a","019cf037-5203-781a-b900-108ccb1cab86","","null","
                <div class=""stimulus-container"">
                    <img src=""images/causal_sequence/package_causal/package_causal_9.png"" class=""exp-image"">
                    <div class=""question-area""></div> 
                </div>","null","","","","","","","","",""
"","","","","","html-button-response","139","465462","0.0-139.0","6856D29CC0AD487CA557F138AC7F9B4A","019cf0b2-e040-7ffe-8f9d-46db1ec8283a","019cf037-5203-781a-b900-108ccb1cab86","","1134","
                <div class=""stimulus-container"">
                    <img src=""images/causal_sequence/package_causal/package_causal_9.png"" class=""exp-image"">
                    <div class=""question-area"">
                        <p style=""font-size: 20px; font-weight: bold; margin: 0;"">Is there a person in this image?</p>
                    </div>
                </div>","0","main_experiment_trial","9","package_causal","causal_sequence","","","","",""
"","","","","","html-keyboard-response","140","470466","0.0-140.0","6856D29CC0AD487CA557F138AC7F9B4A","019cf0b2-e040-7ffe-8f9d-46db1ec8283a","019cf037-5203-781a-b900-108ccb1cab86","","null","
                <div class=""stimulus-container"">
                    <img src=""images/causal_sequence/package_causal/package_causal_ten.png"" class=""exp-image"">
                    <div class=""question-area""></div> 
                </div>","null","","","","","","","","",""
"","","","","","html-button-response","141","471260","0.0-141.0","6856D29CC0AD487CA557F138AC7F9B4A","019cf0b2-e040-7ffe-8f9d-46db1ec8283a","019cf037-5203-781a-b900-108ccb1cab86","","793","
                <div class=""stimulus-container"">
                    <img src=""images/causal_sequence/package_causal/package_causal_ten.png"" class=""exp-image"">
                    <div class=""question-area"">
                        <p style=""font-size: 20px; font-weight: bold; margin: 0;"">Is there a person in this image?</p>
                    </div>
                </div>","0","main_experiment_trial","ten","package_causal","causal_sequence","","","","",""
"","","","","","html-keyboard-response","142","472263","0.0-142.0","6856D29CC0AD487CA557F138AC7F9B4A","019cf0b2-e040-7ffe-8f9d-46db1ec8283a","019cf037-5203-781a-b900-108ccb1cab86","","null","<div style=""background-color: white; width: 100vw; height: 100vh;""></div>","null","","","","","","","","",""
"","","","","","html-keyboard-response","143","477275","0.0-143.0","6856D29CC0AD487CA557F138AC7F9B4A","019cf0b2-e040-7ffe-8f9d-46db1ec8283a","019cf037-5203-781a-b900-108ccb1cab86","","null","
                <div class=""stimulus-container"">
                    <img src=""images/causal_sequence/the_performance_causal/the_performance_causal_1.png"" class=""exp-image"">
                    <div class=""question-area""></div> 
                </div>","null","","","","","","","","",""
"","","","","","html-button-response","144","478214","0.0-144.0","6856D29CC0AD487CA557F138AC7F9B4A","019cf0b2-e040-7ffe-8f9d-46db1ec8283a","019cf037-5203-781a-b900-108ccb1cab86","","938","
                <div class=""stimulus-container"">
                    <img src=""images/causal_sequence/the_performance_causal/the_performance_causal_1.png"" class=""exp-image"">
                    <div class=""question-area"">
                        <p style=""font-size: 20px; font-weight: bold; margin: 0;"">Is there a person in this image?</p>
                    </div>
                </div>","0","main_experiment_trial","1","the_performance_causal","causal_sequence","","","","",""
"","","","","","html-keyboard-response","145","483219","0.0-145.0","6856D29CC0AD487CA557F138AC7F9B4A","019cf0b2-e040-7ffe-8f9d-46db1ec8283a","019cf037-5203-781a-b900-108ccb1cab86","","null","
                <div class=""stimulus-container"">
                    <img src=""images/causal_sequence/the_performance_causal/the_performance_causal_2.png"" class=""exp-image"">
                    <div class=""question-area""></div> 
                </div>","null","","","","","","","","",""
"","","","","","html-button-response","146","484405","0.0-146.0","6856D29CC0AD487CA557F138AC7F9B4A","019cf0b2-e040-7ffe-8f9d-46db1ec8283a","019cf037-5203-781a-b900-108ccb1cab86","","1184","
                <div class=""stimulus-container"">
                    <img src=""images/causal_sequence/the_performance_causal/the_performance_causal_2.png"" class=""exp-image"">
                    <div class=""question-area"">
                        <p style=""font-size: 20px; font-weight: bold; margin: 0;"">Is there a person in this image?</p>
                    </div>
                </div>","0","main_experiment_trial","2","the_performance_causal","causal_sequence","","","","",""
"","","","","","html-keyboard-response","147","489420","0.0-147.0","6856D29CC0AD487CA557F138AC7F9B4A","019cf0b2-e040-7ffe-8f9d-46db1ec8283a","019cf037-5203-781a-b900-108ccb1cab86","","null","
                <div class=""stimulus-container"">
                    <img src=""images/causal_sequence/the_performance_causal/the_performance_causal_3.png"" class=""exp-image"">
                    <div class=""question-area""></div> 
                </div>","null","","","","","","","","",""
"","","","","","html-button-response","148","491081","0.0-148.0","6856D29CC0AD487CA557F138AC7F9B4A","019cf0b2-e040-7ffe-8f9d-46db1ec8283a","019cf037-5203-781a-b900-108ccb1cab86","","1660","
                <div class=""stimulus-container"">
                    <img src=""images/causal_sequence/the_performance_causal/the_performance_causal_3.png"" class=""exp-image"">
                    <div class=""question-area"">
                        <p style=""font-size: 20px; font-weight: bold; margin: 0;"">Is there a person in this image?</p>
                    </div>
                </div>","0","main_experiment_trial","3","the_performance_causal","causal_sequence","","","","",""
"","","","","","html-keyboard-response","149","496097","0.0-149.0","6856D29CC0AD487CA557F138AC7F9B4A","019cf0b2-e040-7ffe-8f9d-46db1ec8283a","019cf037-5203-781a-b900-108ccb1cab86","","null","
                <div class=""stimulus-container"">
                    <img src=""images/causal_sequence/the_performance_causal/the_performance_causal_4.png"" class=""exp-image"">
                    <div class=""question-area""></div> 
                </div>","null","","","","","","","","",""
"","","","","","html-button-response","150","497943","0.0-150.0","6856D29CC0AD487CA557F138AC7F9B4A","019cf0b2-e040-7ffe-8f9d-46db1ec8283a","019cf037-5203-781a-b900-108ccb1cab86","","1845","
                <div class=""stimulus-container"">
                    <img src=""images/causal_sequence/the_performance_causal/the_performance_causal_4.png"" class=""exp-image"">
                    <div class=""question-area"">
                        <p style=""font-size: 20px; font-weight: bold; margin: 0;"">Is there a person in this image?</p>
                    </div>
                </div>","0","main_experiment_trial","4","the_performance_causal","causal_sequence","","","","",""
"","","","","","html-keyboard-response","151","502953","0.0-151.0","6856D29CC0AD487CA557F138AC7F9B4A","019cf0b2-e040-7ffe-8f9d-46db1ec8283a","019cf037-5203-781a-b900-108ccb1cab86","","null","
                <div class=""stimulus-container"">
                    <img src=""images/causal_sequence/the_performance_causal/the_performance_causal_5.png"" class=""exp-image"">
                    <div class=""question-area""></div> 
                </div>","null","","","","","","","","",""
"","","","","","html-button-response","152","505217","0.0-152.0","6856D29CC0AD487CA557F138AC7F9B4A","019cf0b2-e040-7ffe-8f9d-46db1ec8283a","019cf037-5203-781a-b900-108ccb1cab86","","2264","
                <div class=""stimulus-container"">
                    <img src=""images/causal_sequence/the_performance_causal/the_performance_causal_5.png"" class=""exp-image"">
                    <div class=""question-area"">
                        <p style=""font-size: 20px; font-weight: bold; margin: 0;"">Is there a person in this image?</p>
                    </div>
                </div>","0","main_experiment_trial","5","the_performance_causal","causal_sequence","","","","",""
"","","","","","html-keyboard-response","153","510225","0.0-153.0","6856D29CC0AD487CA557F138AC7F9B4A","019cf0b2-e040-7ffe-8f9d-46db1ec8283a","019cf037-5203-781a-b900-108ccb1cab86","","null","
                <div class=""stimulus-container"">
                    <img src=""images/causal_sequence/the_performance_causal/the_performance_causal_6.png"" class=""exp-image"">
                    <div class=""question-area""></div> 
                </div>","null","","","","","","","","",""
"","","","","","html-button-response","154","513007","0.0-154.0","6856D29CC0AD487CA557F138AC7F9B4A","019cf0b2-e040-7ffe-8f9d-46db1ec8283a","019cf037-5203-781a-b900-108ccb1cab86","","2782","
                <div class=""stimulus-container"">
                    <img src=""images/causal_sequence/the_performance_causal/the_performance_causal_6.png"" class=""exp-image"">
                    <div class=""question-area"">
                        <p style=""font-size: 20px; font-weight: bold; margin: 0;"">Is there a person in this image?</p>
                    </div>
                </div>","0","main_experiment_trial","6","the_performance_causal","causal_sequence","","","","",""
"","","","","","html-keyboard-response","155","518019","0.0-155.0","6856D29CC0AD487CA557F138AC7F9B4A","019cf0b2-e040-7ffe-8f9d-46db1ec8283a","019cf037-5203-781a-b900-108ccb1cab86","","null","
                <div class=""stimulus-container"">
                    <img src=""images/causal_sequence/the_performance_causal/the_performance_causal_7.png"" class=""exp-image"">
                    <div class=""question-area""></div> 
                </div>","null","","","","","","","","",""
"","","","","","html-button-response","156","519245","0.0-156.0","6856D29CC0AD487CA557F138AC7F9B4A","019cf0b2-e040-7ffe-8f9d-46db1ec8283a","019cf037-5203-781a-b900-108ccb1cab86","","1225","
                <div class=""stimulus-container"">
                    <img src=""images/causal_sequence/the_performance_causal/the_performance_causal_7.png"" class=""exp-image"">
                    <div class=""question-area"">
                        <p style=""font-size: 20px; font-weight: bold; margin: 0;"">Is there a person in this image?</p>
                    </div>
                </div>","0","main_experiment_trial","7","the_performance_causal","causal_sequence","","","","",""
"","","","","","html-keyboard-response","157","524258","0.0-157.0","6856D29CC0AD487CA557F138AC7F9B4A","019cf0b2-e040-7ffe-8f9d-46db1ec8283a","019cf037-5203-781a-b900-108ccb1cab86","","null","
                <div class=""stimulus-container"">
                    <img src=""images/causal_sequence/the_performance_causal/the_performance_causal_8.png"" class=""exp-image"">
                    <div class=""question-area""></div> 
                </div>","null","","","","","","","","",""
"","","","","","html-button-response","158","526404","0.0-158.0","6856D29CC0AD487CA557F138AC7F9B4A","019cf0b2-e040-7ffe-8f9d-46db1ec8283a","019cf037-5203-781a-b900-108ccb1cab86","","2144","
                <div class=""stimulus-container"">
                    <img src=""images/causal_sequence/the_performance_causal/the_performance_causal_8.png"" class=""exp-image"">
                    <div class=""question-area"">
                        <p style=""font-size: 20px; font-weight: bold; margin: 0;"">Is there a person in this image?</p>
                    </div>
                </div>","0","main_experiment_trial","8","the_performance_causal","causal_sequence","","","","",""
"","","","","","html-keyboard-response","159","531413","0.0-159.0","6856D29CC0AD487CA557F138AC7F9B4A","019cf0b2-e040-7ffe-8f9d-46db1ec8283a","019cf037-5203-781a-b900-108ccb1cab86","","null","
                <div class=""stimulus-container"">
                    <img src=""images/causal_sequence/the_performance_causal/the_performance_causal_9.png"" class=""exp-image"">
                    <div class=""question-area""></div> 
                </div>","null","","","","","","","","",""
"","","","","","html-button-response","160","533291","0.0-160.0","6856D29CC0AD487CA557F138AC7F9B4A","019cf0b2-e040-7ffe-8f9d-46db1ec8283a","019cf037-5203-781a-b900-108ccb1cab86","","1877","
                <div class=""stimulus-container"">
                    <img src=""images/causal_sequence/the_performance_causal/the_performance_causal_9.png"" class=""exp-image"">
                    <div class=""question-area"">
                        <p style=""font-size: 20px; font-weight: bold; margin: 0;"">Is there a person in this image?</p>
                    </div>
                </div>","0","main_experiment_trial","9","the_performance_causal","causal_sequence","","","","",""
"","","","","","html-keyboard-response","161","538292","0.0-161.0","6856D29CC0AD487CA557F138AC7F9B4A","019cf0b2-e040-7ffe-8f9d-46db1ec8283a","019cf037-5203-781a-b900-108ccb1cab86","","null","
                <div class=""stimulus-container"">
                    <img src=""images/causal_sequence/the_performance_causal/the_performance_causal_ten.png"" class=""exp-image"">
                    <div class=""question-area""></div> 
                </div>","null","","","","","","","","",""
"","","","","","html-button-response","162","539362","0.0-162.0","6856D29CC0AD487CA557F138AC7F9B4A","019cf0b2-e040-7ffe-8f9d-46db1ec8283a","019cf037-5203-781a-b900-108ccb1cab86","","1069","
                <div class=""stimulus-container"">
                    <img src=""images/causal_sequence/the_performance_causal/the_performance_causal_ten.png"" class=""exp-image"">
                    <div class=""question-area"">
                        <p style=""font-size: 20px; font-weight: bold; margin: 0;"">Is there a person in this image?</p>
                    </div>
                </div>","0","main_experiment_trial","ten","the_performance_causal","causal_sequence","","","","",""
"","","","","","html-keyboard-response","163","540372","0.0-163.0","6856D29CC0AD487CA557F138AC7F9B4A","019cf0b2-e040-7ffe-8f9d-46db1ec8283a","019cf037-5203-781a-b900-108ccb1cab86","","null","<div style=""background-color: white; width: 100vw; height: 100vh;""></div>","null","","","","","","","","",""
"","","","","","html-keyboard-response","164","545386","0.0-164.0","6856D29CC0AD487CA557F138AC7F9B4A","019cf0b2-e040-7ffe-8f9d-46db1ec8283a","019cf037-5203-781a-b900-108ccb1cab86","","null","
                <div class=""stimulus-container"">
                    <img src=""images/schematic_sequence/dinner_party_scheme/dinner_party_scheme_1.png"" class=""exp-image"">
                    <div class=""question-area""></div> 
                </div>","null","","","","","","","","",""
"","","","","","html-button-response","165","546366","0.0-165.0","6856D29CC0AD487CA557F138AC7F9B4A","019cf0b2-e040-7ffe-8f9d-46db1ec8283a","019cf037-5203-781a-b900-108ccb1cab86","","980","
                <div class=""stimulus-container"">
                    <img src=""images/schematic_sequence/dinner_party_scheme/dinner_party_scheme_1.png"" class=""exp-image"">
                    <div class=""question-area"">
                        <p style=""font-size: 20px; font-weight: bold; margin: 0;"">Is there a person in this image?</p>
                    </div>
                </div>","0","main_experiment_trial","1","dinner_party_scheme","schematic_sequence","","","","",""
"","","","","","html-keyboard-response","166","551370","0.0-166.0","6856D29CC0AD487CA557F138AC7F9B4A","019cf0b2-e040-7ffe-8f9d-46db1ec8283a","019cf037-5203-781a-b900-108ccb1cab86","","null","
                <div class=""stimulus-container"">
                    <img src=""images/schematic_sequence/dinner_party_scheme/dinner_party_scheme_2.png"" class=""exp-image"">
                    <div class=""question-area""></div> 
                </div>","null","","","","","","","","",""
"","","","","","html-button-response","167","552381","0.0-167.0","6856D29CC0AD487CA557F138AC7F9B4A","019cf0b2-e040-7ffe-8f9d-46db1ec8283a","019cf037-5203-781a-b900-108ccb1cab86","","1009","
                <div class=""stimulus-container"">
                    <img src=""images/schematic_sequence/dinner_party_scheme/dinner_party_scheme_2.png"" class=""exp-image"">
                    <div class=""question-area"">
                        <p style=""font-size: 20px; font-weight: bold; margin: 0;"">Is there a person in this image?</p>
                    </div>
                </div>","0","main_experiment_trial","2","dinner_party_scheme","schematic_sequence","","","","",""
"","","","","","html-keyboard-response","168","557392","0.0-168.0","6856D29CC0AD487CA557F138AC7F9B4A","019cf0b2-e040-7ffe-8f9d-46db1ec8283a","019cf037-5203-781a-b900-108ccb1cab86","","null","
                <div class=""stimulus-container"">
                    <img src=""images/schematic_sequence/dinner_party_scheme/dinner_party_scheme_3.png"" class=""exp-image"">
                    <div class=""question-area""></div> 
                </div>","null","","","","","","","","",""
"","","","","","html-button-response","169","558530","0.0-169.0","6856D29CC0AD487CA557F138AC7F9B4A","019cf0b2-e040-7ffe-8f9d-46db1ec8283a","019cf037-5203-781a-b900-108ccb1cab86","","1137","
                <div class=""stimulus-container"">
                    <img src=""images/schematic_sequence/dinner_party_scheme/dinner_party_scheme_3.png"" class=""exp-image"">
                    <div class=""question-area"">
                        <p style=""font-size: 20px; font-weight: bold; margin: 0;"">Is there a person in this image?</p>
                    </div>
                </div>","0","main_experiment_trial","3","dinner_party_scheme","schematic_sequence","","","","",""
"","","","","","html-keyboard-response","170","563533","0.0-170.0","6856D29CC0AD487CA557F138AC7F9B4A","019cf0b2-e040-7ffe-8f9d-46db1ec8283a","019cf037-5203-781a-b900-108ccb1cab86","","null","
                <div class=""stimulus-container"">
                    <img src=""images/schematic_sequence/dinner_party_scheme/dinner_party_scheme_4.png"" class=""exp-image"">
                    <div class=""question-area""></div> 
                </div>","null","","","","","","","","",""
"","","","","","html-button-response","171","564455","0.0-171.0","6856D29CC0AD487CA557F138AC7F9B4A","019cf0b2-e040-7ffe-8f9d-46db1ec8283a","019cf037-5203-781a-b900-108ccb1cab86","","920","
                <div class=""stimulus-container"">
                    <img src=""images/schematic_sequence/dinner_party_scheme/dinner_party_scheme_4.png"" class=""exp-image"">
                    <div class=""question-area"">
                        <p style=""font-size: 20px; font-weight: bold; margin: 0;"">Is there a person in this image?</p>
                    </div>
                </div>","0","main_experiment_trial","4","dinner_party_scheme","schematic_sequence","","","","",""
"","","","","","html-keyboard-response","172","569457","0.0-172.0","6856D29CC0AD487CA557F138AC7F9B4A","019cf0b2-e040-7ffe-8f9d-46db1ec8283a","019cf037-5203-781a-b900-108ccb1cab86","","null","
                <div class=""stimulus-container"">
                    <img src=""images/schematic_sequence/dinner_party_scheme/dinner_party_scheme_5.png"" class=""exp-image"">
                    <div class=""question-area""></div> 
                </div>","null","","","","","","","","",""
"","","","","","html-button-response","173","570252","0.0-173.0","6856D29CC0AD487CA557F138AC7F9B4A","019cf0b2-e040-7ffe-8f9d-46db1ec8283a","019cf037-5203-781a-b900-108ccb1cab86","","794","
                <div class=""stimulus-container"">
                    <img src=""images/schematic_sequence/dinner_party_scheme/dinner_party_scheme_5.png"" class=""exp-image"">
                    <div class=""question-area"">
                        <p style=""font-size: 20px; font-weight: bold; margin: 0;"">Is there a person in this image?</p>
                    </div>
                </div>","0","main_experiment_trial","5","dinner_party_scheme","schematic_sequence","","","","",""
"","","","","","html-keyboard-response","174","575264","0.0-174.0","6856D29CC0AD487CA557F138AC7F9B4A","019cf0b2-e040-7ffe-8f9d-46db1ec8283a","019cf037-5203-781a-b900-108ccb1cab86","","null","
                <div class=""stimulus-container"">
                    <img src=""images/schematic_sequence/dinner_party_scheme/dinner_party_scheme_6.png"" class=""exp-image"">
                    <div class=""question-area""></div> 
                </div>","null","","","","","","","","",""
"","","","","","html-button-response","175","576301","0.0-175.0","6856D29CC0AD487CA557F138AC7F9B4A","019cf0b2-e040-7ffe-8f9d-46db1ec8283a","019cf037-5203-781a-b900-108ccb1cab86","","1036","
                <div class=""stimulus-container"">
                    <img src=""images/schematic_sequence/dinner_party_scheme/dinner_party_scheme_6.png"" class=""exp-image"">
                    <div class=""question-area"">
                        <p style=""font-size: 20px; font-weight: bold; margin: 0;"">Is there a person in this image?</p>
                    </div>
                </div>","0","main_experiment_trial","6","dinner_party_scheme","schematic_sequence","","","","",""
"","","","","","html-keyboard-response","176","581308","0.0-176.0","6856D29CC0AD487CA557F138AC7F9B4A","019cf0b2-e040-7ffe-8f9d-46db1ec8283a","019cf037-5203-781a-b900-108ccb1cab86","","null","
                <div class=""stimulus-container"">
                    <img src=""images/schematic_sequence/dinner_party_scheme/dinner_party_scheme_7.png"" class=""exp-image"">
                    <div class=""question-area""></div> 
                </div>","null","","","","","","","","",""
"","","","","","html-button-response","177","582152","0.0-177.0","6856D29CC0AD487CA557F138AC7F9B4A","019cf0b2-e040-7ffe-8f9d-46db1ec8283a","019cf037-5203-781a-b900-108ccb1cab86","","843","
                <div class=""stimulus-container"">
                    <img src=""images/schematic_sequence/dinner_party_scheme/dinner_party_scheme_7.png"" class=""exp-image"">
                    <div class=""question-area"">
                        <p style=""font-size: 20px; font-weight: bold; margin: 0;"">Is there a person in this image?</p>
                    </div>
                </div>","0","main_experiment_trial","7","dinner_party_scheme","schematic_sequence","","","","",""
"","","","","","html-keyboard-response","178","587176","0.0-178.0","6856D29CC0AD487CA557F138AC7F9B4A","019cf0b2-e040-7ffe-8f9d-46db1ec8283a","019cf037-5203-781a-b900-108ccb1cab86","","null","
                <div class=""stimulus-container"">
                    <img src=""images/schematic_sequence/dinner_party_scheme/dinner_party_scheme_8.png"" class=""exp-image"">
                    <div class=""question-area""></div> 
                </div>","null","","","","","","","","",""
"","","","","","html-button-response","179","588388","0.0-179.0","6856D29CC0AD487CA557F138AC7F9B4A","019cf0b2-e040-7ffe-8f9d-46db1ec8283a","019cf037-5203-781a-b900-108ccb1cab86","","1211","
                <div class=""stimulus-container"">
                    <img src=""images/schematic_sequence/dinner_party_scheme/dinner_party_scheme_8.png"" class=""exp-image"">
                    <div class=""question-area"">
                        <p style=""font-size: 20px; font-weight: bold; margin: 0;"">Is there a person in this image?</p>
                    </div>
                </div>","0","main_experiment_trial","8","dinner_party_scheme","schematic_sequence","","","","",""
"","","","","","html-keyboard-response","180","593394","0.0-180.0","6856D29CC0AD487CA557F138AC7F9B4A","019cf0b2-e040-7ffe-8f9d-46db1ec8283a","019cf037-5203-781a-b900-108ccb1cab86","","null","
                <div class=""stimulus-container"">
                    <img src=""images/schematic_sequence/dinner_party_scheme/dinner_party_scheme_9.png"" class=""exp-image"">
                    <div class=""question-area""></div> 
                </div>","null","","","","","","","","",""
"","","","","","html-button-response","181","594458","0.0-181.0","6856D29CC0AD487CA557F138AC7F9B4A","019cf0b2-e040-7ffe-8f9d-46db1ec8283a","019cf037-5203-781a-b900-108ccb1cab86","","1063","
                <div class=""stimulus-container"">
                    <img src=""images/schematic_sequence/dinner_party_scheme/dinner_party_scheme_9.png"" class=""exp-image"">
                    <div class=""question-area"">
                        <p style=""font-size: 20px; font-weight: bold; margin: 0;"">Is there a person in this image?</p>
                    </div>
                </div>","0","main_experiment_trial","9","dinner_party_scheme","schematic_sequence","","","","",""
"","","","","","html-keyboard-response","182","599460","0.0-182.0","6856D29CC0AD487CA557F138AC7F9B4A","019cf0b2-e040-7ffe-8f9d-46db1ec8283a","019cf037-5203-781a-b900-108ccb1cab86","","null","
                <div class=""stimulus-container"">
                    <img src=""images/schematic_sequence/dinner_party_scheme/dinner_party_scheme_ten.png"" class=""exp-image"">
                    <div class=""question-area""></div> 
                </div>","null","","","","","","","","",""
"","","","","","html-button-response","183","600316","0.0-183.0","6856D29CC0AD487CA557F138AC7F9B4A","019cf0b2-e040-7ffe-8f9d-46db1ec8283a","019cf037-5203-781a-b900-108ccb1cab86","","855","
                <div class=""stimulus-container"">
                    <img src=""images/schematic_sequence/dinner_party_scheme/dinner_party_scheme_ten.png"" class=""exp-image"">
                    <div class=""question-area"">
                        <p style=""font-size: 20px; font-weight: bold; margin: 0;"">Is there a person in this image?</p>
                    </div>
                </div>","0","main_experiment_trial","ten","dinner_party_scheme","schematic_sequence","","","","",""
