"success","timeout","failed_images","failed_audio","failed_video","trial_type","trial_index","time_elapsed","internal_node_id","subject_id","study_id","session_id","view_history","rt","stimulus","response","task","image_index","folder","valuable_image_index","reward_type","valuable_X","chosen_image_index","distance_from_X"
"false","false","[]","[]","[]","preload","0","8014","0.0-0.0","50824663B6C64348BED5143294111A67","019ce876-f09e-786d-a382-c23b0fdc7aeb","019ce875-66c2-7f0b-b5e8-086c75889f84","","","","","","","","","","","",""
"","","","","","instructions","1","11934","0.0-1.0","50824663B6C64348BED5143294111A67","019ce876-f09e-786d-a382-c23b0fdc7aeb","019ce875-66c2-7f0b-b5e8-086c75889f84","[{""page_index"":0,""viewing_time"":3920}]","3920","","","","","","","","","",""
"","","","","","instructions","2","36412","0.0-2.0","50824663B6C64348BED5143294111A67","019ce876-f09e-786d-a382-c23b0fdc7aeb","019ce875-66c2-7f0b-b5e8-086c75889f84","[{""page_index"":0,""viewing_time"":24478}]","24479","","","","","","","","","",""
"true","","","","","fullscreen","3","39242","0.0-3.0","50824663B6C64348BED5143294111A67","019ce876-f09e-786d-a382-c23b0fdc7aeb","019ce875-66c2-7f0b-b5e8-086c75889f84","","1829","","","","","","","","","",""
"","","","","","instructions","4","52127","0.0-4.0","50824663B6C64348BED5143294111A67","019ce876-f09e-786d-a382-c23b0fdc7aeb","019ce875-66c2-7f0b-b5e8-086c75889f84","[{""page_index"":0,""viewing_time"":12886}]","12886","","","","","","","","","",""
"","","","","","instructions","5","63984","0.0-5.0","50824663B6C64348BED5143294111A67","019ce876-f09e-786d-a382-c23b0fdc7aeb","019ce875-66c2-7f0b-b5e8-086c75889f84","[{""page_index"":0,""viewing_time"":11856}]","11857","","","","","","","","","",""
"","","","","","html-keyboard-response","6","67987","0.0-6.0","50824663B6C64348BED5143294111A67","019ce876-f09e-786d-a382-c23b0fdc7aeb","019ce875-66c2-7f0b-b5e8-086c75889f84","","null","
                <div class=""stimulus-container"">
                    <img src=""images/instructions/movie_1.png"" class=""exp-image"">
                    <div class=""question-area""></div> 
                </div>","null","","","","","","","",""
"","","","","","html-button-response","7","70988","0.0-7.0","50824663B6C64348BED5143294111A67","019ce876-f09e-786d-a382-c23b0fdc7aeb","019ce875-66c2-7f0b-b5e8-086c75889f84","","null","
                <div class=""stimulus-container"">
                    <img src=""images/instructions/movie_1.png"" class=""exp-image"">
                    <div class=""question-area"">
                        <p style=""font-size: 20px; font-weight: bold; margin: 0;"">Was there a person in this image?</p>
                    </div>
                </div>","null","example_question","1","","","","","",""
"","","","","","html-keyboard-response","8","74989","0.0-8.0","50824663B6C64348BED5143294111A67","019ce876-f09e-786d-a382-c23b0fdc7aeb","019ce875-66c2-7f0b-b5e8-086c75889f84","","null","
                <div class=""stimulus-container"">
                    <img src=""images/instructions/movie_2.png"" class=""exp-image"">
                    <div class=""question-area""></div> 
                </div>","null","","","","","","","",""
"","","","","","html-button-response","9","77945","0.0-9.0","50824663B6C64348BED5143294111A67","019ce876-f09e-786d-a382-c23b0fdc7aeb","019ce875-66c2-7f0b-b5e8-086c75889f84","","2955","
                <div class=""stimulus-container"">
                    <img src=""images/instructions/movie_2.png"" class=""exp-image"">
                    <div class=""question-area"">
                        <p style=""font-size: 20px; font-weight: bold; margin: 0;"">Was there a person in this image?</p>
                    </div>
                </div>","1","example_question","2","","","","","",""
"","","","","","html-keyboard-response","10","81946","0.0-10.0","50824663B6C64348BED5143294111A67","019ce876-f09e-786d-a382-c23b0fdc7aeb","019ce875-66c2-7f0b-b5e8-086c75889f84","","null","
                <div class=""stimulus-container"">
                    <img src=""images/instructions/movie_3.png"" class=""exp-image"">
                    <div class=""question-area""></div> 
                </div>","null","","","","","","","",""
"","","","","","html-button-response","11","82760","0.0-11.0","50824663B6C64348BED5143294111A67","019ce876-f09e-786d-a382-c23b0fdc7aeb","019ce875-66c2-7f0b-b5e8-086c75889f84","","813","
                <div class=""stimulus-container"">
                    <img src=""images/instructions/movie_3.png"" class=""exp-image"">
                    <div class=""question-area"">
                        <p style=""font-size: 20px; font-weight: bold; margin: 0;"">Was there a person in this image?</p>
                    </div>
                </div>","0","example_question","3","","","","","",""
"","","","","","html-keyboard-response","12","86760","0.0-12.0","50824663B6C64348BED5143294111A67","019ce876-f09e-786d-a382-c23b0fdc7aeb","019ce875-66c2-7f0b-b5e8-086c75889f84","","null","
                <div class=""stimulus-container"">
                    <img src=""images/instructions/movie_4.png"" class=""exp-image"">
                    <div class=""question-area""></div> 
                </div>","null","","","","","","","",""
"","","","","","html-button-response","13","87703","0.0-13.0","50824663B6C64348BED5143294111A67","019ce876-f09e-786d-a382-c23b0fdc7aeb","019ce875-66c2-7f0b-b5e8-086c75889f84","","942","
                <div class=""stimulus-container"">
                    <img src=""images/instructions/movie_4.png"" class=""exp-image"">
                    <div class=""question-area"">
                        <p style=""font-size: 20px; font-weight: bold; margin: 0;"">Was there a person in this image?</p>
                    </div>
                </div>","0","example_question","4","","","","","",""
"","","","","","instructions","14","89847","0.0-14.0","50824663B6C64348BED5143294111A67","019ce876-f09e-786d-a382-c23b0fdc7aeb","019ce875-66c2-7f0b-b5e8-086c75889f84","[{""page_index"":0,""viewing_time"":2144}]","2144","","","","","","","","","",""
"","","","","","html-keyboard-response","15","90849","0.0-15.0","50824663B6C64348BED5143294111A67","019ce876-f09e-786d-a382-c23b0fdc7aeb","019ce875-66c2-7f0b-b5e8-086c75889f84","","null","<div style=""background-color: gray; width: 100vw; height: 100vh;""></div>","null","","","","","","","",""
"","","","","","html-keyboard-response","16","95851","0.0-16.0","50824663B6C64348BED5143294111A67","019ce876-f09e-786d-a382-c23b0fdc7aeb","019ce875-66c2-7f0b-b5e8-086c75889f84","","null","
                    <div class=""stimulus-container"">
                        <img src=""images/causal_sequence/package_causal/package_causal_1.png"" class=""exp-image"">
                        <div class=""question-area""></div> 
                    </div>","null","","","","","","","",""
"","","","","","html-button-response","17","96552","0.0-17.0","50824663B6C64348BED5143294111A67","019ce876-f09e-786d-a382-c23b0fdc7aeb","019ce875-66c2-7f0b-b5e8-086c75889f84","","700","
                    <div class=""stimulus-container"">
                        <img src=""images/causal_sequence/package_causal/package_causal_1.png"" class=""exp-image"">
                        <div class=""question-area"">
                            <p style=""font-size: 20px; font-weight: bold; margin: 0;"">Is there a person in this image?</p>
                        </div>
                    </div>","0","main_causal_task","1","package_causal","","","","",""
"","","","","","html-keyboard-response","18","101553","0.0-18.0","50824663B6C64348BED5143294111A67","019ce876-f09e-786d-a382-c23b0fdc7aeb","019ce875-66c2-7f0b-b5e8-086c75889f84","","null","
                    <div class=""stimulus-container"">
                        <img src=""images/causal_sequence/package_causal/package_causal_2.png"" class=""exp-image"">
                        <div class=""question-area""></div> 
                    </div>","null","","","","","","","",""
"","","","","","html-button-response","19","102639","0.0-19.0","50824663B6C64348BED5143294111A67","019ce876-f09e-786d-a382-c23b0fdc7aeb","019ce875-66c2-7f0b-b5e8-086c75889f84","","1085","
                    <div class=""stimulus-container"">
                        <img src=""images/causal_sequence/package_causal/package_causal_2.png"" class=""exp-image"">
                        <div class=""question-area"">
                            <p style=""font-size: 20px; font-weight: bold; margin: 0;"">Is there a person in this image?</p>
                        </div>
                    </div>","0","main_causal_task","2","package_causal","","","","",""
"","","","","","html-keyboard-response","20","107641","0.0-20.0","50824663B6C64348BED5143294111A67","019ce876-f09e-786d-a382-c23b0fdc7aeb","019ce875-66c2-7f0b-b5e8-086c75889f84","","null","
                    <div class=""stimulus-container"">
                        <img src=""images/causal_sequence/package_causal/package_causal_3.png"" class=""exp-image"">
                        <div class=""question-area""></div> 
                    </div>","null","","","","","","","",""
"","","","","","html-button-response","21","108959","0.0-21.0","50824663B6C64348BED5143294111A67","019ce876-f09e-786d-a382-c23b0fdc7aeb","019ce875-66c2-7f0b-b5e8-086c75889f84","","1318","
                    <div class=""stimulus-container"">
                        <img src=""images/causal_sequence/package_causal/package_causal_3.png"" class=""exp-image"">
                        <div class=""question-area"">
                            <p style=""font-size: 20px; font-weight: bold; margin: 0;"">Is there a person in this image?</p>
                        </div>
                    </div>","0","main_causal_task","3","package_causal","","","","",""
"","","","","","html-keyboard-response","22","113962","0.0-22.0","50824663B6C64348BED5143294111A67","019ce876-f09e-786d-a382-c23b0fdc7aeb","019ce875-66c2-7f0b-b5e8-086c75889f84","","null","
                    <div class=""stimulus-container"">
                        <img src=""images/causal_sequence/package_causal/package_causal_4.png"" class=""exp-image"">
                        <div class=""question-area""></div> 
                    </div>","null","","","","","","","",""
"","","","","","html-button-response","23","114730","0.0-23.0","50824663B6C64348BED5143294111A67","019ce876-f09e-786d-a382-c23b0fdc7aeb","019ce875-66c2-7f0b-b5e8-086c75889f84","","768","
                    <div class=""stimulus-container"">
                        <img src=""images/causal_sequence/package_causal/package_causal_4.png"" class=""exp-image"">
                        <div class=""question-area"">
                            <p style=""font-size: 20px; font-weight: bold; margin: 0;"">Is there a person in this image?</p>
                        </div>
                    </div>","1","main_causal_task","4","package_causal","","","","",""
"","","","","","html-keyboard-response","24","119732","0.0-24.0","50824663B6C64348BED5143294111A67","019ce876-f09e-786d-a382-c23b0fdc7aeb","019ce875-66c2-7f0b-b5e8-086c75889f84","","null","
                    <div class=""stimulus-container"">
                        <img src=""images/causal_sequence/package_causal/package_causal_5.png"" class=""exp-image"">
                        <div class=""question-area""></div> 
                    </div>","null","","","","","","","",""
"","","","","","html-button-response","25","120777","0.0-25.0","50824663B6C64348BED5143294111A67","019ce876-f09e-786d-a382-c23b0fdc7aeb","019ce875-66c2-7f0b-b5e8-086c75889f84","","1044","
                    <div class=""stimulus-container"">
                        <img src=""images/causal_sequence/package_causal/package_causal_5.png"" class=""exp-image"">
                        <div class=""question-area"">
                            <p style=""font-size: 20px; font-weight: bold; margin: 0;"">Is there a person in this image?</p>
                        </div>
                    </div>","0","main_causal_task","5","package_causal","","","","",""
"","","","","","html-keyboard-response","26","125779","0.0-26.0","50824663B6C64348BED5143294111A67","019ce876-f09e-786d-a382-c23b0fdc7aeb","019ce875-66c2-7f0b-b5e8-086c75889f84","","null","
                    <div class=""stimulus-container"">
                        <img src=""images/causal_sequence/package_causal/package_causal_6.png"" class=""exp-image"">
                        <div class=""question-area""></div> 
                    </div>","null","","","","","","","",""
"","","","","","html-button-response","27","127412","0.0-27.0","50824663B6C64348BED5143294111A67","019ce876-f09e-786d-a382-c23b0fdc7aeb","019ce875-66c2-7f0b-b5e8-086c75889f84","","1632","
                    <div class=""stimulus-container"">
                        <img src=""images/causal_sequence/package_causal/package_causal_6.png"" class=""exp-image"">
                        <div class=""question-area"">
                            <p style=""font-size: 20px; font-weight: bold; margin: 0;"">Is there a person in this image?</p>
                        </div>
                    </div>","0","main_causal_task","6","package_causal","","","","",""
"","","","","","html-keyboard-response","28","132413","0.0-28.0","50824663B6C64348BED5143294111A67","019ce876-f09e-786d-a382-c23b0fdc7aeb","019ce875-66c2-7f0b-b5e8-086c75889f84","","null","
                    <div class=""stimulus-container"">
                        <img src=""images/causal_sequence/package_causal/package_causal_7.png"" class=""exp-image"">
                        <div class=""question-area""></div> 
                    </div>","null","","","","","","","",""
"","","","","","html-button-response","29","133033","0.0-29.0","50824663B6C64348BED5143294111A67","019ce876-f09e-786d-a382-c23b0fdc7aeb","019ce875-66c2-7f0b-b5e8-086c75889f84","","619","
                    <div class=""stimulus-container"">
                        <img src=""images/causal_sequence/package_causal/package_causal_7.png"" class=""exp-image"">
                        <div class=""question-area"">
                            <p style=""font-size: 20px; font-weight: bold; margin: 0;"">Is there a person in this image?</p>
                        </div>
                    </div>","0","main_causal_task","7","package_causal","","","","",""
"","","","","","html-keyboard-response","30","138034","0.0-30.0","50824663B6C64348BED5143294111A67","019ce876-f09e-786d-a382-c23b0fdc7aeb","019ce875-66c2-7f0b-b5e8-086c75889f84","","null","
                    <div class=""stimulus-container"">
                        <img src=""images/causal_sequence/package_causal/package_causal_8.png"" class=""exp-image"">
                        <div class=""question-area""></div> 
                    </div>","null","","","","","","","",""
"","","","","","html-button-response","31","138827","0.0-31.0","50824663B6C64348BED5143294111A67","019ce876-f09e-786d-a382-c23b0fdc7aeb","019ce875-66c2-7f0b-b5e8-086c75889f84","","793","
                    <div class=""stimulus-container"">
                        <img src=""images/causal_sequence/package_causal/package_causal_8.png"" class=""exp-image"">
                        <div class=""question-area"">
                            <p style=""font-size: 20px; font-weight: bold; margin: 0;"">Is there a person in this image?</p>
                        </div>
                    </div>","0","main_causal_task","8","package_causal","","","","",""
"","","","","","html-keyboard-response","32","143832","0.0-32.0","50824663B6C64348BED5143294111A67","019ce876-f09e-786d-a382-c23b0fdc7aeb","019ce875-66c2-7f0b-b5e8-086c75889f84","","null","
                    <div class=""stimulus-container"">
                        <img src=""images/causal_sequence/package_causal/package_causal_9.png"" class=""exp-image"">
                        <div class=""question-area""></div> 
                    </div>","null","","","","","","","",""
"","","","","","html-button-response","33","144929","0.0-33.0","50824663B6C64348BED5143294111A67","019ce876-f09e-786d-a382-c23b0fdc7aeb","019ce875-66c2-7f0b-b5e8-086c75889f84","","1094","
                    <div class=""stimulus-container"">
                        <img src=""images/causal_sequence/package_causal/package_causal_9.png"" class=""exp-image"">
                        <div class=""question-area"">
                            <p style=""font-size: 20px; font-weight: bold; margin: 0;"">Is there a person in this image?</p>
                        </div>
                    </div>","0","main_causal_task","9","package_causal","","","","",""
"","","","","","html-keyboard-response","34","145933","0.0-34.0","50824663B6C64348BED5143294111A67","019ce876-f09e-786d-a382-c23b0fdc7aeb","019ce875-66c2-7f0b-b5e8-086c75889f84","","null","<div style=""background-color: gray; width: 100vw; height: 100vh;""></div>","null","","","","","","","",""
"","","","","","html-keyboard-response","35","150942","0.0-35.0","50824663B6C64348BED5143294111A67","019ce876-f09e-786d-a382-c23b0fdc7aeb","019ce875-66c2-7f0b-b5e8-086c75889f84","","null","
                    <div class=""stimulus-container"">
                        <img src=""images/causal_sequence/the_performance_causal/the_performance_causal_1.png"" class=""exp-image"">
                        <div class=""question-area""></div> 
                    </div>","null","","","","","","","",""
"","","","","","html-button-response","36","151588","0.0-36.0","50824663B6C64348BED5143294111A67","019ce876-f09e-786d-a382-c23b0fdc7aeb","019ce875-66c2-7f0b-b5e8-086c75889f84","","645","
                    <div class=""stimulus-container"">
                        <img src=""images/causal_sequence/the_performance_causal/the_performance_causal_1.png"" class=""exp-image"">
                        <div class=""question-area"">
                            <p style=""font-size: 20px; font-weight: bold; margin: 0;"">Is there a person in this image?</p>
                        </div>
                    </div>","0","main_causal_task","1","the_performance_causal","","","","",""
"","","","","","html-keyboard-response","37","156596","0.0-37.0","50824663B6C64348BED5143294111A67","019ce876-f09e-786d-a382-c23b0fdc7aeb","019ce875-66c2-7f0b-b5e8-086c75889f84","","null","
                    <div class=""stimulus-container"">
                        <img src=""images/causal_sequence/the_performance_causal/the_performance_causal_2.png"" class=""exp-image"">
                        <div class=""question-area""></div> 
                    </div>","null","","","","","","","",""
"","","","","","html-button-response","38","157163","0.0-38.0","50824663B6C64348BED5143294111A67","019ce876-f09e-786d-a382-c23b0fdc7aeb","019ce875-66c2-7f0b-b5e8-086c75889f84","","566","
                    <div class=""stimulus-container"">
                        <img src=""images/causal_sequence/the_performance_causal/the_performance_causal_2.png"" class=""exp-image"">
                        <div class=""question-area"">
                            <p style=""font-size: 20px; font-weight: bold; margin: 0;"">Is there a person in this image?</p>
                        </div>
                    </div>","0","main_causal_task","2","the_performance_causal","","","","",""
"","","","","","html-keyboard-response","39","162168","0.0-39.0","50824663B6C64348BED5143294111A67","019ce876-f09e-786d-a382-c23b0fdc7aeb","019ce875-66c2-7f0b-b5e8-086c75889f84","","null","
                    <div class=""stimulus-container"">
                        <img src=""images/causal_sequence/the_performance_causal/the_performance_causal_3.png"" class=""exp-image"">
                        <div class=""question-area""></div> 
                    </div>","null","","","","","","","",""
"","","","","","html-button-response","40","162555","0.0-40.0","50824663B6C64348BED5143294111A67","019ce876-f09e-786d-a382-c23b0fdc7aeb","019ce875-66c2-7f0b-b5e8-086c75889f84","","386","
                    <div class=""stimulus-container"">
                        <img src=""images/causal_sequence/the_performance_causal/the_performance_causal_3.png"" class=""exp-image"">
                        <div class=""question-area"">
                            <p style=""font-size: 20px; font-weight: bold; margin: 0;"">Is there a person in this image?</p>
                        </div>
                    </div>","0","main_causal_task","3","the_performance_causal","","","","",""
"","","","","","html-keyboard-response","41","167560","0.0-41.0","50824663B6C64348BED5143294111A67","019ce876-f09e-786d-a382-c23b0fdc7aeb","019ce875-66c2-7f0b-b5e8-086c75889f84","","null","
                    <div class=""stimulus-container"">
                        <img src=""images/causal_sequence/the_performance_causal/the_performance_causal_4.png"" class=""exp-image"">
                        <div class=""question-area""></div> 
                    </div>","null","","","","","","","",""
"","","","","","html-button-response","42","167992","0.0-42.0","50824663B6C64348BED5143294111A67","019ce876-f09e-786d-a382-c23b0fdc7aeb","019ce875-66c2-7f0b-b5e8-086c75889f84","","432","
                    <div class=""stimulus-container"">
                        <img src=""images/causal_sequence/the_performance_causal/the_performance_causal_4.png"" class=""exp-image"">
                        <div class=""question-area"">
                            <p style=""font-size: 20px; font-weight: bold; margin: 0;"">Is there a person in this image?</p>
                        </div>
                    </div>","0","main_causal_task","4","the_performance_causal","","","","",""
"","","","","","html-keyboard-response","43","172996","0.0-43.0","50824663B6C64348BED5143294111A67","019ce876-f09e-786d-a382-c23b0fdc7aeb","019ce875-66c2-7f0b-b5e8-086c75889f84","","null","
                    <div class=""stimulus-container"">
                        <img src=""images/causal_sequence/the_performance_causal/the_performance_causal_5.png"" class=""exp-image"">
                        <div class=""question-area""></div> 
                    </div>","null","","","","","","","",""
"","","","","","html-button-response","44","173495","0.0-44.0","50824663B6C64348BED5143294111A67","019ce876-f09e-786d-a382-c23b0fdc7aeb","019ce875-66c2-7f0b-b5e8-086c75889f84","","499","
                    <div class=""stimulus-container"">
                        <img src=""images/causal_sequence/the_performance_causal/the_performance_causal_5.png"" class=""exp-image"">
                        <div class=""question-area"">
                            <p style=""font-size: 20px; font-weight: bold; margin: 0;"">Is there a person in this image?</p>
                        </div>
                    </div>","0","main_causal_task","5","the_performance_causal","","","","",""
"","","","","","html-keyboard-response","45","178499","0.0-45.0","50824663B6C64348BED5143294111A67","019ce876-f09e-786d-a382-c23b0fdc7aeb","019ce875-66c2-7f0b-b5e8-086c75889f84","","null","
                    <div class=""stimulus-container"">
                        <img src=""images/causal_sequence/the_performance_causal/the_performance_causal_6.png"" class=""exp-image"">
                        <div class=""question-area""></div> 
                    </div>","null","","","","","","","",""
"","","","","","html-button-response","46","179087","0.0-46.0","50824663B6C64348BED5143294111A67","019ce876-f09e-786d-a382-c23b0fdc7aeb","019ce875-66c2-7f0b-b5e8-086c75889f84","","587","
                    <div class=""stimulus-container"">
                        <img src=""images/causal_sequence/the_performance_causal/the_performance_causal_6.png"" class=""exp-image"">
                        <div class=""question-area"">
                            <p style=""font-size: 20px; font-weight: bold; margin: 0;"">Is there a person in this image?</p>
                        </div>
                    </div>","0","main_causal_task","6","the_performance_causal","","","","",""
"","","","","","html-keyboard-response","47","184091","0.0-47.0","50824663B6C64348BED5143294111A67","019ce876-f09e-786d-a382-c23b0fdc7aeb","019ce875-66c2-7f0b-b5e8-086c75889f84","","null","
                    <div class=""stimulus-container"">
                        <img src=""images/causal_sequence/the_performance_causal/the_performance_causal_7.png"" class=""exp-image"">
                        <div class=""question-area""></div> 
                    </div>","null","","","","","","","",""
"","","","","","html-button-response","48","184680","0.0-48.0","50824663B6C64348BED5143294111A67","019ce876-f09e-786d-a382-c23b0fdc7aeb","019ce875-66c2-7f0b-b5e8-086c75889f84","","589","
                    <div class=""stimulus-container"">
                        <img src=""images/causal_sequence/the_performance_causal/the_performance_causal_7.png"" class=""exp-image"">
                        <div class=""question-area"">
                            <p style=""font-size: 20px; font-weight: bold; margin: 0;"">Is there a person in this image?</p>
                        </div>
                    </div>","0","main_causal_task","7","the_performance_causal","","","","",""
"","","","","","html-keyboard-response","49","189682","0.0-49.0","50824663B6C64348BED5143294111A67","019ce876-f09e-786d-a382-c23b0fdc7aeb","019ce875-66c2-7f0b-b5e8-086c75889f84","","null","
                    <div class=""stimulus-container"">
                        <img src=""images/causal_sequence/the_performance_causal/the_performance_causal_8.png"" class=""exp-image"">
                        <div class=""question-area""></div> 
                    </div>","null","","","","","","","",""
"","","","","","html-button-response","50","190362","0.0-50.0","50824663B6C64348BED5143294111A67","019ce876-f09e-786d-a382-c23b0fdc7aeb","019ce875-66c2-7f0b-b5e8-086c75889f84","","679","
                    <div class=""stimulus-container"">
                        <img src=""images/causal_sequence/the_performance_causal/the_performance_causal_8.png"" class=""exp-image"">
                        <div class=""question-area"">
                            <p style=""font-size: 20px; font-weight: bold; margin: 0;"">Is there a person in this image?</p>
                        </div>
                    </div>","0","main_causal_task","8","the_performance_causal","","","","",""
"","","","","","html-keyboard-response","51","195364","0.0-51.0","50824663B6C64348BED5143294111A67","019ce876-f09e-786d-a382-c23b0fdc7aeb","019ce875-66c2-7f0b-b5e8-086c75889f84","","null","
                    <div class=""stimulus-container"">
                        <img src=""images/causal_sequence/the_performance_causal/the_performance_causal_9.png"" class=""exp-image"">
                        <div class=""question-area""></div> 
                    </div>","null","","","","","","","",""
"","","","","","html-button-response","52","195829","0.0-52.0","50824663B6C64348BED5143294111A67","019ce876-f09e-786d-a382-c23b0fdc7aeb","019ce875-66c2-7f0b-b5e8-086c75889f84","","465","
                    <div class=""stimulus-container"">
                        <img src=""images/causal_sequence/the_performance_causal/the_performance_causal_9.png"" class=""exp-image"">
                        <div class=""question-area"">
                            <p style=""font-size: 20px; font-weight: bold; margin: 0;"">Is there a person in this image?</p>
                        </div>
                    </div>","0","main_causal_task","9","the_performance_causal","","","","",""
"","","","","","html-keyboard-response","53","196831","0.0-53.0","50824663B6C64348BED5143294111A67","019ce876-f09e-786d-a382-c23b0fdc7aeb","019ce875-66c2-7f0b-b5e8-086c75889f84","","null","<div style=""background-color: gray; width: 100vw; height: 100vh;""></div>","null","","","","","","","",""
"","","","","","html-keyboard-response","54","201833","0.0-54.0","50824663B6C64348BED5143294111A67","019ce876-f09e-786d-a382-c23b0fdc7aeb","019ce875-66c2-7f0b-b5e8-086c75889f84","","null","
                    <div class=""stimulus-container"">
                        <img src=""images/causal_sequence/coin_causal/coin_causal_1.png"" class=""exp-image"">
                        <div class=""question-area""></div> 
                    </div>","null","","","","","","","",""
"","","","","","html-button-response","55","202467","0.0-55.0","50824663B6C64348BED5143294111A67","019ce876-f09e-786d-a382-c23b0fdc7aeb","019ce875-66c2-7f0b-b5e8-086c75889f84","","634","
                    <div class=""stimulus-container"">
                        <img src=""images/causal_sequence/coin_causal/coin_causal_1.png"" class=""exp-image"">
                        <div class=""question-area"">
                            <p style=""font-size: 20px; font-weight: bold; margin: 0;"">Is there a person in this image?</p>
                        </div>
                    </div>","0","main_causal_task","1","coin_causal","","","","",""
"","","","","","html-keyboard-response","56","207469","0.0-56.0","50824663B6C64348BED5143294111A67","019ce876-f09e-786d-a382-c23b0fdc7aeb","019ce875-66c2-7f0b-b5e8-086c75889f84","","null","
                    <div class=""stimulus-container"">
                        <img src=""images/causal_sequence/coin_causal/coin_causal_2.png"" class=""exp-image"">
                        <div class=""question-area""></div> 
                    </div>","null","","","","","","","",""
"","","","","","html-button-response","57","208024","0.0-57.0","50824663B6C64348BED5143294111A67","019ce876-f09e-786d-a382-c23b0fdc7aeb","019ce875-66c2-7f0b-b5e8-086c75889f84","","555","
                    <div class=""stimulus-container"">
                        <img src=""images/causal_sequence/coin_causal/coin_causal_2.png"" class=""exp-image"">
                        <div class=""question-area"">
                            <p style=""font-size: 20px; font-weight: bold; margin: 0;"">Is there a person in this image?</p>
                        </div>
                    </div>","0","main_causal_task","2","coin_causal","","","","",""
"","","","","","html-keyboard-response","58","213027","0.0-58.0","50824663B6C64348BED5143294111A67","019ce876-f09e-786d-a382-c23b0fdc7aeb","019ce875-66c2-7f0b-b5e8-086c75889f84","","null","
                    <div class=""stimulus-container"">
                        <img src=""images/causal_sequence/coin_causal/coin_causal_3.png"" class=""exp-image"">
                        <div class=""question-area""></div> 
                    </div>","null","","","","","","","",""
"","","","","","html-button-response","59","213796","0.0-59.0","50824663B6C64348BED5143294111A67","019ce876-f09e-786d-a382-c23b0fdc7aeb","019ce875-66c2-7f0b-b5e8-086c75889f84","","768","
                    <div class=""stimulus-container"">
                        <img src=""images/causal_sequence/coin_causal/coin_causal_3.png"" class=""exp-image"">
                        <div class=""question-area"">
                            <p style=""font-size: 20px; font-weight: bold; margin: 0;"">Is there a person in this image?</p>
                        </div>
                    </div>","0","main_causal_task","3","coin_causal","","","","",""
"","","","","","html-keyboard-response","60","218797","0.0-60.0","50824663B6C64348BED5143294111A67","019ce876-f09e-786d-a382-c23b0fdc7aeb","019ce875-66c2-7f0b-b5e8-086c75889f84","","null","
                    <div class=""stimulus-container"">
                        <img src=""images/causal_sequence/coin_causal/coin_causal_4.png"" class=""exp-image"">
                        <div class=""question-area""></div> 
                    </div>","null","","","","","","","",""
"","","","","","html-button-response","61","219397","0.0-61.0","50824663B6C64348BED5143294111A67","019ce876-f09e-786d-a382-c23b0fdc7aeb","019ce875-66c2-7f0b-b5e8-086c75889f84","","600","
                    <div class=""stimulus-container"">
                        <img src=""images/causal_sequence/coin_causal/coin_causal_4.png"" class=""exp-image"">
                        <div class=""question-area"">
                            <p style=""font-size: 20px; font-weight: bold; margin: 0;"">Is there a person in this image?</p>
                        </div>
                    </div>","0","main_causal_task","4","coin_causal","","","","",""
"","","","","","html-keyboard-response","62","224399","0.0-62.0","50824663B6C64348BED5143294111A67","019ce876-f09e-786d-a382-c23b0fdc7aeb","019ce875-66c2-7f0b-b5e8-086c75889f84","","null","
                    <div class=""stimulus-container"">
                        <img src=""images/causal_sequence/coin_causal/coin_causal_5.png"" class=""exp-image"">
                        <div class=""question-area""></div> 
                    </div>","null","","","","","","","",""
"","","","","","html-button-response","63","225023","0.0-63.0","50824663B6C64348BED5143294111A67","019ce876-f09e-786d-a382-c23b0fdc7aeb","019ce875-66c2-7f0b-b5e8-086c75889f84","","623","
                    <div class=""stimulus-container"">
                        <img src=""images/causal_sequence/coin_causal/coin_causal_5.png"" class=""exp-image"">
                        <div class=""question-area"">
                            <p style=""font-size: 20px; font-weight: bold; margin: 0;"">Is there a person in this image?</p>
                        </div>
                    </div>","0","main_causal_task","5","coin_causal","","","","",""
"","","","","","html-keyboard-response","64","230025","0.0-64.0","50824663B6C64348BED5143294111A67","019ce876-f09e-786d-a382-c23b0fdc7aeb","019ce875-66c2-7f0b-b5e8-086c75889f84","","null","
                    <div class=""stimulus-container"">
                        <img src=""images/causal_sequence/coin_causal/coin_causal_6.png"" class=""exp-image"">
                        <div class=""question-area""></div> 
                    </div>","null","","","","","","","",""
"","","","","","html-button-response","65","230625","0.0-65.0","50824663B6C64348BED5143294111A67","019ce876-f09e-786d-a382-c23b0fdc7aeb","019ce875-66c2-7f0b-b5e8-086c75889f84","","599","
                    <div class=""stimulus-container"">
                        <img src=""images/causal_sequence/coin_causal/coin_causal_6.png"" class=""exp-image"">
                        <div class=""question-area"">
                            <p style=""font-size: 20px; font-weight: bold; margin: 0;"">Is there a person in this image?</p>
                        </div>
                    </div>","0","main_causal_task","6","coin_causal","","","","",""
"","","","","","html-keyboard-response","66","235627","0.0-66.0","50824663B6C64348BED5143294111A67","019ce876-f09e-786d-a382-c23b0fdc7aeb","019ce875-66c2-7f0b-b5e8-086c75889f84","","null","
                    <div class=""stimulus-container"">
                        <img src=""images/causal_sequence/coin_causal/coin_causal_7.png"" class=""exp-image"">
                        <div class=""question-area""></div> 
                    </div>","null","","","","","","","",""
"","","","","","html-button-response","67","236553","0.0-67.0","50824663B6C64348BED5143294111A67","019ce876-f09e-786d-a382-c23b0fdc7aeb","019ce875-66c2-7f0b-b5e8-086c75889f84","","926","
                    <div class=""stimulus-container"">
                        <img src=""images/causal_sequence/coin_causal/coin_causal_7.png"" class=""exp-image"">
                        <div class=""question-area"">
                            <p style=""font-size: 20px; font-weight: bold; margin: 0;"">Is there a person in this image?</p>
                        </div>
                    </div>","1","main_causal_task","7","coin_causal","","","","",""
"","","","","","html-keyboard-response","68","241555","0.0-68.0","50824663B6C64348BED5143294111A67","019ce876-f09e-786d-a382-c23b0fdc7aeb","019ce875-66c2-7f0b-b5e8-086c75889f84","","null","
                    <div class=""stimulus-container"">
                        <img src=""images/causal_sequence/coin_causal/coin_causal_8.png"" class=""exp-image"">
                        <div class=""question-area""></div> 
                    </div>","null","","","","","","","",""
"","","","","","html-button-response","69","242268","0.0-69.0","50824663B6C64348BED5143294111A67","019ce876-f09e-786d-a382-c23b0fdc7aeb","019ce875-66c2-7f0b-b5e8-086c75889f84","","712","
                    <div class=""stimulus-container"">
                        <img src=""images/causal_sequence/coin_causal/coin_causal_8.png"" class=""exp-image"">
                        <div class=""question-area"">
                            <p style=""font-size: 20px; font-weight: bold; margin: 0;"">Is there a person in this image?</p>
                        </div>
                    </div>","0","main_causal_task","8","coin_causal","","","","",""
"","","","","","html-keyboard-response","70","247270","0.0-70.0","50824663B6C64348BED5143294111A67","019ce876-f09e-786d-a382-c23b0fdc7aeb","019ce875-66c2-7f0b-b5e8-086c75889f84","","null","
                    <div class=""stimulus-container"">
                        <img src=""images/causal_sequence/coin_causal/coin_causal_9.png"" class=""exp-image"">
                        <div class=""question-area""></div> 
                    </div>","null","","","","","","","",""
"","","","","","html-button-response","71","247814","0.0-71.0","50824663B6C64348BED5143294111A67","019ce876-f09e-786d-a382-c23b0fdc7aeb","019ce875-66c2-7f0b-b5e8-086c75889f84","","544","
                    <div class=""stimulus-container"">
                        <img src=""images/causal_sequence/coin_causal/coin_causal_9.png"" class=""exp-image"">
                        <div class=""question-area"">
                            <p style=""font-size: 20px; font-weight: bold; margin: 0;"">Is there a person in this image?</p>
                        </div>
                    </div>","0","main_causal_task","9","coin_causal","","","","",""
"","","","","","html-keyboard-response","72","248816","0.0-72.0","50824663B6C64348BED5143294111A67","019ce876-f09e-786d-a382-c23b0fdc7aeb","019ce875-66c2-7f0b-b5e8-086c75889f84","","null","<div style=""background-color: gray; width: 100vw; height: 100vh;""></div>","null","","","","","","","",""
"","","","","","html-keyboard-response","73","253817","0.0-73.0","50824663B6C64348BED5143294111A67","019ce876-f09e-786d-a382-c23b0fdc7aeb","019ce875-66c2-7f0b-b5e8-086c75889f84","","null","
                    <div class=""stimulus-container"">
                        <img src=""images/causal_sequence/saving_a_cat_causal/saving_a_cat_causal_1.png"" class=""exp-image"">
                        <div class=""question-area""></div> 
                    </div>","null","","","","","","","",""
"","","","","","html-button-response","74","254350","0.0-74.0","50824663B6C64348BED5143294111A67","019ce876-f09e-786d-a382-c23b0fdc7aeb","019ce875-66c2-7f0b-b5e8-086c75889f84","","532","
                    <div class=""stimulus-container"">
                        <img src=""images/causal_sequence/saving_a_cat_causal/saving_a_cat_causal_1.png"" class=""exp-image"">
                        <div class=""question-area"">
                            <p style=""font-size: 20px; font-weight: bold; margin: 0;"">Is there a person in this image?</p>
                        </div>
                    </div>","0","main_causal_task","1","saving_a_cat_causal","","","","",""
"","","","","","html-keyboard-response","75","259351","0.0-75.0","50824663B6C64348BED5143294111A67","019ce876-f09e-786d-a382-c23b0fdc7aeb","019ce875-66c2-7f0b-b5e8-086c75889f84","","null","
                    <div class=""stimulus-container"">
                        <img src=""images/causal_sequence/saving_a_cat_causal/saving_a_cat_causal_2.png"" class=""exp-image"">
                        <div class=""question-area""></div> 
                    </div>","null","","","","","","","",""
"","","","","","html-button-response","76","260222","0.0-76.0","50824663B6C64348BED5143294111A67","019ce876-f09e-786d-a382-c23b0fdc7aeb","019ce875-66c2-7f0b-b5e8-086c75889f84","","870","
                    <div class=""stimulus-container"">
                        <img src=""images/causal_sequence/saving_a_cat_causal/saving_a_cat_causal_2.png"" class=""exp-image"">
                        <div class=""question-area"">
                            <p style=""font-size: 20px; font-weight: bold; margin: 0;"">Is there a person in this image?</p>
                        </div>
                    </div>","0","main_causal_task","2","saving_a_cat_causal","","","","",""
"","","","","","html-keyboard-response","77","265224","0.0-77.0","50824663B6C64348BED5143294111A67","019ce876-f09e-786d-a382-c23b0fdc7aeb","019ce875-66c2-7f0b-b5e8-086c75889f84","","null","
                    <div class=""stimulus-container"">
                        <img src=""images/causal_sequence/saving_a_cat_causal/saving_a_cat_causal_3.png"" class=""exp-image"">
                        <div class=""question-area""></div> 
                    </div>","null","","","","","","","",""
"","","","","","html-button-response","78","265948","0.0-78.0","50824663B6C64348BED5143294111A67","019ce876-f09e-786d-a382-c23b0fdc7aeb","019ce875-66c2-7f0b-b5e8-086c75889f84","","723","
                    <div class=""stimulus-container"">
                        <img src=""images/causal_sequence/saving_a_cat_causal/saving_a_cat_causal_3.png"" class=""exp-image"">
                        <div class=""question-area"">
                            <p style=""font-size: 20px; font-weight: bold; margin: 0;"">Is there a person in this image?</p>
                        </div>
                    </div>","1","main_causal_task","3","saving_a_cat_causal","","","","",""
"","","","","","html-keyboard-response","79","270949","0.0-79.0","50824663B6C64348BED5143294111A67","019ce876-f09e-786d-a382-c23b0fdc7aeb","019ce875-66c2-7f0b-b5e8-086c75889f84","","null","
                    <div class=""stimulus-container"">
                        <img src=""images/causal_sequence/saving_a_cat_causal/saving_a_cat_causal_4.png"" class=""exp-image"">
                        <div class=""question-area""></div> 
                    </div>","null","","","","","","","",""
"","","","","","html-button-response","80","271821","0.0-80.0","50824663B6C64348BED5143294111A67","019ce876-f09e-786d-a382-c23b0fdc7aeb","019ce875-66c2-7f0b-b5e8-086c75889f84","","871","
                    <div class=""stimulus-container"">
                        <img src=""images/causal_sequence/saving_a_cat_causal/saving_a_cat_causal_4.png"" class=""exp-image"">
                        <div class=""question-area"">
                            <p style=""font-size: 20px; font-weight: bold; margin: 0;"">Is there a person in this image?</p>
                        </div>
                    </div>","0","main_causal_task","4","saving_a_cat_causal","","","","",""
"","","","","","html-keyboard-response","81","276822","0.0-81.0","50824663B6C64348BED5143294111A67","019ce876-f09e-786d-a382-c23b0fdc7aeb","019ce875-66c2-7f0b-b5e8-086c75889f84","","null","
                    <div class=""stimulus-container"">
                        <img src=""images/causal_sequence/saving_a_cat_causal/saving_a_cat_causal_5.png"" class=""exp-image"">
                        <div class=""question-area""></div> 
                    </div>","null","","","","","","","",""
"","","","","","html-button-response","82","277659","0.0-82.0","50824663B6C64348BED5143294111A67","019ce876-f09e-786d-a382-c23b0fdc7aeb","019ce875-66c2-7f0b-b5e8-086c75889f84","","836","
                    <div class=""stimulus-container"">
                        <img src=""images/causal_sequence/saving_a_cat_causal/saving_a_cat_causal_5.png"" class=""exp-image"">
                        <div class=""question-area"">
                            <p style=""font-size: 20px; font-weight: bold; margin: 0;"">Is there a person in this image?</p>
                        </div>
                    </div>","0","main_causal_task","5","saving_a_cat_causal","","","","",""
"","","","","","html-keyboard-response","83","282660","0.0-83.0","50824663B6C64348BED5143294111A67","019ce876-f09e-786d-a382-c23b0fdc7aeb","019ce875-66c2-7f0b-b5e8-086c75889f84","","null","
                    <div class=""stimulus-container"">
                        <img src=""images/causal_sequence/saving_a_cat_causal/saving_a_cat_causal_6.png"" class=""exp-image"">
                        <div class=""question-area""></div> 
                    </div>","null","","","","","","","",""
"","","","","","html-button-response","84","283318","0.0-84.0","50824663B6C64348BED5143294111A67","019ce876-f09e-786d-a382-c23b0fdc7aeb","019ce875-66c2-7f0b-b5e8-086c75889f84","","657","
                    <div class=""stimulus-container"">
                        <img src=""images/causal_sequence/saving_a_cat_causal/saving_a_cat_causal_6.png"" class=""exp-image"">
                        <div class=""question-area"">
                            <p style=""font-size: 20px; font-weight: bold; margin: 0;"">Is there a person in this image?</p>
                        </div>
                    </div>","0","main_causal_task","6","saving_a_cat_causal","","","","",""
"","","","","","html-keyboard-response","85","288319","0.0-85.0","50824663B6C64348BED5143294111A67","019ce876-f09e-786d-a382-c23b0fdc7aeb","019ce875-66c2-7f0b-b5e8-086c75889f84","","null","
                    <div class=""stimulus-container"">
                        <img src=""images/causal_sequence/saving_a_cat_causal/saving_a_cat_causal_7.png"" class=""exp-image"">
                        <div class=""question-area""></div> 
                    </div>","null","","","","","","","",""
"","","","","","html-button-response","86","288920","0.0-86.0","50824663B6C64348BED5143294111A67","019ce876-f09e-786d-a382-c23b0fdc7aeb","019ce875-66c2-7f0b-b5e8-086c75889f84","","600","
                    <div class=""stimulus-container"">
                        <img src=""images/causal_sequence/saving_a_cat_causal/saving_a_cat_causal_7.png"" class=""exp-image"">
                        <div class=""question-area"">
                            <p style=""font-size: 20px; font-weight: bold; margin: 0;"">Is there a person in this image?</p>
                        </div>
                    </div>","0","main_causal_task","7","saving_a_cat_causal","","","","",""
"","","","","","html-keyboard-response","87","293921","0.0-87.0","50824663B6C64348BED5143294111A67","019ce876-f09e-786d-a382-c23b0fdc7aeb","019ce875-66c2-7f0b-b5e8-086c75889f84","","null","
                    <div class=""stimulus-container"">
                        <img src=""images/causal_sequence/saving_a_cat_causal/saving_a_cat_causal_8.png"" class=""exp-image"">
                        <div class=""question-area""></div> 
                    </div>","null","","","","","","","",""
"","","","","","html-button-response","88","294499","0.0-88.0","50824663B6C64348BED5143294111A67","019ce876-f09e-786d-a382-c23b0fdc7aeb","019ce875-66c2-7f0b-b5e8-086c75889f84","","578","
                    <div class=""stimulus-container"">
                        <img src=""images/causal_sequence/saving_a_cat_causal/saving_a_cat_causal_8.png"" class=""exp-image"">
                        <div class=""question-area"">
                            <p style=""font-size: 20px; font-weight: bold; margin: 0;"">Is there a person in this image?</p>
                        </div>
                    </div>","0","main_causal_task","8","saving_a_cat_causal","","","","",""
"","","","","","html-keyboard-response","89","299501","0.0-89.0","50824663B6C64348BED5143294111A67","019ce876-f09e-786d-a382-c23b0fdc7aeb","019ce875-66c2-7f0b-b5e8-086c75889f84","","null","
                    <div class=""stimulus-container"">
                        <img src=""images/causal_sequence/saving_a_cat_causal/saving_a_cat_causal_9.png"" class=""exp-image"">
                        <div class=""question-area""></div> 
                    </div>","null","","","","","","","",""
"","","","","","html-button-response","90","300135","0.0-90.0","50824663B6C64348BED5143294111A67","019ce876-f09e-786d-a382-c23b0fdc7aeb","019ce875-66c2-7f0b-b5e8-086c75889f84","","633","
                    <div class=""stimulus-container"">
                        <img src=""images/causal_sequence/saving_a_cat_causal/saving_a_cat_causal_9.png"" class=""exp-image"">
                        <div class=""question-area"">
                            <p style=""font-size: 20px; font-weight: bold; margin: 0;"">Is there a person in this image?</p>
                        </div>
                    </div>","0","main_causal_task","9","saving_a_cat_causal","","","","",""
"","","","","","html-keyboard-response","91","301136","0.0-91.0","50824663B6C64348BED5143294111A67","019ce876-f09e-786d-a382-c23b0fdc7aeb","019ce875-66c2-7f0b-b5e8-086c75889f84","","null","<div style=""background-color: gray; width: 100vw; height: 100vh;""></div>","null","","","","","","","",""
"","","","","","html-keyboard-response","92","306137","0.0-92.0","50824663B6C64348BED5143294111A67","019ce876-f09e-786d-a382-c23b0fdc7aeb","019ce875-66c2-7f0b-b5e8-086c75889f84","","null","
                    <div class=""stimulus-container"">
                        <img src=""images/causal_sequence/dog_causal/dog_causal_1.png"" class=""exp-image"">
                        <div class=""question-area""></div> 
                    </div>","null","","","","","","","",""
"","","","","","html-button-response","93","306648","0.0-93.0","50824663B6C64348BED5143294111A67","019ce876-f09e-786d-a382-c23b0fdc7aeb","019ce875-66c2-7f0b-b5e8-086c75889f84","","510","
                    <div class=""stimulus-container"">
                        <img src=""images/causal_sequence/dog_causal/dog_causal_1.png"" class=""exp-image"">
                        <div class=""question-area"">
                            <p style=""font-size: 20px; font-weight: bold; margin: 0;"">Is there a person in this image?</p>
                        </div>
                    </div>","0","main_causal_task","1","dog_causal","","","","",""
"","","","","","html-keyboard-response","94","311650","0.0-94.0","50824663B6C64348BED5143294111A67","019ce876-f09e-786d-a382-c23b0fdc7aeb","019ce875-66c2-7f0b-b5e8-086c75889f84","","null","
                    <div class=""stimulus-container"">
                        <img src=""images/causal_sequence/dog_causal/dog_causal_2.png"" class=""exp-image"">
                        <div class=""question-area""></div> 
                    </div>","null","","","","","","","",""
"","","","","","html-button-response","95","312375","0.0-95.0","50824663B6C64348BED5143294111A67","019ce876-f09e-786d-a382-c23b0fdc7aeb","019ce875-66c2-7f0b-b5e8-086c75889f84","","724","
                    <div class=""stimulus-container"">
                        <img src=""images/causal_sequence/dog_causal/dog_causal_2.png"" class=""exp-image"">
                        <div class=""question-area"">
                            <p style=""font-size: 20px; font-weight: bold; margin: 0;"">Is there a person in this image?</p>
                        </div>
                    </div>","0","main_causal_task","2","dog_causal","","","","",""
"","","","","","html-keyboard-response","96","317376","0.0-96.0","50824663B6C64348BED5143294111A67","019ce876-f09e-786d-a382-c23b0fdc7aeb","019ce875-66c2-7f0b-b5e8-086c75889f84","","null","
                    <div class=""stimulus-container"">
                        <img src=""images/causal_sequence/dog_causal/dog_causal_3.png"" class=""exp-image"">
                        <div class=""question-area""></div> 
                    </div>","null","","","","","","","",""
"","","","","","html-button-response","97","317865","0.0-97.0","50824663B6C64348BED5143294111A67","019ce876-f09e-786d-a382-c23b0fdc7aeb","019ce875-66c2-7f0b-b5e8-086c75889f84","","488","
                    <div class=""stimulus-container"">
                        <img src=""images/causal_sequence/dog_causal/dog_causal_3.png"" class=""exp-image"">
                        <div class=""question-area"">
                            <p style=""font-size: 20px; font-weight: bold; margin: 0;"">Is there a person in this image?</p>
                        </div>
                    </div>","0","main_causal_task","3","dog_causal","","","","",""
"","","","","","html-keyboard-response","98","322867","0.0-98.0","50824663B6C64348BED5143294111A67","019ce876-f09e-786d-a382-c23b0fdc7aeb","019ce875-66c2-7f0b-b5e8-086c75889f84","","null","
                    <div class=""stimulus-container"">
                        <img src=""images/causal_sequence/dog_causal/dog_causal_4.png"" class=""exp-image"">
                        <div class=""question-area""></div> 
                    </div>","null","","","","","","","",""
"","","","","","html-button-response","99","323422","0.0-99.0","50824663B6C64348BED5143294111A67","019ce876-f09e-786d-a382-c23b0fdc7aeb","019ce875-66c2-7f0b-b5e8-086c75889f84","","555","
                    <div class=""stimulus-container"">
                        <img src=""images/causal_sequence/dog_causal/dog_causal_4.png"" class=""exp-image"">
                        <div class=""question-area"">
                            <p style=""font-size: 20px; font-weight: bold; margin: 0;"">Is there a person in this image?</p>
                        </div>
                    </div>","0","main_causal_task","4","dog_causal","","","","",""
"","","","","","html-keyboard-response","100","328424","0.0-100.0","50824663B6C64348BED5143294111A67","019ce876-f09e-786d-a382-c23b0fdc7aeb","019ce875-66c2-7f0b-b5e8-086c75889f84","","null","
                    <div class=""stimulus-container"">
                        <img src=""images/causal_sequence/dog_causal/dog_causal_5.png"" class=""exp-image"">
                        <div class=""question-area""></div> 
                    </div>","null","","","","","","","",""
"","","","","","html-button-response","101","328934","0.0-101.0","50824663B6C64348BED5143294111A67","019ce876-f09e-786d-a382-c23b0fdc7aeb","019ce875-66c2-7f0b-b5e8-086c75889f84","","510","
                    <div class=""stimulus-container"">
                        <img src=""images/causal_sequence/dog_causal/dog_causal_5.png"" class=""exp-image"">
                        <div class=""question-area"">
                            <p style=""font-size: 20px; font-weight: bold; margin: 0;"">Is there a person in this image?</p>
                        </div>
                    </div>","0","main_causal_task","5","dog_causal","","","","",""
"","","","","","html-keyboard-response","102","333936","0.0-102.0","50824663B6C64348BED5143294111A67","019ce876-f09e-786d-a382-c23b0fdc7aeb","019ce875-66c2-7f0b-b5e8-086c75889f84","","null","
                    <div class=""stimulus-container"">
                        <img src=""images/causal_sequence/dog_causal/dog_causal_6.png"" class=""exp-image"">
                        <div class=""question-area""></div> 
                    </div>","null","","","","","","","",""
"","","","","","html-button-response","103","334694","0.0-103.0","50824663B6C64348BED5143294111A67","019ce876-f09e-786d-a382-c23b0fdc7aeb","019ce875-66c2-7f0b-b5e8-086c75889f84","","758","
                    <div class=""stimulus-container"">
                        <img src=""images/causal_sequence/dog_causal/dog_causal_6.png"" class=""exp-image"">
                        <div class=""question-area"">
                            <p style=""font-size: 20px; font-weight: bold; margin: 0;"">Is there a person in this image?</p>
                        </div>
                    </div>","0","main_causal_task","6","dog_causal","","","","",""
"","","","","","html-keyboard-response","104","339696","0.0-104.0","50824663B6C64348BED5143294111A67","019ce876-f09e-786d-a382-c23b0fdc7aeb","019ce875-66c2-7f0b-b5e8-086c75889f84","","null","
                    <div class=""stimulus-container"">
                        <img src=""images/causal_sequence/dog_causal/dog_causal_7.png"" class=""exp-image"">
                        <div class=""question-area""></div> 
                    </div>","null","","","","","","","",""
"","","","","","html-button-response","105","340476","0.0-105.0","50824663B6C64348BED5143294111A67","019ce876-f09e-786d-a382-c23b0fdc7aeb","019ce875-66c2-7f0b-b5e8-086c75889f84","","779","
                    <div class=""stimulus-container"">
                        <img src=""images/causal_sequence/dog_causal/dog_causal_7.png"" class=""exp-image"">
                        <div class=""question-area"">
                            <p style=""font-size: 20px; font-weight: bold; margin: 0;"">Is there a person in this image?</p>
                        </div>
                    </div>","0","main_causal_task","7","dog_causal","","","","",""
"","","","","","html-keyboard-response","106","345478","0.0-106.0","50824663B6C64348BED5143294111A67","019ce876-f09e-786d-a382-c23b0fdc7aeb","019ce875-66c2-7f0b-b5e8-086c75889f84","","null","
                    <div class=""stimulus-container"">
                        <img src=""images/causal_sequence/dog_causal/dog_causal_8.png"" class=""exp-image"">
                        <div class=""question-area""></div> 
                    </div>","null","","","","","","","",""
"","","","","","html-button-response","107","345943","0.0-107.0","50824663B6C64348BED5143294111A67","019ce876-f09e-786d-a382-c23b0fdc7aeb","019ce875-66c2-7f0b-b5e8-086c75889f84","","465","
                    <div class=""stimulus-container"">
                        <img src=""images/causal_sequence/dog_causal/dog_causal_8.png"" class=""exp-image"">
                        <div class=""question-area"">
                            <p style=""font-size: 20px; font-weight: bold; margin: 0;"">Is there a person in this image?</p>
                        </div>
                    </div>","0","main_causal_task","8","dog_causal","","","","",""
"","","","","","html-keyboard-response","108","350944","0.0-108.0","50824663B6C64348BED5143294111A67","019ce876-f09e-786d-a382-c23b0fdc7aeb","019ce875-66c2-7f0b-b5e8-086c75889f84","","null","
                    <div class=""stimulus-container"">
                        <img src=""images/causal_sequence/dog_causal/dog_causal_9.png"" class=""exp-image"">
                        <div class=""question-area""></div> 
                    </div>","null","","","","","","","",""
"","","","","","html-button-response","109","351433","0.0-109.0","50824663B6C64348BED5143294111A67","019ce876-f09e-786d-a382-c23b0fdc7aeb","019ce875-66c2-7f0b-b5e8-086c75889f84","","488","
                    <div class=""stimulus-container"">
                        <img src=""images/causal_sequence/dog_causal/dog_causal_9.png"" class=""exp-image"">
                        <div class=""question-area"">
                            <p style=""font-size: 20px; font-weight: bold; margin: 0;"">Is there a person in this image?</p>
                        </div>
                    </div>","0","main_causal_task","9","dog_causal","","","","",""
"","","","","","html-keyboard-response","110","352436","0.0-110.0","50824663B6C64348BED5143294111A67","019ce876-f09e-786d-a382-c23b0fdc7aeb","019ce875-66c2-7f0b-b5e8-086c75889f84","","null","<div style=""background-color: gray; width: 100vw; height: 100vh;""></div>","null","","","","","","","",""
"","","","","","html-keyboard-response","111","357437","0.0-111.0","50824663B6C64348BED5143294111A67","019ce876-f09e-786d-a382-c23b0fdc7aeb","019ce875-66c2-7f0b-b5e8-086c75889f84","","null","
                    <div class=""stimulus-container"">
                        <img src=""images/causal_sequence/museum_causal/museum_causal_1.png"" class=""exp-image"">
                        <div class=""question-area""></div> 
                    </div>","null","","","","","","","",""
"","","","","","html-button-response","112","358183","0.0-112.0","50824663B6C64348BED5143294111A67","019ce876-f09e-786d-a382-c23b0fdc7aeb","019ce875-66c2-7f0b-b5e8-086c75889f84","","745","
                    <div class=""stimulus-container"">
                        <img src=""images/causal_sequence/museum_causal/museum_causal_1.png"" class=""exp-image"">
                        <div class=""question-area"">
                            <p style=""font-size: 20px; font-weight: bold; margin: 0;"">Is there a person in this image?</p>
                        </div>
                    </div>","0","main_causal_task","1","museum_causal","","","","",""
"","","","","","html-keyboard-response","113","363185","0.0-113.0","50824663B6C64348BED5143294111A67","019ce876-f09e-786d-a382-c23b0fdc7aeb","019ce875-66c2-7f0b-b5e8-086c75889f84","","null","
                    <div class=""stimulus-container"">
                        <img src=""images/causal_sequence/museum_causal/museum_causal_2.png"" class=""exp-image"">
                        <div class=""question-area""></div> 
                    </div>","null","","","","","","","",""
"","","","","","html-button-response","114","364415","0.0-114.0","50824663B6C64348BED5143294111A67","019ce876-f09e-786d-a382-c23b0fdc7aeb","019ce875-66c2-7f0b-b5e8-086c75889f84","","1229","
                    <div class=""stimulus-container"">
                        <img src=""images/causal_sequence/museum_causal/museum_causal_2.png"" class=""exp-image"">
                        <div class=""question-area"">
                            <p style=""font-size: 20px; font-weight: bold; margin: 0;"">Is there a person in this image?</p>
                        </div>
                    </div>","1","main_causal_task","2","museum_causal","","","","",""
"","","","","","html-keyboard-response","115","369417","0.0-115.0","50824663B6C64348BED5143294111A67","019ce876-f09e-786d-a382-c23b0fdc7aeb","019ce875-66c2-7f0b-b5e8-086c75889f84","","null","
                    <div class=""stimulus-container"">
                        <img src=""images/causal_sequence/museum_causal/museum_causal_3.png"" class=""exp-image"">
                        <div class=""question-area""></div> 
                    </div>","null","","","","","","","",""
"","","","","","html-button-response","116","369915","0.0-116.0","50824663B6C64348BED5143294111A67","019ce876-f09e-786d-a382-c23b0fdc7aeb","019ce875-66c2-7f0b-b5e8-086c75889f84","","498","
                    <div class=""stimulus-container"">
                        <img src=""images/causal_sequence/museum_causal/museum_causal_3.png"" class=""exp-image"">
                        <div class=""question-area"">
                            <p style=""font-size: 20px; font-weight: bold; margin: 0;"">Is there a person in this image?</p>
                        </div>
                    </div>","0","main_causal_task","3","museum_causal","","","","",""
"","","","","","html-keyboard-response","117","374917","0.0-117.0","50824663B6C64348BED5143294111A67","019ce876-f09e-786d-a382-c23b0fdc7aeb","019ce875-66c2-7f0b-b5e8-086c75889f84","","null","
                    <div class=""stimulus-container"">
                        <img src=""images/causal_sequence/museum_causal/museum_causal_4.png"" class=""exp-image"">
                        <div class=""question-area""></div> 
                    </div>","null","","","","","","","",""
"","","","","","html-button-response","118","375577","0.0-118.0","50824663B6C64348BED5143294111A67","019ce876-f09e-786d-a382-c23b0fdc7aeb","019ce875-66c2-7f0b-b5e8-086c75889f84","","660","
                    <div class=""stimulus-container"">
                        <img src=""images/causal_sequence/museum_causal/museum_causal_4.png"" class=""exp-image"">
                        <div class=""question-area"">
                            <p style=""font-size: 20px; font-weight: bold; margin: 0;"">Is there a person in this image?</p>
                        </div>
                    </div>","1","main_causal_task","4","museum_causal","","","","",""
"","","","","","html-keyboard-response","119","380579","0.0-119.0","50824663B6C64348BED5143294111A67","019ce876-f09e-786d-a382-c23b0fdc7aeb","019ce875-66c2-7f0b-b5e8-086c75889f84","","null","
                    <div class=""stimulus-container"">
                        <img src=""images/causal_sequence/museum_causal/museum_causal_5.png"" class=""exp-image"">
                        <div class=""question-area""></div> 
                    </div>","null","","","","","","","",""
"","","","","","html-button-response","120","381435","0.0-120.0","50824663B6C64348BED5143294111A67","019ce876-f09e-786d-a382-c23b0fdc7aeb","019ce875-66c2-7f0b-b5e8-086c75889f84","","856","
                    <div class=""stimulus-container"">
                        <img src=""images/causal_sequence/museum_causal/museum_causal_5.png"" class=""exp-image"">
                        <div class=""question-area"">
                            <p style=""font-size: 20px; font-weight: bold; margin: 0;"">Is there a person in this image?</p>
                        </div>
                    </div>","0","main_causal_task","5","museum_causal","","","","",""
"","","","","","html-keyboard-response","121","386438","0.0-121.0","50824663B6C64348BED5143294111A67","019ce876-f09e-786d-a382-c23b0fdc7aeb","019ce875-66c2-7f0b-b5e8-086c75889f84","","null","
                    <div class=""stimulus-container"">
                        <img src=""images/causal_sequence/museum_causal/museum_causal_6.png"" class=""exp-image"">
                        <div class=""question-area""></div> 
                    </div>","null","","","","","","","",""
"","","","","","html-button-response","122","387105","0.0-122.0","50824663B6C64348BED5143294111A67","019ce876-f09e-786d-a382-c23b0fdc7aeb","019ce875-66c2-7f0b-b5e8-086c75889f84","","667","
                    <div class=""stimulus-container"">
                        <img src=""images/causal_sequence/museum_causal/museum_causal_6.png"" class=""exp-image"">
                        <div class=""question-area"">
                            <p style=""font-size: 20px; font-weight: bold; margin: 0;"">Is there a person in this image?</p>
                        </div>
                    </div>","0","main_causal_task","6","museum_causal","","","","",""
"","","","","","html-keyboard-response","123","392107","0.0-123.0","50824663B6C64348BED5143294111A67","019ce876-f09e-786d-a382-c23b0fdc7aeb","019ce875-66c2-7f0b-b5e8-086c75889f84","","null","
                    <div class=""stimulus-container"">
                        <img src=""images/causal_sequence/museum_causal/museum_causal_7.png"" class=""exp-image"">
                        <div class=""question-area""></div> 
                    </div>","null","","","","","","","",""
"","","","","","html-button-response","124","393393","0.0-124.0","50824663B6C64348BED5143294111A67","019ce876-f09e-786d-a382-c23b0fdc7aeb","019ce875-66c2-7f0b-b5e8-086c75889f84","","1285","
                    <div class=""stimulus-container"">
                        <img src=""images/causal_sequence/museum_causal/museum_causal_7.png"" class=""exp-image"">
                        <div class=""question-area"">
                            <p style=""font-size: 20px; font-weight: bold; margin: 0;"">Is there a person in this image?</p>
                        </div>
                    </div>","1","main_causal_task","7","museum_causal","","","","",""
"","","","","","html-keyboard-response","125","398396","0.0-125.0","50824663B6C64348BED5143294111A67","019ce876-f09e-786d-a382-c23b0fdc7aeb","019ce875-66c2-7f0b-b5e8-086c75889f84","","null","
                    <div class=""stimulus-container"">
                        <img src=""images/causal_sequence/museum_causal/museum_causal_8.png"" class=""exp-image"">
                        <div class=""question-area""></div> 
                    </div>","null","","","","","","","",""
"","","","","","html-button-response","126","399288","0.0-126.0","50824663B6C64348BED5143294111A67","019ce876-f09e-786d-a382-c23b0fdc7aeb","019ce875-66c2-7f0b-b5e8-086c75889f84","","892","
                    <div class=""stimulus-container"">
                        <img src=""images/causal_sequence/museum_causal/museum_causal_8.png"" class=""exp-image"">
                        <div class=""question-area"">
                            <p style=""font-size: 20px; font-weight: bold; margin: 0;"">Is there a person in this image?</p>
                        </div>
                    </div>","0","main_causal_task","8","museum_causal","","","","",""
"","","","","","html-keyboard-response","127","404290","0.0-127.0","50824663B6C64348BED5143294111A67","019ce876-f09e-786d-a382-c23b0fdc7aeb","019ce875-66c2-7f0b-b5e8-086c75889f84","","null","
                    <div class=""stimulus-container"">
                        <img src=""images/causal_sequence/museum_causal/museum_causal_9.png"" class=""exp-image"">
                        <div class=""question-area""></div> 
                    </div>","null","","","","","","","",""
"","","","","","html-button-response","128","404845","0.0-128.0","50824663B6C64348BED5143294111A67","019ce876-f09e-786d-a382-c23b0fdc7aeb","019ce875-66c2-7f0b-b5e8-086c75889f84","","555","
                    <div class=""stimulus-container"">
                        <img src=""images/causal_sequence/museum_causal/museum_causal_9.png"" class=""exp-image"">
                        <div class=""question-area"">
                            <p style=""font-size: 20px; font-weight: bold; margin: 0;"">Is there a person in this image?</p>
                        </div>
                    </div>","1","main_causal_task","9","museum_causal","","","","",""
"","","","","","instructions","129","516737","0.0-129.0","50824663B6C64348BED5143294111A67","019ce876-f09e-786d-a382-c23b0fdc7aeb","019ce875-66c2-7f0b-b5e8-086c75889f84","[{""page_index"":0,""viewing_time"":111877}]","111877","","","","","","","","","",""
"","","","","","instructions","130","527316","0.0-130.0","50824663B6C64348BED5143294111A67","019ce876-f09e-786d-a382-c23b0fdc7aeb","019ce875-66c2-7f0b-b5e8-086c75889f84","[{""page_index"":0,""viewing_time"":10579}]","10580","","","","","","","","","",""
"","","","","","html-button-response","131","532464","0.0-131.0-0.0","50824663B6C64348BED5143294111A67","019ce876-f09e-786d-a382-c23b0fdc7aeb","019ce875-66c2-7f0b-b5e8-086c75889f84","","5147","
                <div style=""margin-bottom:20px;""><h3>Example: Valuable Image</h3></div>
                <div class=""stimulus-container"" style=""display: flex; align-items: center; justify-content: center; gap: 30px;"">
                    <img src=""images/instructions/movie_1.png"" class=""exp-image"">
                    <div style=""font-size: 35px; font-weight: bold; color: green; border: 5px solid green; padding: 20px; border-radius: 15px; background-color: #f0fff0;"">
                        WORTH<br>$1
                    </div>
                </div>
                <div class=""question-area""><p>Was there a person in this image?</p></div>","0","","","","","","","",""
"","","","","","html-button-response","132","535389","0.0-131.0-1.0","50824663B6C64348BED5143294111A67","019ce876-f09e-786d-a382-c23b0fdc7aeb","019ce875-66c2-7f0b-b5e8-086c75889f84","","2924","
                <div style=""margin-bottom:20px;""><h3>Example: Neutral Image</h3></div>
                <div class=""stimulus-container"" style=""display: flex; align-items: center; justify-content: center; gap: 30px;"">
                    <img src=""images/instructions/movie_2.png"" class=""exp-image"">
                    <div style=""font-size: 35px; font-weight: bold; color: grey; border: 5px solid grey; padding: 20px; border-radius: 15px; background-color: #f0f0f0;"">
                        NEUTRAL<br>VALUE
                    </div>
                </div>
                <div class=""question-area""><p>Was there a person in this image?</p></div>","0","","","","","","","",""
"","","","","","html-keyboard-response","133","543391","0.0-132.0","50824663B6C64348BED5143294111A67","019ce876-f09e-786d-a382-c23b0fdc7aeb","019ce875-66c2-7f0b-b5e8-086c75889f84","","null","
            <div class=""stimulus-container"" style=""display: flex; align-items: center; justify-content: center; gap: 30px;"">
                <img src=""images/causal_sequence/package_causal/package_causal_3.png"" class=""exp-image"">
                <div style=""font-size: 40px; font-weight: bold; color: green; border: 5px solid green; padding: 25px; border-radius: 15px; background-color: #f0fff0;"">
                    WORTH<br>$1
                </div>
            </div>
            <div class=""question-area""></div>","null","","","","","","","",""
"","","","","","html-button-response","134","544411","0.0-133.0","50824663B6C64348BED5143294111A67","019ce876-f09e-786d-a382-c23b0fdc7aeb","019ce875-66c2-7f0b-b5e8-086c75889f84","","1020","
            <div class=""stimulus-container"" style=""display: flex; align-items: center; justify-content: center; gap: 30px;"">
                <img src=""images/causal_sequence/package_causal/package_causal_3.png"" class=""exp-image"">
                <div style=""font-size: 40px; font-weight: bold; color: green; border: 5px solid green; padding: 25px; border-radius: 15px; background-color: #f0fff0;"">
                    WORTH<br>$1
                </div>
            </div>
            <div class=""question-area"">
                <p style=""font-size: 20px; font-weight: bold; margin: 0;"">Was there a person in this image?</p>
            </div>","0","part2_value_learning","","package_causal","3","valuable","","",""
"","","","","","html-keyboard-response","135","552413","0.0-134.0","50824663B6C64348BED5143294111A67","019ce876-f09e-786d-a382-c23b0fdc7aeb","019ce875-66c2-7f0b-b5e8-086c75889f84","","null","
            <div class=""stimulus-container"" style=""display: flex; align-items: center; justify-content: center; gap: 30px;"">
                <img src=""images/causal_sequence/saving_a_cat_causal/saving_a_cat_causal_6.png"" class=""exp-image"">
                <div style=""font-size: 40px; font-weight: bold; color: green; border: 5px solid green; padding: 25px; border-radius: 15px; background-color: #f0fff0;"">
                    WORTH<br>$1
                </div>
            </div>
            <div class=""question-area""></div>","null","","","","","","","",""
"","","","","","html-button-response","136","553354","0.0-135.0","50824663B6C64348BED5143294111A67","019ce876-f09e-786d-a382-c23b0fdc7aeb","019ce875-66c2-7f0b-b5e8-086c75889f84","","940","
            <div class=""stimulus-container"" style=""display: flex; align-items: center; justify-content: center; gap: 30px;"">
                <img src=""images/causal_sequence/saving_a_cat_causal/saving_a_cat_causal_6.png"" class=""exp-image"">
                <div style=""font-size: 40px; font-weight: bold; color: green; border: 5px solid green; padding: 25px; border-radius: 15px; background-color: #f0fff0;"">
                    WORTH<br>$1
                </div>
            </div>
            <div class=""question-area"">
                <p style=""font-size: 20px; font-weight: bold; margin: 0;"">Was there a person in this image?</p>
            </div>","0","part2_value_learning","","saving_a_cat_causal","6","valuable","","",""
"","","","","","html-keyboard-response","137","561356","0.0-136.0","50824663B6C64348BED5143294111A67","019ce876-f09e-786d-a382-c23b0fdc7aeb","019ce875-66c2-7f0b-b5e8-086c75889f84","","null","
            <div class=""stimulus-container"" style=""display: flex; align-items: center; justify-content: center; gap: 30px;"">
                <img src=""images/causal_sequence/coin_causal/coin_causal_4.png"" class=""exp-image"">
                <div style=""font-size: 40px; font-weight: bold; color: green; border: 5px solid green; padding: 25px; border-radius: 15px; background-color: #f0fff0;"">
                    WORTH<br>$1
                </div>
            </div>
            <div class=""question-area""></div>","null","","","","","","","",""
"","","","","","html-button-response","138","562039","0.0-137.0","50824663B6C64348BED5143294111A67","019ce876-f09e-786d-a382-c23b0fdc7aeb","019ce875-66c2-7f0b-b5e8-086c75889f84","","682","
            <div class=""stimulus-container"" style=""display: flex; align-items: center; justify-content: center; gap: 30px;"">
                <img src=""images/causal_sequence/coin_causal/coin_causal_4.png"" class=""exp-image"">
                <div style=""font-size: 40px; font-weight: bold; color: green; border: 5px solid green; padding: 25px; border-radius: 15px; background-color: #f0fff0;"">
                    WORTH<br>$1
                </div>
            </div>
            <div class=""question-area"">
                <p style=""font-size: 20px; font-weight: bold; margin: 0;"">Was there a person in this image?</p>
            </div>","0","part2_value_learning","","coin_causal","4","valuable","","",""
"","","","","","html-keyboard-response","139","570040","0.0-138.0","50824663B6C64348BED5143294111A67","019ce876-f09e-786d-a382-c23b0fdc7aeb","019ce875-66c2-7f0b-b5e8-086c75889f84","","null","
            <div class=""stimulus-container"" style=""display: flex; align-items: center; justify-content: center; gap: 30px;"">
                <img src=""images/causal_sequence/dog_causal/dog_causal_3.png"" class=""exp-image"">
                <div style=""font-size: 40px; font-weight: bold; color: grey; border: 5px solid grey; padding: 25px; border-radius: 15px; background-color: #f0f0f0;"">
                    NEUTRAL<br>VALUE
                </div>
            </div>
            <div class=""question-area""></div>","null","","","","","","","",""
"","","","","","html-button-response","140","570678","0.0-139.0","50824663B6C64348BED5143294111A67","019ce876-f09e-786d-a382-c23b0fdc7aeb","019ce875-66c2-7f0b-b5e8-086c75889f84","","638","
            <div class=""stimulus-container"" style=""display: flex; align-items: center; justify-content: center; gap: 30px;"">
                <img src=""images/causal_sequence/dog_causal/dog_causal_3.png"" class=""exp-image"">
                <div style=""font-size: 40px; font-weight: bold; color: grey; border: 5px solid grey; padding: 25px; border-radius: 15px; background-color: #f0f0f0;"">
                    NEUTRAL<br>VALUE
                </div>
            </div>
            <div class=""question-area"">
                <p style=""font-size: 20px; font-weight: bold; margin: 0;"">Was there a person in this image?</p>
            </div>","0","part2_value_learning","","dog_causal","3","neutral","","",""
"","","","","","html-keyboard-response","141","578679","0.0-140.0","50824663B6C64348BED5143294111A67","019ce876-f09e-786d-a382-c23b0fdc7aeb","019ce875-66c2-7f0b-b5e8-086c75889f84","","null","
            <div class=""stimulus-container"" style=""display: flex; align-items: center; justify-content: center; gap: 30px;"">
                <img src=""images/causal_sequence/the_performance_causal/the_performance_causal_7.png"" class=""exp-image"">
                <div style=""font-size: 40px; font-weight: bold; color: grey; border: 5px solid grey; padding: 25px; border-radius: 15px; background-color: #f0f0f0;"">
                    NEUTRAL<br>VALUE
                </div>
            </div>
            <div class=""question-area""></div>","null","","","","","","","",""
"","","","","","html-button-response","142","579239","0.0-141.0","50824663B6C64348BED5143294111A67","019ce876-f09e-786d-a382-c23b0fdc7aeb","019ce875-66c2-7f0b-b5e8-086c75889f84","","560","
            <div class=""stimulus-container"" style=""display: flex; align-items: center; justify-content: center; gap: 30px;"">
                <img src=""images/causal_sequence/the_performance_causal/the_performance_causal_7.png"" class=""exp-image"">
                <div style=""font-size: 40px; font-weight: bold; color: grey; border: 5px solid grey; padding: 25px; border-radius: 15px; background-color: #f0f0f0;"">
                    NEUTRAL<br>VALUE
                </div>
            </div>
            <div class=""question-area"">
                <p style=""font-size: 20px; font-weight: bold; margin: 0;"">Was there a person in this image?</p>
            </div>","0","part2_value_learning","","the_performance_causal","7","neutral","","",""
"","","","","","html-keyboard-response","143","587240","0.0-142.0","50824663B6C64348BED5143294111A67","019ce876-f09e-786d-a382-c23b0fdc7aeb","019ce875-66c2-7f0b-b5e8-086c75889f84","","null","
            <div class=""stimulus-container"" style=""display: flex; align-items: center; justify-content: center; gap: 30px;"">
                <img src=""images/causal_sequence/museum_causal/museum_causal_3.png"" class=""exp-image"">
                <div style=""font-size: 40px; font-weight: bold; color: grey; border: 5px solid grey; padding: 25px; border-radius: 15px; background-color: #f0f0f0;"">
                    NEUTRAL<br>VALUE
                </div>
            </div>
            <div class=""question-area""></div>","null","","","","","","","",""
"","","","","","html-button-response","144","587678","0.0-143.0","50824663B6C64348BED5143294111A67","019ce876-f09e-786d-a382-c23b0fdc7aeb","019ce875-66c2-7f0b-b5e8-086c75889f84","","437","
            <div class=""stimulus-container"" style=""display: flex; align-items: center; justify-content: center; gap: 30px;"">
                <img src=""images/causal_sequence/museum_causal/museum_causal_3.png"" class=""exp-image"">
                <div style=""font-size: 40px; font-weight: bold; color: grey; border: 5px solid grey; padding: 25px; border-radius: 15px; background-color: #f0f0f0;"">
                    NEUTRAL<br>VALUE
                </div>
            </div>
            <div class=""question-area"">
                <p style=""font-size: 20px; font-weight: bold; margin: 0;"">Was there a person in this image?</p>
            </div>","0","part2_value_learning","","museum_causal","3","neutral","","",""
"","","","","","instructions","145","589870","0.0-144.0","50824663B6C64348BED5143294111A67","019ce876-f09e-786d-a382-c23b0fdc7aeb","019ce875-66c2-7f0b-b5e8-086c75889f84","[{""page_index"":0,""viewing_time"":2192}]","2192","","","","","","","","","",""
"","","","","","html-keyboard-response","146","599872","0.0-145.0-0.0","50824663B6C64348BED5143294111A67","019ce876-f09e-786d-a382-c23b0fdc7aeb","019ce875-66c2-7f0b-b5e8-086c75889f84","","null","
                        <div style=""font-family: Arial; margin-bottom: 20px;""><h3>Which image is more valuable?</h3></div>
                        <div class=""stimulus-container"" style=""display: flex; width: 1100px; justify-content: center; gap: 50px;"">
                            <img src=""images/causal_sequence/the_performance_causal/the_performance_causal_6.png"" class=""exp-image"">
                            <img src=""images/causal_sequence/the_performance_causal/the_performance_causal_8.png"" class=""exp-image"">
                        </div>","null","","","","","","","",""
"","","","","","html-button-response","147","601221","0.0-145.0-1.0","50824663B6C64348BED5143294111A67","019ce876-f09e-786d-a382-c23b0fdc7aeb","019ce875-66c2-7f0b-b5e8-086c75889f84","","1348","
                        <div style=""font-family: Arial; margin-bottom: 20px;""><h3>Which image is more valuable?</h3></div>
                        <div class=""stimulus-container"" style=""display: flex; width: 1100px; justify-content: center; gap: 50px;"">
                            <img src=""images/causal_sequence/the_performance_causal/the_performance_causal_6.png"" class=""exp-image"">
                            <img src=""images/causal_sequence/the_performance_causal/the_performance_causal_8.png"" class=""exp-image"">
                        </div>","0","part3_final_choice","","the_performance_causal","","neutral","7","6","-1"
"","","","","","html-keyboard-response","148","611223","0.0-146.0-0.0","50824663B6C64348BED5143294111A67","019ce876-f09e-786d-a382-c23b0fdc7aeb","019ce875-66c2-7f0b-b5e8-086c75889f84","","null","
                        <div style=""font-family: Arial; margin-bottom: 20px;""><h3>Which image is more valuable?</h3></div>
                        <div class=""stimulus-container"" style=""display: flex; width: 1100px; justify-content: center; gap: 50px;"">
                            <img src=""images/causal_sequence/saving_a_cat_causal/saving_a_cat_causal_7.png"" class=""exp-image"">
                            <img src=""images/causal_sequence/saving_a_cat_causal/saving_a_cat_causal_5.png"" class=""exp-image"">
                        </div>","null","","","","","","","",""
"","","","","","html-button-response","149","612055","0.0-146.0-1.0","50824663B6C64348BED5143294111A67","019ce876-f09e-786d-a382-c23b0fdc7aeb","019ce875-66c2-7f0b-b5e8-086c75889f84","","831","
                        <div style=""font-family: Arial; margin-bottom: 20px;""><h3>Which image is more valuable?</h3></div>
                        <div class=""stimulus-container"" style=""display: flex; width: 1100px; justify-content: center; gap: 50px;"">
                            <img src=""images/causal_sequence/saving_a_cat_causal/saving_a_cat_causal_7.png"" class=""exp-image"">
                            <img src=""images/causal_sequence/saving_a_cat_causal/saving_a_cat_causal_5.png"" class=""exp-image"">
                        </div>","0","part3_final_choice","","saving_a_cat_causal","","valuable","6","7","1"
"","","","","","html-keyboard-response","150","622055","0.0-147.0-0.0","50824663B6C64348BED5143294111A67","019ce876-f09e-786d-a382-c23b0fdc7aeb","019ce875-66c2-7f0b-b5e8-086c75889f84","","null","
                        <div style=""font-family: Arial; margin-bottom: 20px;""><h3>Which image is more valuable?</h3></div>
                        <div class=""stimulus-container"" style=""display: flex; width: 1100px; justify-content: center; gap: 50px;"">
                            <img src=""images/causal_sequence/dog_causal/dog_causal_2.png"" class=""exp-image"">
                            <img src=""images/causal_sequence/dog_causal/dog_causal_4.png"" class=""exp-image"">
                        </div>","null","","","","","","","",""
"","","","","","html-button-response","151","622987","0.0-147.0-1.0","50824663B6C64348BED5143294111A67","019ce876-f09e-786d-a382-c23b0fdc7aeb","019ce875-66c2-7f0b-b5e8-086c75889f84","","931","
                        <div style=""font-family: Arial; margin-bottom: 20px;""><h3>Which image is more valuable?</h3></div>
                        <div class=""stimulus-container"" style=""display: flex; width: 1100px; justify-content: center; gap: 50px;"">
                            <img src=""images/causal_sequence/dog_causal/dog_causal_2.png"" class=""exp-image"">
                            <img src=""images/causal_sequence/dog_causal/dog_causal_4.png"" class=""exp-image"">
                        </div>","0","part3_final_choice","","dog_causal","","neutral","3","2","-1"
"","","","","","html-keyboard-response","152","632989","0.0-148.0-0.0","50824663B6C64348BED5143294111A67","019ce876-f09e-786d-a382-c23b0fdc7aeb","019ce875-66c2-7f0b-b5e8-086c75889f84","","null","
                        <div style=""font-family: Arial; margin-bottom: 20px;""><h3>Which image is more valuable?</h3></div>
                        <div class=""stimulus-container"" style=""display: flex; width: 1100px; justify-content: center; gap: 50px;"">
                            <img src=""images/causal_sequence/coin_causal/coin_causal_5.png"" class=""exp-image"">
                            <img src=""images/causal_sequence/coin_causal/coin_causal_3.png"" class=""exp-image"">
                        </div>","null","","","","","","","",""
"","","","","","html-button-response","153","634361","0.0-148.0-1.0","50824663B6C64348BED5143294111A67","019ce876-f09e-786d-a382-c23b0fdc7aeb","019ce875-66c2-7f0b-b5e8-086c75889f84","","1371","
                        <div style=""font-family: Arial; margin-bottom: 20px;""><h3>Which image is more valuable?</h3></div>
                        <div class=""stimulus-container"" style=""display: flex; width: 1100px; justify-content: center; gap: 50px;"">
                            <img src=""images/causal_sequence/coin_causal/coin_causal_5.png"" class=""exp-image"">
                            <img src=""images/causal_sequence/coin_causal/coin_causal_3.png"" class=""exp-image"">
                        </div>","1","part3_final_choice","","coin_causal","","valuable","4","3","-1"
"","","","","","html-keyboard-response","154","644364","0.0-149.0-0.0","50824663B6C64348BED5143294111A67","019ce876-f09e-786d-a382-c23b0fdc7aeb","019ce875-66c2-7f0b-b5e8-086c75889f84","","null","
                        <div style=""font-family: Arial; margin-bottom: 20px;""><h3>Which image is more valuable?</h3></div>
                        <div class=""stimulus-container"" style=""display: flex; width: 1100px; justify-content: center; gap: 50px;"">
                            <img src=""images/causal_sequence/museum_causal/museum_causal_4.png"" class=""exp-image"">
                            <img src=""images/causal_sequence/museum_causal/museum_causal_2.png"" class=""exp-image"">
                        </div>","null","","","","","","","",""
"","","","","","html-button-response","155","645565","0.0-149.0-1.0","50824663B6C64348BED5143294111A67","019ce876-f09e-786d-a382-c23b0fdc7aeb","019ce875-66c2-7f0b-b5e8-086c75889f84","","1201","
                        <div style=""font-family: Arial; margin-bottom: 20px;""><h3>Which image is more valuable?</h3></div>
                        <div class=""stimulus-container"" style=""display: flex; width: 1100px; justify-content: center; gap: 50px;"">
                            <img src=""images/causal_sequence/museum_causal/museum_causal_4.png"" class=""exp-image"">
                            <img src=""images/causal_sequence/museum_causal/museum_causal_2.png"" class=""exp-image"">
                        </div>","1","part3_final_choice","","museum_causal","","neutral","3","2","-1"
"","","","","","html-keyboard-response","156","655567","0.0-150.0-0.0","50824663B6C64348BED5143294111A67","019ce876-f09e-786d-a382-c23b0fdc7aeb","019ce875-66c2-7f0b-b5e8-086c75889f84","","null","
                        <div style=""font-family: Arial; margin-bottom: 20px;""><h3>Which image is more valuable?</h3></div>
                        <div class=""stimulus-container"" style=""display: flex; width: 1100px; justify-content: center; gap: 50px;"">
                            <img src=""images/causal_sequence/package_causal/package_causal_2.png"" class=""exp-image"">
                            <img src=""images/causal_sequence/package_causal/package_causal_4.png"" class=""exp-image"">
                        </div>","null","","","","","","","",""
"","","","","","html-button-response","157","657220","0.0-150.0-1.0","50824663B6C64348BED5143294111A67","019ce876-f09e-786d-a382-c23b0fdc7aeb","019ce875-66c2-7f0b-b5e8-086c75889f84","","1653","
                        <div style=""font-family: Arial; margin-bottom: 20px;""><h3>Which image is more valuable?</h3></div>
                        <div class=""stimulus-container"" style=""display: flex; width: 1100px; justify-content: center; gap: 50px;"">
                            <img src=""images/causal_sequence/package_causal/package_causal_2.png"" class=""exp-image"">
                            <img src=""images/causal_sequence/package_causal/package_causal_4.png"" class=""exp-image"">
                        </div>","0","part3_final_choice","","package_causal","","valuable","3","2","-1"
"","","","","","survey-text","158","701386","0.0-151.0","50824663B6C64348BED5143294111A67","019ce876-f09e-786d-a382-c23b0fdc7aeb","019ce875-66c2-7f0b-b5e8-086c75889f84","","44165","","{""gender"":""male"",""age"":""22"",""decision_strategy"":""I relied on patterns learned earlier. I chose images linked to rewards. I followed my intuition quickly."",""consistency_check"":""I used mostly the same logic. I focused on previously rewarded images. In uncertain pairs, I relied on intuition.""}","demographics_and_strategy","","","","","","",""
"","","","","","instructions","159","716014","0.0-152.0","50824663B6C64348BED5143294111A67","019ce876-f09e-786d-a382-c23b0fdc7aeb","019ce875-66c2-7f0b-b5e8-086c75889f84","[{""page_index"":0,""viewing_time"":14628}]","14628","","","","","","","","","",""
