"success","timeout","failed_images","failed_audio","failed_video","trial_type","trial_index","time_elapsed","internal_node_id","subject_id","study_id","session_id","view_history","rt","stimulus","response","task","image_index","folder","sequence_type","presentation_order","valuable_image_index","reward_type","distance_from_x","target_X","chosen_image_index","is_x_plus_dist","correct_choice"
"true","false","[]","[]","[]","preload","0","12666","0.0-0.0","1B047ADF78454F0895C1043A0CDE8017","019dac2f-19bf-7eb5-adf6-30bf3e167bfb","019dac27-289a-77ae-8add-f39f6a4b9bed","","","","","","","","","","","","","","","",""
"","","","","","instructions","1","29649","0.0-1.0","1B047ADF78454F0895C1043A0CDE8017","019dac2f-19bf-7eb5-adf6-30bf3e167bfb","019dac27-289a-77ae-8add-f39f6a4b9bed","[{""page_index"":0,""viewing_time"":16981}]","16982","","","","","","","","","","","","","",""
"","","","","","instructions","2","33361","0.0-2.0","1B047ADF78454F0895C1043A0CDE8017","019dac2f-19bf-7eb5-adf6-30bf3e167bfb","019dac27-289a-77ae-8add-f39f6a4b9bed","[{""page_index"":0,""viewing_time"":3708}]","3708","","","","","","","","","","","","","",""
"true","","","","","fullscreen","3","74345","0.0-3.0","1B047ADF78454F0895C1043A0CDE8017","019dac2f-19bf-7eb5-adf6-30bf3e167bfb","019dac27-289a-77ae-8add-f39f6a4b9bed","","39980","","","","","","","","","","","","","",""
"","","","","","instructions","4","112989","0.0-4.0","1B047ADF78454F0895C1043A0CDE8017","019dac2f-19bf-7eb5-adf6-30bf3e167bfb","019dac27-289a-77ae-8add-f39f6a4b9bed","[{""page_index"":0,""viewing_time"":38641}]","38642","","","","","","","","","","","","","",""
"","","","","","instructions","5","122296","0.0-5.0","1B047ADF78454F0895C1043A0CDE8017","019dac2f-19bf-7eb5-adf6-30bf3e167bfb","019dac27-289a-77ae-8add-f39f6a4b9bed","[{""page_index"":0,""viewing_time"":9306}]","9306","","","","","","","","","","","","","",""
"","","","","","html-keyboard-response","6","126301","0.0-6.0","1B047ADF78454F0895C1043A0CDE8017","019dac2f-19bf-7eb5-adf6-30bf3e167bfb","019dac27-289a-77ae-8add-f39f6a4b9bed","","null","
                <div class=""stimulus-container"">
                    <img src=""images/instructions/movie_1.png"" class=""exp-image"">
                    <div class=""question-area""></div> 
                </div>","null","","","","","","","","","","","",""
"","","","","","html-button-response","7","129305","0.0-7.0","1B047ADF78454F0895C1043A0CDE8017","019dac2f-19bf-7eb5-adf6-30bf3e167bfb","019dac27-289a-77ae-8add-f39f6a4b9bed","","null","
                <div class=""stimulus-container"">
                    <img src=""images/instructions/movie_1.png"" class=""exp-image"">
                    <div class=""question-area"">
                        <p style=""font-size: 20px; font-weight: bold; margin: 0;"">Was there a person in this image?</p>
                    </div>
                </div>","null","example_question","1","","","","","","","","","",""
"","","","","","html-keyboard-response","8","133308","0.0-8.0","1B047ADF78454F0895C1043A0CDE8017","019dac2f-19bf-7eb5-adf6-30bf3e167bfb","019dac27-289a-77ae-8add-f39f6a4b9bed","","null","
                <div class=""stimulus-container"">
                    <img src=""images/instructions/movie_2.png"" class=""exp-image"">
                    <div class=""question-area""></div> 
                </div>","null","","","","","","","","","","","",""
"","","","","","html-button-response","9","134667","0.0-9.0","1B047ADF78454F0895C1043A0CDE8017","019dac2f-19bf-7eb5-adf6-30bf3e167bfb","019dac27-289a-77ae-8add-f39f6a4b9bed","","1357","
                <div class=""stimulus-container"">
                    <img src=""images/instructions/movie_2.png"" class=""exp-image"">
                    <div class=""question-area"">
                        <p style=""font-size: 20px; font-weight: bold; margin: 0;"">Was there a person in this image?</p>
                    </div>
                </div>","1","example_question","2","","","","","","","","","",""
"","","","","","html-keyboard-response","10","138671","0.0-10.0","1B047ADF78454F0895C1043A0CDE8017","019dac2f-19bf-7eb5-adf6-30bf3e167bfb","019dac27-289a-77ae-8add-f39f6a4b9bed","","null","
                <div class=""stimulus-container"">
                    <img src=""images/instructions/movie_3.png"" class=""exp-image"">
                    <div class=""question-area""></div> 
                </div>","null","","","","","","","","","","","",""
"","","","","","html-button-response","11","139606","0.0-11.0","1B047ADF78454F0895C1043A0CDE8017","019dac2f-19bf-7eb5-adf6-30bf3e167bfb","019dac27-289a-77ae-8add-f39f6a4b9bed","","933","
                <div class=""stimulus-container"">
                    <img src=""images/instructions/movie_3.png"" class=""exp-image"">
                    <div class=""question-area"">
                        <p style=""font-size: 20px; font-weight: bold; margin: 0;"">Was there a person in this image?</p>
                    </div>
                </div>","0","example_question","3","","","","","","","","","",""
"","","","","","html-keyboard-response","12","143610","0.0-12.0","1B047ADF78454F0895C1043A0CDE8017","019dac2f-19bf-7eb5-adf6-30bf3e167bfb","019dac27-289a-77ae-8add-f39f6a4b9bed","","null","
                <div class=""stimulus-container"">
                    <img src=""images/instructions/movie_4.png"" class=""exp-image"">
                    <div class=""question-area""></div> 
                </div>","null","","","","","","","","","","","",""
"","","","","","html-button-response","13","144354","0.0-13.0","1B047ADF78454F0895C1043A0CDE8017","019dac2f-19bf-7eb5-adf6-30bf3e167bfb","019dac27-289a-77ae-8add-f39f6a4b9bed","","742","
                <div class=""stimulus-container"">
                    <img src=""images/instructions/movie_4.png"" class=""exp-image"">
                    <div class=""question-area"">
                        <p style=""font-size: 20px; font-weight: bold; margin: 0;"">Was there a person in this image?</p>
                    </div>
                </div>","0","example_question","4","","","","","","","","","",""
"","","","","","instructions","14","148146","0.0-14.0","1B047ADF78454F0895C1043A0CDE8017","019dac2f-19bf-7eb5-adf6-30bf3e167bfb","019dac27-289a-77ae-8add-f39f6a4b9bed","[{""page_index"":0,""viewing_time"":3790}]","3790","","","","","","","","","","","","","",""
"","","","","","instructions","15","154791","0.0-15.0","1B047ADF78454F0895C1043A0CDE8017","019dac2f-19bf-7eb5-adf6-30bf3e167bfb","019dac27-289a-77ae-8add-f39f6a4b9bed","[{""page_index"":0,""viewing_time"":6643}]","6643","","","","","","","","","","","","","",""
"","","","","","html-keyboard-response","16","159792","0.0-16.0","1B047ADF78454F0895C1043A0CDE8017","019dac2f-19bf-7eb5-adf6-30bf3e167bfb","019dac27-289a-77ae-8add-f39f6a4b9bed","","null","<div style=""background-color: white; width: 100vw; height: 100vh;""></div>","null","","","","","","","","","","","",""
"","","","","","html-keyboard-response","17","164794","0.0-17.0","1B047ADF78454F0895C1043A0CDE8017","019dac2f-19bf-7eb5-adf6-30bf3e167bfb","019dac27-289a-77ae-8add-f39f6a4b9bed","","null","
                <div class=""stimulus-container"">
                    <img src=""images/causal_sequence/package_causal/package_causal_1.png"" class=""exp-image"">
                    <div class=""question-area""></div> 
                </div>","null","","","","","","","","","","","",""
"","","","","","html-button-response","18","166133","0.0-18.0","1B047ADF78454F0895C1043A0CDE8017","019dac2f-19bf-7eb5-adf6-30bf3e167bfb","019dac27-289a-77ae-8add-f39f6a4b9bed","","1337","
                <div class=""stimulus-container"">
                    <img src=""images/causal_sequence/package_causal/package_causal_1.png"" class=""exp-image"">
                    <div class=""question-area"">
                        <p style=""font-size: 20px; font-weight: bold; margin: 0;"">Is there a person in this image?</p>
                    </div>
                </div>","0","main_experiment_trial","1","package_causal","causal_sequence","chronological","","","","","","",""
"","","","","","html-keyboard-response","19","171135","0.0-19.0","1B047ADF78454F0895C1043A0CDE8017","019dac2f-19bf-7eb5-adf6-30bf3e167bfb","019dac27-289a-77ae-8add-f39f6a4b9bed","","null","
                <div class=""stimulus-container"">
                    <img src=""images/causal_sequence/package_causal/package_causal_2.png"" class=""exp-image"">
                    <div class=""question-area""></div> 
                </div>","null","","","","","","","","","","","",""
"","","","","","html-button-response","20","171995","0.0-20.0","1B047ADF78454F0895C1043A0CDE8017","019dac2f-19bf-7eb5-adf6-30bf3e167bfb","019dac27-289a-77ae-8add-f39f6a4b9bed","","858","
                <div class=""stimulus-container"">
                    <img src=""images/causal_sequence/package_causal/package_causal_2.png"" class=""exp-image"">
                    <div class=""question-area"">
                        <p style=""font-size: 20px; font-weight: bold; margin: 0;"">Is there a person in this image?</p>
                    </div>
                </div>","0","main_experiment_trial","2","package_causal","causal_sequence","chronological","","","","","","",""
"","","","","","html-keyboard-response","21","176996","0.0-21.0","1B047ADF78454F0895C1043A0CDE8017","019dac2f-19bf-7eb5-adf6-30bf3e167bfb","019dac27-289a-77ae-8add-f39f6a4b9bed","","null","
                <div class=""stimulus-container"">
                    <img src=""images/causal_sequence/package_causal/package_causal_3.png"" class=""exp-image"">
                    <div class=""question-area""></div> 
                </div>","null","","","","","","","","","","","",""
"","","","","","html-button-response","22","177692","0.0-22.0","1B047ADF78454F0895C1043A0CDE8017","019dac2f-19bf-7eb5-adf6-30bf3e167bfb","019dac27-289a-77ae-8add-f39f6a4b9bed","","694","
                <div class=""stimulus-container"">
                    <img src=""images/causal_sequence/package_causal/package_causal_3.png"" class=""exp-image"">
                    <div class=""question-area"">
                        <p style=""font-size: 20px; font-weight: bold; margin: 0;"">Is there a person in this image?</p>
                    </div>
                </div>","0","main_experiment_trial","3","package_causal","causal_sequence","chronological","","","","","","",""
"","","","","","html-keyboard-response","23","182694","0.0-23.0","1B047ADF78454F0895C1043A0CDE8017","019dac2f-19bf-7eb5-adf6-30bf3e167bfb","019dac27-289a-77ae-8add-f39f6a4b9bed","","null","
                <div class=""stimulus-container"">
                    <img src=""images/causal_sequence/package_causal/package_causal_4.png"" class=""exp-image"">
                    <div class=""question-area""></div> 
                </div>","null","","","","","","","","","","","",""
"","","","","","html-button-response","24","183660","0.0-24.0","1B047ADF78454F0895C1043A0CDE8017","019dac2f-19bf-7eb5-adf6-30bf3e167bfb","019dac27-289a-77ae-8add-f39f6a4b9bed","","963","
                <div class=""stimulus-container"">
                    <img src=""images/causal_sequence/package_causal/package_causal_4.png"" class=""exp-image"">
                    <div class=""question-area"">
                        <p style=""font-size: 20px; font-weight: bold; margin: 0;"">Is there a person in this image?</p>
                    </div>
                </div>","1","main_experiment_trial","4","package_causal","causal_sequence","chronological","","","","","","",""
"","","","","","html-keyboard-response","25","188661","0.0-25.0","1B047ADF78454F0895C1043A0CDE8017","019dac2f-19bf-7eb5-adf6-30bf3e167bfb","019dac27-289a-77ae-8add-f39f6a4b9bed","","null","
                <div class=""stimulus-container"">
                    <img src=""images/causal_sequence/package_causal/package_causal_5.png"" class=""exp-image"">
                    <div class=""question-area""></div> 
                </div>","null","","","","","","","","","","","",""
"","","","","","html-button-response","26","189335","0.0-26.0","1B047ADF78454F0895C1043A0CDE8017","019dac2f-19bf-7eb5-adf6-30bf3e167bfb","019dac27-289a-77ae-8add-f39f6a4b9bed","","671","
                <div class=""stimulus-container"">
                    <img src=""images/causal_sequence/package_causal/package_causal_5.png"" class=""exp-image"">
                    <div class=""question-area"">
                        <p style=""font-size: 20px; font-weight: bold; margin: 0;"">Is there a person in this image?</p>
                    </div>
                </div>","0","main_experiment_trial","5","package_causal","causal_sequence","chronological","","","","","","",""
"","","","","","html-keyboard-response","27","194338","0.0-27.0","1B047ADF78454F0895C1043A0CDE8017","019dac2f-19bf-7eb5-adf6-30bf3e167bfb","019dac27-289a-77ae-8add-f39f6a4b9bed","","null","
                <div class=""stimulus-container"">
                    <img src=""images/causal_sequence/package_causal/package_causal_6.png"" class=""exp-image"">
                    <div class=""question-area""></div> 
                </div>","null","","","","","","","","","","","",""
"","","","","","html-button-response","28","195008","0.0-28.0","1B047ADF78454F0895C1043A0CDE8017","019dac2f-19bf-7eb5-adf6-30bf3e167bfb","019dac27-289a-77ae-8add-f39f6a4b9bed","","668","
                <div class=""stimulus-container"">
                    <img src=""images/causal_sequence/package_causal/package_causal_6.png"" class=""exp-image"">
                    <div class=""question-area"">
                        <p style=""font-size: 20px; font-weight: bold; margin: 0;"">Is there a person in this image?</p>
                    </div>
                </div>","0","main_experiment_trial","6","package_causal","causal_sequence","chronological","","","","","","",""
"","","","","","html-keyboard-response","29","200009","0.0-29.0","1B047ADF78454F0895C1043A0CDE8017","019dac2f-19bf-7eb5-adf6-30bf3e167bfb","019dac27-289a-77ae-8add-f39f6a4b9bed","","null","
                <div class=""stimulus-container"">
                    <img src=""images/causal_sequence/package_causal/package_causal_7.png"" class=""exp-image"">
                    <div class=""question-area""></div> 
                </div>","null","","","","","","","","","","","",""
"","","","","","html-button-response","30","201932","0.0-30.0","1B047ADF78454F0895C1043A0CDE8017","019dac2f-19bf-7eb5-adf6-30bf3e167bfb","019dac27-289a-77ae-8add-f39f6a4b9bed","","1920","
                <div class=""stimulus-container"">
                    <img src=""images/causal_sequence/package_causal/package_causal_7.png"" class=""exp-image"">
                    <div class=""question-area"">
                        <p style=""font-size: 20px; font-weight: bold; margin: 0;"">Is there a person in this image?</p>
                    </div>
                </div>","0","main_experiment_trial","7","package_causal","causal_sequence","chronological","","","","","","",""
"","","","","","html-keyboard-response","31","206935","0.0-31.0","1B047ADF78454F0895C1043A0CDE8017","019dac2f-19bf-7eb5-adf6-30bf3e167bfb","019dac27-289a-77ae-8add-f39f6a4b9bed","","null","
                <div class=""stimulus-container"">
                    <img src=""images/causal_sequence/package_causal/package_causal_8.png"" class=""exp-image"">
                    <div class=""question-area""></div> 
                </div>","null","","","","","","","","","","","",""
"","","","","","html-button-response","32","207438","0.0-32.0","1B047ADF78454F0895C1043A0CDE8017","019dac2f-19bf-7eb5-adf6-30bf3e167bfb","019dac27-289a-77ae-8add-f39f6a4b9bed","","500","
                <div class=""stimulus-container"">
                    <img src=""images/causal_sequence/package_causal/package_causal_8.png"" class=""exp-image"">
                    <div class=""question-area"">
                        <p style=""font-size: 20px; font-weight: bold; margin: 0;"">Is there a person in this image?</p>
                    </div>
                </div>","0","main_experiment_trial","8","package_causal","causal_sequence","chronological","","","","","","",""
"","","","","","html-keyboard-response","33","212441","0.0-33.0","1B047ADF78454F0895C1043A0CDE8017","019dac2f-19bf-7eb5-adf6-30bf3e167bfb","019dac27-289a-77ae-8add-f39f6a4b9bed","","null","
                <div class=""stimulus-container"">
                    <img src=""images/causal_sequence/package_causal/package_causal_9.png"" class=""exp-image"">
                    <div class=""question-area""></div> 
                </div>","null","","","","","","","","","","","",""
"","","","","","html-button-response","34","212938","0.0-34.0","1B047ADF78454F0895C1043A0CDE8017","019dac2f-19bf-7eb5-adf6-30bf3e167bfb","019dac27-289a-77ae-8add-f39f6a4b9bed","","495","
                <div class=""stimulus-container"">
                    <img src=""images/causal_sequence/package_causal/package_causal_9.png"" class=""exp-image"">
                    <div class=""question-area"">
                        <p style=""font-size: 20px; font-weight: bold; margin: 0;"">Is there a person in this image?</p>
                    </div>
                </div>","0","main_experiment_trial","9","package_causal","causal_sequence","chronological","","","","","","",""
"","","","","","html-keyboard-response","35","217940","0.0-35.0","1B047ADF78454F0895C1043A0CDE8017","019dac2f-19bf-7eb5-adf6-30bf3e167bfb","019dac27-289a-77ae-8add-f39f6a4b9bed","","null","
                <div class=""stimulus-container"">
                    <img src=""images/causal_sequence/package_causal/package_causal_ten.png"" class=""exp-image"">
                    <div class=""question-area""></div> 
                </div>","null","","","","","","","","","","","",""
"","","","","","html-button-response","36","218425","0.0-36.0","1B047ADF78454F0895C1043A0CDE8017","019dac2f-19bf-7eb5-adf6-30bf3e167bfb","019dac27-289a-77ae-8add-f39f6a4b9bed","","483","
                <div class=""stimulus-container"">
                    <img src=""images/causal_sequence/package_causal/package_causal_ten.png"" class=""exp-image"">
                    <div class=""question-area"">
                        <p style=""font-size: 20px; font-weight: bold; margin: 0;"">Is there a person in this image?</p>
                    </div>
                </div>","0","main_experiment_trial","ten","package_causal","causal_sequence","chronological","","","","","","",""
"","","","","","html-keyboard-response","37","223428","0.0-37.0","1B047ADF78454F0895C1043A0CDE8017","019dac2f-19bf-7eb5-adf6-30bf3e167bfb","019dac27-289a-77ae-8add-f39f6a4b9bed","","null","<div style=""background-color: white; width: 100vw; height: 100vh;""></div>","null","","","","","","","","","","","",""
"","","","","","html-keyboard-response","38","228430","0.0-38.0","1B047ADF78454F0895C1043A0CDE8017","019dac2f-19bf-7eb5-adf6-30bf3e167bfb","019dac27-289a-77ae-8add-f39f6a4b9bed","","null","
                <div class=""stimulus-container"">
                    <img src=""images/semantic_sequence/self_care_activities_semantic/self_care_activities_semantic_1.png"" class=""exp-image"">
                    <div class=""question-area""></div> 
                </div>","null","","","","","","","","","","","",""
"","","","","","html-button-response","39","229276","0.0-39.0","1B047ADF78454F0895C1043A0CDE8017","019dac2f-19bf-7eb5-adf6-30bf3e167bfb","019dac27-289a-77ae-8add-f39f6a4b9bed","","844","
                <div class=""stimulus-container"">
                    <img src=""images/semantic_sequence/self_care_activities_semantic/self_care_activities_semantic_1.png"" class=""exp-image"">
                    <div class=""question-area"">
                        <p style=""font-size: 20px; font-weight: bold; margin: 0;"">Is there a person in this image?</p>
                    </div>
                </div>","0","main_experiment_trial","1","self_care_activities_semantic","semantic_sequence","chronological","","","","","","",""
"","","","","","html-keyboard-response","40","234278","0.0-40.0","1B047ADF78454F0895C1043A0CDE8017","019dac2f-19bf-7eb5-adf6-30bf3e167bfb","019dac27-289a-77ae-8add-f39f6a4b9bed","","null","
                <div class=""stimulus-container"">
                    <img src=""images/semantic_sequence/self_care_activities_semantic/self_care_activities_semantic_2.png"" class=""exp-image"">
                    <div class=""question-area""></div> 
                </div>","null","","","","","","","","","","","",""
"","","","","","html-button-response","41","234911","0.0-41.0","1B047ADF78454F0895C1043A0CDE8017","019dac2f-19bf-7eb5-adf6-30bf3e167bfb","019dac27-289a-77ae-8add-f39f6a4b9bed","","631","
                <div class=""stimulus-container"">
                    <img src=""images/semantic_sequence/self_care_activities_semantic/self_care_activities_semantic_2.png"" class=""exp-image"">
                    <div class=""question-area"">
                        <p style=""font-size: 20px; font-weight: bold; margin: 0;"">Is there a person in this image?</p>
                    </div>
                </div>","0","main_experiment_trial","2","self_care_activities_semantic","semantic_sequence","chronological","","","","","","",""
"","","","","","html-keyboard-response","42","239913","0.0-42.0","1B047ADF78454F0895C1043A0CDE8017","019dac2f-19bf-7eb5-adf6-30bf3e167bfb","019dac27-289a-77ae-8add-f39f6a4b9bed","","null","
                <div class=""stimulus-container"">
                    <img src=""images/semantic_sequence/self_care_activities_semantic/self_care_activities_semantic_3.png"" class=""exp-image"">
                    <div class=""question-area""></div> 
                </div>","null","","","","","","","","","","","",""
"","","","","","html-button-response","43","241068","0.0-43.0","1B047ADF78454F0895C1043A0CDE8017","019dac2f-19bf-7eb5-adf6-30bf3e167bfb","019dac27-289a-77ae-8add-f39f6a4b9bed","","1152","
                <div class=""stimulus-container"">
                    <img src=""images/semantic_sequence/self_care_activities_semantic/self_care_activities_semantic_3.png"" class=""exp-image"">
                    <div class=""question-area"">
                        <p style=""font-size: 20px; font-weight: bold; margin: 0;"">Is there a person in this image?</p>
                    </div>
                </div>","0","main_experiment_trial","3","self_care_activities_semantic","semantic_sequence","chronological","","","","","","",""
"","","","","","html-keyboard-response","44","246071","0.0-44.0","1B047ADF78454F0895C1043A0CDE8017","019dac2f-19bf-7eb5-adf6-30bf3e167bfb","019dac27-289a-77ae-8add-f39f6a4b9bed","","null","
                <div class=""stimulus-container"">
                    <img src=""images/semantic_sequence/self_care_activities_semantic/self_care_activities_semantic_4.png"" class=""exp-image"">
                    <div class=""question-area""></div> 
                </div>","null","","","","","","","","","","","",""
"","","","","","html-button-response","45","246645","0.0-45.0","1B047ADF78454F0895C1043A0CDE8017","019dac2f-19bf-7eb5-adf6-30bf3e167bfb","019dac27-289a-77ae-8add-f39f6a4b9bed","","572","
                <div class=""stimulus-container"">
                    <img src=""images/semantic_sequence/self_care_activities_semantic/self_care_activities_semantic_4.png"" class=""exp-image"">
                    <div class=""question-area"">
                        <p style=""font-size: 20px; font-weight: bold; margin: 0;"">Is there a person in this image?</p>
                    </div>
                </div>","0","main_experiment_trial","4","self_care_activities_semantic","semantic_sequence","chronological","","","","","","",""
"","","","","","html-keyboard-response","46","251647","0.0-46.0","1B047ADF78454F0895C1043A0CDE8017","019dac2f-19bf-7eb5-adf6-30bf3e167bfb","019dac27-289a-77ae-8add-f39f6a4b9bed","","null","
                <div class=""stimulus-container"">
                    <img src=""images/semantic_sequence/self_care_activities_semantic/self_care_activities_semantic_5.png"" class=""exp-image"">
                    <div class=""question-area""></div> 
                </div>","null","","","","","","","","","","","",""
"","","","","","html-button-response","47","252628","0.0-47.0","1B047ADF78454F0895C1043A0CDE8017","019dac2f-19bf-7eb5-adf6-30bf3e167bfb","019dac27-289a-77ae-8add-f39f6a4b9bed","","979","
                <div class=""stimulus-container"">
                    <img src=""images/semantic_sequence/self_care_activities_semantic/self_care_activities_semantic_5.png"" class=""exp-image"">
                    <div class=""question-area"">
                        <p style=""font-size: 20px; font-weight: bold; margin: 0;"">Is there a person in this image?</p>
                    </div>
                </div>","0","main_experiment_trial","5","self_care_activities_semantic","semantic_sequence","chronological","","","","","","",""
"","","","","","html-keyboard-response","48","257631","0.0-48.0","1B047ADF78454F0895C1043A0CDE8017","019dac2f-19bf-7eb5-adf6-30bf3e167bfb","019dac27-289a-77ae-8add-f39f6a4b9bed","","null","
                <div class=""stimulus-container"">
                    <img src=""images/semantic_sequence/self_care_activities_semantic/self_care_activities_semantic_6.png"" class=""exp-image"">
                    <div class=""question-area""></div> 
                </div>","null","","","","","","","","","","","",""
"","","","","","html-button-response","49","258121","0.0-49.0","1B047ADF78454F0895C1043A0CDE8017","019dac2f-19bf-7eb5-adf6-30bf3e167bfb","019dac27-289a-77ae-8add-f39f6a4b9bed","","488","
                <div class=""stimulus-container"">
                    <img src=""images/semantic_sequence/self_care_activities_semantic/self_care_activities_semantic_6.png"" class=""exp-image"">
                    <div class=""question-area"">
                        <p style=""font-size: 20px; font-weight: bold; margin: 0;"">Is there a person in this image?</p>
                    </div>
                </div>","1","main_experiment_trial","6","self_care_activities_semantic","semantic_sequence","chronological","","","","","","",""
"","","","","","html-keyboard-response","50","263124","0.0-50.0","1B047ADF78454F0895C1043A0CDE8017","019dac2f-19bf-7eb5-adf6-30bf3e167bfb","019dac27-289a-77ae-8add-f39f6a4b9bed","","null","
                <div class=""stimulus-container"">
                    <img src=""images/semantic_sequence/self_care_activities_semantic/self_care_activities_semantic_7.png"" class=""exp-image"">
                    <div class=""question-area""></div> 
                </div>","null","","","","","","","","","","","",""
"","","","","","html-button-response","51","263866","0.0-51.0","1B047ADF78454F0895C1043A0CDE8017","019dac2f-19bf-7eb5-adf6-30bf3e167bfb","019dac27-289a-77ae-8add-f39f6a4b9bed","","741","
                <div class=""stimulus-container"">
                    <img src=""images/semantic_sequence/self_care_activities_semantic/self_care_activities_semantic_7.png"" class=""exp-image"">
                    <div class=""question-area"">
                        <p style=""font-size: 20px; font-weight: bold; margin: 0;"">Is there a person in this image?</p>
                    </div>
                </div>","0","main_experiment_trial","7","self_care_activities_semantic","semantic_sequence","chronological","","","","","","",""
"","","","","","html-keyboard-response","52","268867","0.0-52.0","1B047ADF78454F0895C1043A0CDE8017","019dac2f-19bf-7eb5-adf6-30bf3e167bfb","019dac27-289a-77ae-8add-f39f6a4b9bed","","null","
                <div class=""stimulus-container"">
                    <img src=""images/semantic_sequence/self_care_activities_semantic/self_care_activities_semantic_8.png"" class=""exp-image"">
                    <div class=""question-area""></div> 
                </div>","null","","","","","","","","","","","",""
"","","","","","html-button-response","53","269631","0.0-53.0","1B047ADF78454F0895C1043A0CDE8017","019dac2f-19bf-7eb5-adf6-30bf3e167bfb","019dac27-289a-77ae-8add-f39f6a4b9bed","","761","
                <div class=""stimulus-container"">
                    <img src=""images/semantic_sequence/self_care_activities_semantic/self_care_activities_semantic_8.png"" class=""exp-image"">
                    <div class=""question-area"">
                        <p style=""font-size: 20px; font-weight: bold; margin: 0;"">Is there a person in this image?</p>
                    </div>
                </div>","0","main_experiment_trial","8","self_care_activities_semantic","semantic_sequence","chronological","","","","","","",""
"","","","","","html-keyboard-response","54","274634","0.0-54.0","1B047ADF78454F0895C1043A0CDE8017","019dac2f-19bf-7eb5-adf6-30bf3e167bfb","019dac27-289a-77ae-8add-f39f6a4b9bed","","null","
                <div class=""stimulus-container"">
                    <img src=""images/semantic_sequence/self_care_activities_semantic/self_care_activities_semantic_9.png"" class=""exp-image"">
                    <div class=""question-area""></div> 
                </div>","null","","","","","","","","","","","",""
"","","","","","html-button-response","55","275174","0.0-55.0","1B047ADF78454F0895C1043A0CDE8017","019dac2f-19bf-7eb5-adf6-30bf3e167bfb","019dac27-289a-77ae-8add-f39f6a4b9bed","","538","
                <div class=""stimulus-container"">
                    <img src=""images/semantic_sequence/self_care_activities_semantic/self_care_activities_semantic_9.png"" class=""exp-image"">
                    <div class=""question-area"">
                        <p style=""font-size: 20px; font-weight: bold; margin: 0;"">Is there a person in this image?</p>
                    </div>
                </div>","0","main_experiment_trial","9","self_care_activities_semantic","semantic_sequence","chronological","","","","","","",""
"","","","","","html-keyboard-response","56","280176","0.0-56.0","1B047ADF78454F0895C1043A0CDE8017","019dac2f-19bf-7eb5-adf6-30bf3e167bfb","019dac27-289a-77ae-8add-f39f6a4b9bed","","null","
                <div class=""stimulus-container"">
                    <img src=""images/semantic_sequence/self_care_activities_semantic/self_care_activities_semantic_ten.png"" class=""exp-image"">
                    <div class=""question-area""></div> 
                </div>","null","","","","","","","","","","","",""
"","","","","","html-button-response","57","280656","0.0-57.0","1B047ADF78454F0895C1043A0CDE8017","019dac2f-19bf-7eb5-adf6-30bf3e167bfb","019dac27-289a-77ae-8add-f39f6a4b9bed","","477","
                <div class=""stimulus-container"">
                    <img src=""images/semantic_sequence/self_care_activities_semantic/self_care_activities_semantic_ten.png"" class=""exp-image"">
                    <div class=""question-area"">
                        <p style=""font-size: 20px; font-weight: bold; margin: 0;"">Is there a person in this image?</p>
                    </div>
                </div>","0","main_experiment_trial","ten","self_care_activities_semantic","semantic_sequence","chronological","","","","","","",""
"","","","","","html-keyboard-response","58","285659","0.0-58.0","1B047ADF78454F0895C1043A0CDE8017","019dac2f-19bf-7eb5-adf6-30bf3e167bfb","019dac27-289a-77ae-8add-f39f6a4b9bed","","null","<div style=""background-color: white; width: 100vw; height: 100vh;""></div>","null","","","","","","","","","","","",""
"","","","","","html-keyboard-response","59","290661","0.0-59.0","1B047ADF78454F0895C1043A0CDE8017","019dac2f-19bf-7eb5-adf6-30bf3e167bfb","019dac27-289a-77ae-8add-f39f6a4b9bed","","null","
                <div class=""stimulus-container"">
                    <img src=""images/semantic_sequence/visiting_cities_semantic/visiting_cities_semantic_1.png"" class=""exp-image"">
                    <div class=""question-area""></div> 
                </div>","null","","","","","","","","","","","",""
"","","","","","html-button-response","60","291386","0.0-60.0","1B047ADF78454F0895C1043A0CDE8017","019dac2f-19bf-7eb5-adf6-30bf3e167bfb","019dac27-289a-77ae-8add-f39f6a4b9bed","","723","
                <div class=""stimulus-container"">
                    <img src=""images/semantic_sequence/visiting_cities_semantic/visiting_cities_semantic_1.png"" class=""exp-image"">
                    <div class=""question-area"">
                        <p style=""font-size: 20px; font-weight: bold; margin: 0;"">Is there a person in this image?</p>
                    </div>
                </div>","0","main_experiment_trial","1","visiting_cities_semantic","semantic_sequence","chronological","","","","","","",""
"","","","","","html-keyboard-response","61","296389","0.0-61.0","1B047ADF78454F0895C1043A0CDE8017","019dac2f-19bf-7eb5-adf6-30bf3e167bfb","019dac27-289a-77ae-8add-f39f6a4b9bed","","null","
                <div class=""stimulus-container"">
                    <img src=""images/semantic_sequence/visiting_cities_semantic/visiting_cities_semantic_2.png"" class=""exp-image"">
                    <div class=""question-area""></div> 
                </div>","null","","","","","","","","","","","",""
"","","","","","html-button-response","62","297160","0.0-62.0","1B047ADF78454F0895C1043A0CDE8017","019dac2f-19bf-7eb5-adf6-30bf3e167bfb","019dac27-289a-77ae-8add-f39f6a4b9bed","","769","
                <div class=""stimulus-container"">
                    <img src=""images/semantic_sequence/visiting_cities_semantic/visiting_cities_semantic_2.png"" class=""exp-image"">
                    <div class=""question-area"">
                        <p style=""font-size: 20px; font-weight: bold; margin: 0;"">Is there a person in this image?</p>
                    </div>
                </div>","1","main_experiment_trial","2","visiting_cities_semantic","semantic_sequence","chronological","","","","","","",""
"","","","","","html-keyboard-response","63","302163","0.0-63.0","1B047ADF78454F0895C1043A0CDE8017","019dac2f-19bf-7eb5-adf6-30bf3e167bfb","019dac27-289a-77ae-8add-f39f6a4b9bed","","null","
                <div class=""stimulus-container"">
                    <img src=""images/semantic_sequence/visiting_cities_semantic/visiting_cities_semantic_3.png"" class=""exp-image"">
                    <div class=""question-area""></div> 
                </div>","null","","","","","","","","","","","",""
"","","","","","html-button-response","64","303209","0.0-64.0","1B047ADF78454F0895C1043A0CDE8017","019dac2f-19bf-7eb5-adf6-30bf3e167bfb","019dac27-289a-77ae-8add-f39f6a4b9bed","","1045","
                <div class=""stimulus-container"">
                    <img src=""images/semantic_sequence/visiting_cities_semantic/visiting_cities_semantic_3.png"" class=""exp-image"">
                    <div class=""question-area"">
                        <p style=""font-size: 20px; font-weight: bold; margin: 0;"">Is there a person in this image?</p>
                    </div>
                </div>","1","main_experiment_trial","3","visiting_cities_semantic","semantic_sequence","chronological","","","","","","",""
"","","","","","html-keyboard-response","65","308211","0.0-65.0","1B047ADF78454F0895C1043A0CDE8017","019dac2f-19bf-7eb5-adf6-30bf3e167bfb","019dac27-289a-77ae-8add-f39f6a4b9bed","","null","
                <div class=""stimulus-container"">
                    <img src=""images/semantic_sequence/visiting_cities_semantic/visiting_cities_semantic_4.png"" class=""exp-image"">
                    <div class=""question-area""></div> 
                </div>","null","","","","","","","","","","","",""
"","","","","","html-button-response","66","309024","0.0-66.0","1B047ADF78454F0895C1043A0CDE8017","019dac2f-19bf-7eb5-adf6-30bf3e167bfb","019dac27-289a-77ae-8add-f39f6a4b9bed","","812","
                <div class=""stimulus-container"">
                    <img src=""images/semantic_sequence/visiting_cities_semantic/visiting_cities_semantic_4.png"" class=""exp-image"">
                    <div class=""question-area"">
                        <p style=""font-size: 20px; font-weight: bold; margin: 0;"">Is there a person in this image?</p>
                    </div>
                </div>","1","main_experiment_trial","4","visiting_cities_semantic","semantic_sequence","chronological","","","","","","",""
"","","","","","html-keyboard-response","67","314026","0.0-67.0","1B047ADF78454F0895C1043A0CDE8017","019dac2f-19bf-7eb5-adf6-30bf3e167bfb","019dac27-289a-77ae-8add-f39f6a4b9bed","","null","
                <div class=""stimulus-container"">
                    <img src=""images/semantic_sequence/visiting_cities_semantic/visiting_cities_semantic_5.png"" class=""exp-image"">
                    <div class=""question-area""></div> 
                </div>","null","","","","","","","","","","","",""
"","","","","","html-button-response","68","314759","0.0-68.0","1B047ADF78454F0895C1043A0CDE8017","019dac2f-19bf-7eb5-adf6-30bf3e167bfb","019dac27-289a-77ae-8add-f39f6a4b9bed","","731","
                <div class=""stimulus-container"">
                    <img src=""images/semantic_sequence/visiting_cities_semantic/visiting_cities_semantic_5.png"" class=""exp-image"">
                    <div class=""question-area"">
                        <p style=""font-size: 20px; font-weight: bold; margin: 0;"">Is there a person in this image?</p>
                    </div>
                </div>","1","main_experiment_trial","5","visiting_cities_semantic","semantic_sequence","chronological","","","","","","",""
"","","","","","html-keyboard-response","69","319761","0.0-69.0","1B047ADF78454F0895C1043A0CDE8017","019dac2f-19bf-7eb5-adf6-30bf3e167bfb","019dac27-289a-77ae-8add-f39f6a4b9bed","","null","
                <div class=""stimulus-container"">
                    <img src=""images/semantic_sequence/visiting_cities_semantic/visiting_cities_semantic_6.png"" class=""exp-image"">
                    <div class=""question-area""></div> 
                </div>","null","","","","","","","","","","","",""
"","","","","","html-button-response","70","320804","0.0-70.0","1B047ADF78454F0895C1043A0CDE8017","019dac2f-19bf-7eb5-adf6-30bf3e167bfb","019dac27-289a-77ae-8add-f39f6a4b9bed","","1041","
                <div class=""stimulus-container"">
                    <img src=""images/semantic_sequence/visiting_cities_semantic/visiting_cities_semantic_6.png"" class=""exp-image"">
                    <div class=""question-area"">
                        <p style=""font-size: 20px; font-weight: bold; margin: 0;"">Is there a person in this image?</p>
                    </div>
                </div>","1","main_experiment_trial","6","visiting_cities_semantic","semantic_sequence","chronological","","","","","","",""
"","","","","","html-keyboard-response","71","325807","0.0-71.0","1B047ADF78454F0895C1043A0CDE8017","019dac2f-19bf-7eb5-adf6-30bf3e167bfb","019dac27-289a-77ae-8add-f39f6a4b9bed","","null","
                <div class=""stimulus-container"">
                    <img src=""images/semantic_sequence/visiting_cities_semantic/visiting_cities_semantic_7.png"" class=""exp-image"">
                    <div class=""question-area""></div> 
                </div>","null","","","","","","","","","","","",""
"","","","","","html-button-response","72","327506","0.0-72.0","1B047ADF78454F0895C1043A0CDE8017","019dac2f-19bf-7eb5-adf6-30bf3e167bfb","019dac27-289a-77ae-8add-f39f6a4b9bed","","1698","
                <div class=""stimulus-container"">
                    <img src=""images/semantic_sequence/visiting_cities_semantic/visiting_cities_semantic_7.png"" class=""exp-image"">
                    <div class=""question-area"">
                        <p style=""font-size: 20px; font-weight: bold; margin: 0;"">Is there a person in this image?</p>
                    </div>
                </div>","0","main_experiment_trial","7","visiting_cities_semantic","semantic_sequence","chronological","","","","","","",""
"","","","","","html-keyboard-response","73","332509","0.0-73.0","1B047ADF78454F0895C1043A0CDE8017","019dac2f-19bf-7eb5-adf6-30bf3e167bfb","019dac27-289a-77ae-8add-f39f6a4b9bed","","null","
                <div class=""stimulus-container"">
                    <img src=""images/semantic_sequence/visiting_cities_semantic/visiting_cities_semantic_8.png"" class=""exp-image"">
                    <div class=""question-area""></div> 
                </div>","null","","","","","","","","","","","",""
"","","","","","html-button-response","74","333292","0.0-74.0","1B047ADF78454F0895C1043A0CDE8017","019dac2f-19bf-7eb5-adf6-30bf3e167bfb","019dac27-289a-77ae-8add-f39f6a4b9bed","","781","
                <div class=""stimulus-container"">
                    <img src=""images/semantic_sequence/visiting_cities_semantic/visiting_cities_semantic_8.png"" class=""exp-image"">
                    <div class=""question-area"">
                        <p style=""font-size: 20px; font-weight: bold; margin: 0;"">Is there a person in this image?</p>
                    </div>
                </div>","0","main_experiment_trial","8","visiting_cities_semantic","semantic_sequence","chronological","","","","","","",""
"","","","","","html-keyboard-response","75","338295","0.0-75.0","1B047ADF78454F0895C1043A0CDE8017","019dac2f-19bf-7eb5-adf6-30bf3e167bfb","019dac27-289a-77ae-8add-f39f6a4b9bed","","null","
                <div class=""stimulus-container"">
                    <img src=""images/semantic_sequence/visiting_cities_semantic/visiting_cities_semantic_9.png"" class=""exp-image"">
                    <div class=""question-area""></div> 
                </div>","null","","","","","","","","","","","",""
"","","","","","html-button-response","76","339094","0.0-76.0","1B047ADF78454F0895C1043A0CDE8017","019dac2f-19bf-7eb5-adf6-30bf3e167bfb","019dac27-289a-77ae-8add-f39f6a4b9bed","","797","
                <div class=""stimulus-container"">
                    <img src=""images/semantic_sequence/visiting_cities_semantic/visiting_cities_semantic_9.png"" class=""exp-image"">
                    <div class=""question-area"">
                        <p style=""font-size: 20px; font-weight: bold; margin: 0;"">Is there a person in this image?</p>
                    </div>
                </div>","0","main_experiment_trial","9","visiting_cities_semantic","semantic_sequence","chronological","","","","","","",""
"","","","","","html-keyboard-response","77","344095","0.0-77.0","1B047ADF78454F0895C1043A0CDE8017","019dac2f-19bf-7eb5-adf6-30bf3e167bfb","019dac27-289a-77ae-8add-f39f6a4b9bed","","null","
                <div class=""stimulus-container"">
                    <img src=""images/semantic_sequence/visiting_cities_semantic/visiting_cities_semantic_ten.png"" class=""exp-image"">
                    <div class=""question-area""></div> 
                </div>","null","","","","","","","","","","","",""
"","","","","","html-button-response","78","344691","0.0-78.0","1B047ADF78454F0895C1043A0CDE8017","019dac2f-19bf-7eb5-adf6-30bf3e167bfb","019dac27-289a-77ae-8add-f39f6a4b9bed","","593","
                <div class=""stimulus-container"">
                    <img src=""images/semantic_sequence/visiting_cities_semantic/visiting_cities_semantic_ten.png"" class=""exp-image"">
                    <div class=""question-area"">
                        <p style=""font-size: 20px; font-weight: bold; margin: 0;"">Is there a person in this image?</p>
                    </div>
                </div>","0","main_experiment_trial","ten","visiting_cities_semantic","semantic_sequence","chronological","","","","","","",""
"","","","","","html-keyboard-response","79","349694","0.0-79.0","1B047ADF78454F0895C1043A0CDE8017","019dac2f-19bf-7eb5-adf6-30bf3e167bfb","019dac27-289a-77ae-8add-f39f6a4b9bed","","null","<div style=""background-color: white; width: 100vw; height: 100vh;""></div>","null","","","","","","","","","","","",""
"","","","","","html-keyboard-response","80","354697","0.0-80.0","1B047ADF78454F0895C1043A0CDE8017","019dac2f-19bf-7eb5-adf6-30bf3e167bfb","019dac27-289a-77ae-8add-f39f6a4b9bed","","null","
                <div class=""stimulus-container"">
                    <img src=""images/semantic_sequence/housework_semantic/housework_semantic_1.png"" class=""exp-image"">
                    <div class=""question-area""></div> 
                </div>","null","","","","","","","","","","","",""
"","","","","","html-button-response","81","356038","0.0-81.0","1B047ADF78454F0895C1043A0CDE8017","019dac2f-19bf-7eb5-adf6-30bf3e167bfb","019dac27-289a-77ae-8add-f39f6a4b9bed","","1339","
                <div class=""stimulus-container"">
                    <img src=""images/semantic_sequence/housework_semantic/housework_semantic_1.png"" class=""exp-image"">
                    <div class=""question-area"">
                        <p style=""font-size: 20px; font-weight: bold; margin: 0;"">Is there a person in this image?</p>
                    </div>
                </div>","0","main_experiment_trial","1","housework_semantic","semantic_sequence","chronological","","","","","","",""
"","","","","","html-keyboard-response","82","361041","0.0-82.0","1B047ADF78454F0895C1043A0CDE8017","019dac2f-19bf-7eb5-adf6-30bf3e167bfb","019dac27-289a-77ae-8add-f39f6a4b9bed","","null","
                <div class=""stimulus-container"">
                    <img src=""images/semantic_sequence/housework_semantic/housework_semantic_2.png"" class=""exp-image"">
                    <div class=""question-area""></div> 
                </div>","null","","","","","","","","","","","",""
"","","","","","html-button-response","83","362231","0.0-83.0","1B047ADF78454F0895C1043A0CDE8017","019dac2f-19bf-7eb5-adf6-30bf3e167bfb","019dac27-289a-77ae-8add-f39f6a4b9bed","","1188","
                <div class=""stimulus-container"">
                    <img src=""images/semantic_sequence/housework_semantic/housework_semantic_2.png"" class=""exp-image"">
                    <div class=""question-area"">
                        <p style=""font-size: 20px; font-weight: bold; margin: 0;"">Is there a person in this image?</p>
                    </div>
                </div>","0","main_experiment_trial","2","housework_semantic","semantic_sequence","chronological","","","","","","",""
"","","","","","html-keyboard-response","84","367233","0.0-84.0","1B047ADF78454F0895C1043A0CDE8017","019dac2f-19bf-7eb5-adf6-30bf3e167bfb","019dac27-289a-77ae-8add-f39f6a4b9bed","","null","
                <div class=""stimulus-container"">
                    <img src=""images/semantic_sequence/housework_semantic/housework_semantic_3.png"" class=""exp-image"">
                    <div class=""question-area""></div> 
                </div>","null","","","","","","","","","","","",""
"","","","","","html-button-response","85","367757","0.0-85.0","1B047ADF78454F0895C1043A0CDE8017","019dac2f-19bf-7eb5-adf6-30bf3e167bfb","019dac27-289a-77ae-8add-f39f6a4b9bed","","521","
                <div class=""stimulus-container"">
                    <img src=""images/semantic_sequence/housework_semantic/housework_semantic_3.png"" class=""exp-image"">
                    <div class=""question-area"">
                        <p style=""font-size: 20px; font-weight: bold; margin: 0;"">Is there a person in this image?</p>
                    </div>
                </div>","0","main_experiment_trial","3","housework_semantic","semantic_sequence","chronological","","","","","","",""
"","","","","","html-keyboard-response","86","372760","0.0-86.0","1B047ADF78454F0895C1043A0CDE8017","019dac2f-19bf-7eb5-adf6-30bf3e167bfb","019dac27-289a-77ae-8add-f39f6a4b9bed","","null","
                <div class=""stimulus-container"">
                    <img src=""images/semantic_sequence/housework_semantic/housework_semantic_4.png"" class=""exp-image"">
                    <div class=""question-area""></div> 
                </div>","null","","","","","","","","","","","",""
"","","","","","html-button-response","87","373592","0.0-87.0","1B047ADF78454F0895C1043A0CDE8017","019dac2f-19bf-7eb5-adf6-30bf3e167bfb","019dac27-289a-77ae-8add-f39f6a4b9bed","","830","
                <div class=""stimulus-container"">
                    <img src=""images/semantic_sequence/housework_semantic/housework_semantic_4.png"" class=""exp-image"">
                    <div class=""question-area"">
                        <p style=""font-size: 20px; font-weight: bold; margin: 0;"">Is there a person in this image?</p>
                    </div>
                </div>","0","main_experiment_trial","4","housework_semantic","semantic_sequence","chronological","","","","","","",""
"","","","","","html-keyboard-response","88","378595","0.0-88.0","1B047ADF78454F0895C1043A0CDE8017","019dac2f-19bf-7eb5-adf6-30bf3e167bfb","019dac27-289a-77ae-8add-f39f6a4b9bed","","null","
                <div class=""stimulus-container"">
                    <img src=""images/semantic_sequence/housework_semantic/housework_semantic_5.png"" class=""exp-image"">
                    <div class=""question-area""></div> 
                </div>","null","","","","","","","","","","","",""
"","","","","","html-button-response","89","379513","0.0-89.0","1B047ADF78454F0895C1043A0CDE8017","019dac2f-19bf-7eb5-adf6-30bf3e167bfb","019dac27-289a-77ae-8add-f39f6a4b9bed","","916","
                <div class=""stimulus-container"">
                    <img src=""images/semantic_sequence/housework_semantic/housework_semantic_5.png"" class=""exp-image"">
                    <div class=""question-area"">
                        <p style=""font-size: 20px; font-weight: bold; margin: 0;"">Is there a person in this image?</p>
                    </div>
                </div>","0","main_experiment_trial","5","housework_semantic","semantic_sequence","chronological","","","","","","",""
"","","","","","html-keyboard-response","90","384516","0.0-90.0","1B047ADF78454F0895C1043A0CDE8017","019dac2f-19bf-7eb5-adf6-30bf3e167bfb","019dac27-289a-77ae-8add-f39f6a4b9bed","","null","
                <div class=""stimulus-container"">
                    <img src=""images/semantic_sequence/housework_semantic/housework_semantic_6.png"" class=""exp-image"">
                    <div class=""question-area""></div> 
                </div>","null","","","","","","","","","","","",""
"","","","","","html-button-response","91","385194","0.0-91.0","1B047ADF78454F0895C1043A0CDE8017","019dac2f-19bf-7eb5-adf6-30bf3e167bfb","019dac27-289a-77ae-8add-f39f6a4b9bed","","676","
                <div class=""stimulus-container"">
                    <img src=""images/semantic_sequence/housework_semantic/housework_semantic_6.png"" class=""exp-image"">
                    <div class=""question-area"">
                        <p style=""font-size: 20px; font-weight: bold; margin: 0;"">Is there a person in this image?</p>
                    </div>
                </div>","0","main_experiment_trial","6","housework_semantic","semantic_sequence","chronological","","","","","","",""
"","","","","","html-keyboard-response","92","390197","0.0-92.0","1B047ADF78454F0895C1043A0CDE8017","019dac2f-19bf-7eb5-adf6-30bf3e167bfb","019dac27-289a-77ae-8add-f39f6a4b9bed","","null","
                <div class=""stimulus-container"">
                    <img src=""images/semantic_sequence/housework_semantic/housework_semantic_7.png"" class=""exp-image"">
                    <div class=""question-area""></div> 
                </div>","null","","","","","","","","","","","",""
"","","","","","html-button-response","93","390871","0.0-93.0","1B047ADF78454F0895C1043A0CDE8017","019dac2f-19bf-7eb5-adf6-30bf3e167bfb","019dac27-289a-77ae-8add-f39f6a4b9bed","","672","
                <div class=""stimulus-container"">
                    <img src=""images/semantic_sequence/housework_semantic/housework_semantic_7.png"" class=""exp-image"">
                    <div class=""question-area"">
                        <p style=""font-size: 20px; font-weight: bold; margin: 0;"">Is there a person in this image?</p>
                    </div>
                </div>","0","main_experiment_trial","7","housework_semantic","semantic_sequence","chronological","","","","","","",""
"","","","","","html-keyboard-response","94","395873","0.0-94.0","1B047ADF78454F0895C1043A0CDE8017","019dac2f-19bf-7eb5-adf6-30bf3e167bfb","019dac27-289a-77ae-8add-f39f6a4b9bed","","null","
                <div class=""stimulus-container"">
                    <img src=""images/semantic_sequence/housework_semantic/housework_semantic_8.png"" class=""exp-image"">
                    <div class=""question-area""></div> 
                </div>","null","","","","","","","","","","","",""
"","","","","","html-button-response","95","397301","0.0-95.0","1B047ADF78454F0895C1043A0CDE8017","019dac2f-19bf-7eb5-adf6-30bf3e167bfb","019dac27-289a-77ae-8add-f39f6a4b9bed","","1427","
                <div class=""stimulus-container"">
                    <img src=""images/semantic_sequence/housework_semantic/housework_semantic_8.png"" class=""exp-image"">
                    <div class=""question-area"">
                        <p style=""font-size: 20px; font-weight: bold; margin: 0;"">Is there a person in this image?</p>
                    </div>
                </div>","0","main_experiment_trial","8","housework_semantic","semantic_sequence","chronological","","","","","","",""
"","","","","","html-keyboard-response","96","402304","0.0-96.0","1B047ADF78454F0895C1043A0CDE8017","019dac2f-19bf-7eb5-adf6-30bf3e167bfb","019dac27-289a-77ae-8add-f39f6a4b9bed","","null","
                <div class=""stimulus-container"">
                    <img src=""images/semantic_sequence/housework_semantic/housework_semantic_9.png"" class=""exp-image"">
                    <div class=""question-area""></div> 
                </div>","null","","","","","","","","","","","",""
"","","","","","html-button-response","97","402752","0.0-97.0","1B047ADF78454F0895C1043A0CDE8017","019dac2f-19bf-7eb5-adf6-30bf3e167bfb","019dac27-289a-77ae-8add-f39f6a4b9bed","","445","
                <div class=""stimulus-container"">
                    <img src=""images/semantic_sequence/housework_semantic/housework_semantic_9.png"" class=""exp-image"">
                    <div class=""question-area"">
                        <p style=""font-size: 20px; font-weight: bold; margin: 0;"">Is there a person in this image?</p>
                    </div>
                </div>","0","main_experiment_trial","9","housework_semantic","semantic_sequence","chronological","","","","","","",""
"","","","","","html-keyboard-response","98","407755","0.0-98.0","1B047ADF78454F0895C1043A0CDE8017","019dac2f-19bf-7eb5-adf6-30bf3e167bfb","019dac27-289a-77ae-8add-f39f6a4b9bed","","null","
                <div class=""stimulus-container"">
                    <img src=""images/semantic_sequence/housework_semantic/housework_semantic_ten.png"" class=""exp-image"">
                    <div class=""question-area""></div> 
                </div>","null","","","","","","","","","","","",""
"","","","","","html-button-response","99","408162","0.0-99.0","1B047ADF78454F0895C1043A0CDE8017","019dac2f-19bf-7eb5-adf6-30bf3e167bfb","019dac27-289a-77ae-8add-f39f6a4b9bed","","405","
                <div class=""stimulus-container"">
                    <img src=""images/semantic_sequence/housework_semantic/housework_semantic_ten.png"" class=""exp-image"">
                    <div class=""question-area"">
                        <p style=""font-size: 20px; font-weight: bold; margin: 0;"">Is there a person in this image?</p>
                    </div>
                </div>","0","main_experiment_trial","ten","housework_semantic","semantic_sequence","chronological","","","","","","",""
"","","","","","html-keyboard-response","100","413164","0.0-100.0","1B047ADF78454F0895C1043A0CDE8017","019dac2f-19bf-7eb5-adf6-30bf3e167bfb","019dac27-289a-77ae-8add-f39f6a4b9bed","","null","<div style=""background-color: white; width: 100vw; height: 100vh;""></div>","null","","","","","","","","","","","",""
"","","","","","html-keyboard-response","101","418166","0.0-101.0","1B047ADF78454F0895C1043A0CDE8017","019dac2f-19bf-7eb5-adf6-30bf3e167bfb","019dac27-289a-77ae-8add-f39f6a4b9bed","","null","
                <div class=""stimulus-container"">
                    <img src=""images/causal_sequence/museum_causal/museum_causal_1.png"" class=""exp-image"">
                    <div class=""question-area""></div> 
                </div>","null","","","","","","","","","","","",""
"","","","","","html-button-response","102","419306","0.0-102.0","1B047ADF78454F0895C1043A0CDE8017","019dac2f-19bf-7eb5-adf6-30bf3e167bfb","019dac27-289a-77ae-8add-f39f6a4b9bed","","1137","
                <div class=""stimulus-container"">
                    <img src=""images/causal_sequence/museum_causal/museum_causal_1.png"" class=""exp-image"">
                    <div class=""question-area"">
                        <p style=""font-size: 20px; font-weight: bold; margin: 0;"">Is there a person in this image?</p>
                    </div>
                </div>","0","main_experiment_trial","1","museum_causal","causal_sequence","chronological","","","","","","",""
"","","","","","html-keyboard-response","103","424308","0.0-103.0","1B047ADF78454F0895C1043A0CDE8017","019dac2f-19bf-7eb5-adf6-30bf3e167bfb","019dac27-289a-77ae-8add-f39f6a4b9bed","","null","
                <div class=""stimulus-container"">
                    <img src=""images/causal_sequence/museum_causal/museum_causal_2.png"" class=""exp-image"">
                    <div class=""question-area""></div> 
                </div>","null","","","","","","","","","","","",""
"","","","","","html-button-response","104","426772","0.0-104.0","1B047ADF78454F0895C1043A0CDE8017","019dac2f-19bf-7eb5-adf6-30bf3e167bfb","019dac27-289a-77ae-8add-f39f6a4b9bed","","2461","
                <div class=""stimulus-container"">
                    <img src=""images/causal_sequence/museum_causal/museum_causal_2.png"" class=""exp-image"">
                    <div class=""question-area"">
                        <p style=""font-size: 20px; font-weight: bold; margin: 0;"">Is there a person in this image?</p>
                    </div>
                </div>","0","main_experiment_trial","2","museum_causal","causal_sequence","chronological","","","","","","",""
"","","","","","html-keyboard-response","105","431774","0.0-105.0","1B047ADF78454F0895C1043A0CDE8017","019dac2f-19bf-7eb5-adf6-30bf3e167bfb","019dac27-289a-77ae-8add-f39f6a4b9bed","","null","
                <div class=""stimulus-container"">
                    <img src=""images/causal_sequence/museum_causal/museum_causal_3.png"" class=""exp-image"">
                    <div class=""question-area""></div> 
                </div>","null","","","","","","","","","","","",""
"","","","","","html-button-response","106","433315","0.0-106.0","1B047ADF78454F0895C1043A0CDE8017","019dac2f-19bf-7eb5-adf6-30bf3e167bfb","019dac27-289a-77ae-8add-f39f6a4b9bed","","1538","
                <div class=""stimulus-container"">
                    <img src=""images/causal_sequence/museum_causal/museum_causal_3.png"" class=""exp-image"">
                    <div class=""question-area"">
                        <p style=""font-size: 20px; font-weight: bold; margin: 0;"">Is there a person in this image?</p>
                    </div>
                </div>","0","main_experiment_trial","3","museum_causal","causal_sequence","chronological","","","","","","",""
"","","","","","html-keyboard-response","107","438318","0.0-107.0","1B047ADF78454F0895C1043A0CDE8017","019dac2f-19bf-7eb5-adf6-30bf3e167bfb","019dac27-289a-77ae-8add-f39f6a4b9bed","","null","
                <div class=""stimulus-container"">
                    <img src=""images/causal_sequence/museum_causal/museum_causal_4.png"" class=""exp-image"">
                    <div class=""question-area""></div> 
                </div>","null","","","","","","","","","","","",""
"","","","","","html-button-response","108","438804","0.0-108.0","1B047ADF78454F0895C1043A0CDE8017","019dac2f-19bf-7eb5-adf6-30bf3e167bfb","019dac27-289a-77ae-8add-f39f6a4b9bed","","484","
                <div class=""stimulus-container"">
                    <img src=""images/causal_sequence/museum_causal/museum_causal_4.png"" class=""exp-image"">
                    <div class=""question-area"">
                        <p style=""font-size: 20px; font-weight: bold; margin: 0;"">Is there a person in this image?</p>
                    </div>
                </div>","1","main_experiment_trial","4","museum_causal","causal_sequence","chronological","","","","","","",""
"","","","","","html-keyboard-response","109","443806","0.0-109.0","1B047ADF78454F0895C1043A0CDE8017","019dac2f-19bf-7eb5-adf6-30bf3e167bfb","019dac27-289a-77ae-8add-f39f6a4b9bed","","null","
                <div class=""stimulus-container"">
                    <img src=""images/causal_sequence/museum_causal/museum_causal_5.png"" class=""exp-image"">
                    <div class=""question-area""></div> 
                </div>","null","","","","","","","","","","","",""
"","","","","","html-button-response","110","444714","0.0-110.0","1B047ADF78454F0895C1043A0CDE8017","019dac2f-19bf-7eb5-adf6-30bf3e167bfb","019dac27-289a-77ae-8add-f39f6a4b9bed","","906","
                <div class=""stimulus-container"">
                    <img src=""images/causal_sequence/museum_causal/museum_causal_5.png"" class=""exp-image"">
                    <div class=""question-area"">
                        <p style=""font-size: 20px; font-weight: bold; margin: 0;"">Is there a person in this image?</p>
                    </div>
                </div>","0","main_experiment_trial","5","museum_causal","causal_sequence","chronological","","","","","","",""
"","","","","","html-keyboard-response","111","449716","0.0-111.0","1B047ADF78454F0895C1043A0CDE8017","019dac2f-19bf-7eb5-adf6-30bf3e167bfb","019dac27-289a-77ae-8add-f39f6a4b9bed","","null","
                <div class=""stimulus-container"">
                    <img src=""images/causal_sequence/museum_causal/museum_causal_6.png"" class=""exp-image"">
                    <div class=""question-area""></div> 
                </div>","null","","","","","","","","","","","",""
"","","","","","html-button-response","112","452032","0.0-112.0","1B047ADF78454F0895C1043A0CDE8017","019dac2f-19bf-7eb5-adf6-30bf3e167bfb","019dac27-289a-77ae-8add-f39f6a4b9bed","","2314","
                <div class=""stimulus-container"">
                    <img src=""images/causal_sequence/museum_causal/museum_causal_6.png"" class=""exp-image"">
                    <div class=""question-area"">
                        <p style=""font-size: 20px; font-weight: bold; margin: 0;"">Is there a person in this image?</p>
                    </div>
                </div>","0","main_experiment_trial","6","museum_causal","causal_sequence","chronological","","","","","","",""
"","","","","","html-keyboard-response","113","457034","0.0-113.0","1B047ADF78454F0895C1043A0CDE8017","019dac2f-19bf-7eb5-adf6-30bf3e167bfb","019dac27-289a-77ae-8add-f39f6a4b9bed","","null","
                <div class=""stimulus-container"">
                    <img src=""images/causal_sequence/museum_causal/museum_causal_7.png"" class=""exp-image"">
                    <div class=""question-area""></div> 
                </div>","null","","","","","","","","","","","",""
"","","","","","html-button-response","114","457748","0.0-114.0","1B047ADF78454F0895C1043A0CDE8017","019dac2f-19bf-7eb5-adf6-30bf3e167bfb","019dac27-289a-77ae-8add-f39f6a4b9bed","","712","
                <div class=""stimulus-container"">
                    <img src=""images/causal_sequence/museum_causal/museum_causal_7.png"" class=""exp-image"">
                    <div class=""question-area"">
                        <p style=""font-size: 20px; font-weight: bold; margin: 0;"">Is there a person in this image?</p>
                    </div>
                </div>","1","main_experiment_trial","7","museum_causal","causal_sequence","chronological","","","","","","",""
"","","","","","html-keyboard-response","115","462751","0.0-115.0","1B047ADF78454F0895C1043A0CDE8017","019dac2f-19bf-7eb5-adf6-30bf3e167bfb","019dac27-289a-77ae-8add-f39f6a4b9bed","","null","
                <div class=""stimulus-container"">
                    <img src=""images/causal_sequence/museum_causal/museum_causal_8.png"" class=""exp-image"">
                    <div class=""question-area""></div> 
                </div>","null","","","","","","","","","","","",""
"","","","","","html-button-response","116","463230","0.0-116.0","1B047ADF78454F0895C1043A0CDE8017","019dac2f-19bf-7eb5-adf6-30bf3e167bfb","019dac27-289a-77ae-8add-f39f6a4b9bed","","477","
                <div class=""stimulus-container"">
                    <img src=""images/causal_sequence/museum_causal/museum_causal_8.png"" class=""exp-image"">
                    <div class=""question-area"">
                        <p style=""font-size: 20px; font-weight: bold; margin: 0;"">Is there a person in this image?</p>
                    </div>
                </div>","0","main_experiment_trial","8","museum_causal","causal_sequence","chronological","","","","","","",""
"","","","","","html-keyboard-response","117","468232","0.0-117.0","1B047ADF78454F0895C1043A0CDE8017","019dac2f-19bf-7eb5-adf6-30bf3e167bfb","019dac27-289a-77ae-8add-f39f6a4b9bed","","null","
                <div class=""stimulus-container"">
                    <img src=""images/causal_sequence/museum_causal/museum_causal_9.png"" class=""exp-image"">
                    <div class=""question-area""></div> 
                </div>","null","","","","","","","","","","","",""
"","","","","","html-button-response","118","469391","0.0-118.0","1B047ADF78454F0895C1043A0CDE8017","019dac2f-19bf-7eb5-adf6-30bf3e167bfb","019dac27-289a-77ae-8add-f39f6a4b9bed","","1157","
                <div class=""stimulus-container"">
                    <img src=""images/causal_sequence/museum_causal/museum_causal_9.png"" class=""exp-image"">
                    <div class=""question-area"">
                        <p style=""font-size: 20px; font-weight: bold; margin: 0;"">Is there a person in this image?</p>
                    </div>
                </div>","1","main_experiment_trial","9","museum_causal","causal_sequence","chronological","","","","","","",""
"","","","","","html-keyboard-response","119","474393","0.0-119.0","1B047ADF78454F0895C1043A0CDE8017","019dac2f-19bf-7eb5-adf6-30bf3e167bfb","019dac27-289a-77ae-8add-f39f6a4b9bed","","null","
                <div class=""stimulus-container"">
                    <img src=""images/causal_sequence/museum_causal/museum_causal_ten.png"" class=""exp-image"">
                    <div class=""question-area""></div> 
                </div>","null","","","","","","","","","","","",""
"","","","","","html-button-response","120","475437","0.0-120.0","1B047ADF78454F0895C1043A0CDE8017","019dac2f-19bf-7eb5-adf6-30bf3e167bfb","019dac27-289a-77ae-8add-f39f6a4b9bed","","1041","
                <div class=""stimulus-container"">
                    <img src=""images/causal_sequence/museum_causal/museum_causal_ten.png"" class=""exp-image"">
                    <div class=""question-area"">
                        <p style=""font-size: 20px; font-weight: bold; margin: 0;"">Is there a person in this image?</p>
                    </div>
                </div>","0","main_experiment_trial","ten","museum_causal","causal_sequence","chronological","","","","","","",""
"","","","","","html-keyboard-response","121","480439","0.0-121.0","1B047ADF78454F0895C1043A0CDE8017","019dac2f-19bf-7eb5-adf6-30bf3e167bfb","019dac27-289a-77ae-8add-f39f6a4b9bed","","null","<div style=""background-color: white; width: 100vw; height: 100vh;""></div>","null","","","","","","","","","","","",""
"","","","","","html-keyboard-response","122","485441","0.0-122.0","1B047ADF78454F0895C1043A0CDE8017","019dac2f-19bf-7eb5-adf6-30bf3e167bfb","019dac27-289a-77ae-8add-f39f6a4b9bed","","null","
                <div class=""stimulus-container"">
                    <img src=""images/causal_sequence/dog_causal/dog_causal_1.png"" class=""exp-image"">
                    <div class=""question-area""></div> 
                </div>","null","","","","","","","","","","","",""
"","","","","","html-button-response","123","486089","0.0-123.0","1B047ADF78454F0895C1043A0CDE8017","019dac2f-19bf-7eb5-adf6-30bf3e167bfb","019dac27-289a-77ae-8add-f39f6a4b9bed","","646","
                <div class=""stimulus-container"">
                    <img src=""images/causal_sequence/dog_causal/dog_causal_1.png"" class=""exp-image"">
                    <div class=""question-area"">
                        <p style=""font-size: 20px; font-weight: bold; margin: 0;"">Is there a person in this image?</p>
                    </div>
                </div>","0","main_experiment_trial","1","dog_causal","causal_sequence","chronological","","","","","","",""
"","","","","","html-keyboard-response","124","491091","0.0-124.0","1B047ADF78454F0895C1043A0CDE8017","019dac2f-19bf-7eb5-adf6-30bf3e167bfb","019dac27-289a-77ae-8add-f39f6a4b9bed","","null","
                <div class=""stimulus-container"">
                    <img src=""images/causal_sequence/dog_causal/dog_causal_2.png"" class=""exp-image"">
                    <div class=""question-area""></div> 
                </div>","null","","","","","","","","","","","",""
"","","","","","html-button-response","125","491804","0.0-125.0","1B047ADF78454F0895C1043A0CDE8017","019dac2f-19bf-7eb5-adf6-30bf3e167bfb","019dac27-289a-77ae-8add-f39f6a4b9bed","","711","
                <div class=""stimulus-container"">
                    <img src=""images/causal_sequence/dog_causal/dog_causal_2.png"" class=""exp-image"">
                    <div class=""question-area"">
                        <p style=""font-size: 20px; font-weight: bold; margin: 0;"">Is there a person in this image?</p>
                    </div>
                </div>","0","main_experiment_trial","2","dog_causal","causal_sequence","chronological","","","","","","",""
"","","","","","html-keyboard-response","126","496806","0.0-126.0","1B047ADF78454F0895C1043A0CDE8017","019dac2f-19bf-7eb5-adf6-30bf3e167bfb","019dac27-289a-77ae-8add-f39f6a4b9bed","","null","
                <div class=""stimulus-container"">
                    <img src=""images/causal_sequence/dog_causal/dog_causal_3.png"" class=""exp-image"">
                    <div class=""question-area""></div> 
                </div>","null","","","","","","","","","","","",""
"","","","","","html-button-response","127","497226","0.0-127.0","1B047ADF78454F0895C1043A0CDE8017","019dac2f-19bf-7eb5-adf6-30bf3e167bfb","019dac27-289a-77ae-8add-f39f6a4b9bed","","417","
                <div class=""stimulus-container"">
                    <img src=""images/causal_sequence/dog_causal/dog_causal_3.png"" class=""exp-image"">
                    <div class=""question-area"">
                        <p style=""font-size: 20px; font-weight: bold; margin: 0;"">Is there a person in this image?</p>
                    </div>
                </div>","0","main_experiment_trial","3","dog_causal","causal_sequence","chronological","","","","","","",""
"","","","","","html-keyboard-response","128","502229","0.0-128.0","1B047ADF78454F0895C1043A0CDE8017","019dac2f-19bf-7eb5-adf6-30bf3e167bfb","019dac27-289a-77ae-8add-f39f6a4b9bed","","null","
                <div class=""stimulus-container"">
                    <img src=""images/causal_sequence/dog_causal/dog_causal_4.png"" class=""exp-image"">
                    <div class=""question-area""></div> 
                </div>","null","","","","","","","","","","","",""
"","","","","","html-button-response","129","502624","0.0-129.0","1B047ADF78454F0895C1043A0CDE8017","019dac2f-19bf-7eb5-adf6-30bf3e167bfb","019dac27-289a-77ae-8add-f39f6a4b9bed","","393","
                <div class=""stimulus-container"">
                    <img src=""images/causal_sequence/dog_causal/dog_causal_4.png"" class=""exp-image"">
                    <div class=""question-area"">
                        <p style=""font-size: 20px; font-weight: bold; margin: 0;"">Is there a person in this image?</p>
                    </div>
                </div>","0","main_experiment_trial","4","dog_causal","causal_sequence","chronological","","","","","","",""
"","","","","","html-keyboard-response","130","507626","0.0-130.0","1B047ADF78454F0895C1043A0CDE8017","019dac2f-19bf-7eb5-adf6-30bf3e167bfb","019dac27-289a-77ae-8add-f39f6a4b9bed","","null","
                <div class=""stimulus-container"">
                    <img src=""images/causal_sequence/dog_causal/dog_causal_5.png"" class=""exp-image"">
                    <div class=""question-area""></div> 
                </div>","null","","","","","","","","","","","",""
"","","","","","html-button-response","131","508772","0.0-131.0","1B047ADF78454F0895C1043A0CDE8017","019dac2f-19bf-7eb5-adf6-30bf3e167bfb","019dac27-289a-77ae-8add-f39f6a4b9bed","","1144","
                <div class=""stimulus-container"">
                    <img src=""images/causal_sequence/dog_causal/dog_causal_5.png"" class=""exp-image"">
                    <div class=""question-area"">
                        <p style=""font-size: 20px; font-weight: bold; margin: 0;"">Is there a person in this image?</p>
                    </div>
                </div>","0","main_experiment_trial","5","dog_causal","causal_sequence","chronological","","","","","","",""
"","","","","","html-keyboard-response","132","513775","0.0-132.0","1B047ADF78454F0895C1043A0CDE8017","019dac2f-19bf-7eb5-adf6-30bf3e167bfb","019dac27-289a-77ae-8add-f39f6a4b9bed","","null","
                <div class=""stimulus-container"">
                    <img src=""images/causal_sequence/dog_causal/dog_causal_6.png"" class=""exp-image"">
                    <div class=""question-area""></div> 
                </div>","null","","","","","","","","","","","",""
"","","","","","html-button-response","133","516011","0.0-133.0","1B047ADF78454F0895C1043A0CDE8017","019dac2f-19bf-7eb5-adf6-30bf3e167bfb","019dac27-289a-77ae-8add-f39f6a4b9bed","","2234","
                <div class=""stimulus-container"">
                    <img src=""images/causal_sequence/dog_causal/dog_causal_6.png"" class=""exp-image"">
                    <div class=""question-area"">
                        <p style=""font-size: 20px; font-weight: bold; margin: 0;"">Is there a person in this image?</p>
                    </div>
                </div>","0","main_experiment_trial","6","dog_causal","causal_sequence","chronological","","","","","","",""
"","","","","","html-keyboard-response","134","521014","0.0-134.0","1B047ADF78454F0895C1043A0CDE8017","019dac2f-19bf-7eb5-adf6-30bf3e167bfb","019dac27-289a-77ae-8add-f39f6a4b9bed","","null","
                <div class=""stimulus-container"">
                    <img src=""images/causal_sequence/dog_causal/dog_causal_7.png"" class=""exp-image"">
                    <div class=""question-area""></div> 
                </div>","null","","","","","","","","","","","",""
"","","","","","html-button-response","135","521551","0.0-135.0","1B047ADF78454F0895C1043A0CDE8017","019dac2f-19bf-7eb5-adf6-30bf3e167bfb","019dac27-289a-77ae-8add-f39f6a4b9bed","","534","
                <div class=""stimulus-container"">
                    <img src=""images/causal_sequence/dog_causal/dog_causal_7.png"" class=""exp-image"">
                    <div class=""question-area"">
                        <p style=""font-size: 20px; font-weight: bold; margin: 0;"">Is there a person in this image?</p>
                    </div>
                </div>","0","main_experiment_trial","7","dog_causal","causal_sequence","chronological","","","","","","",""
"","","","","","html-keyboard-response","136","526553","0.0-136.0","1B047ADF78454F0895C1043A0CDE8017","019dac2f-19bf-7eb5-adf6-30bf3e167bfb","019dac27-289a-77ae-8add-f39f6a4b9bed","","null","
                <div class=""stimulus-container"">
                    <img src=""images/causal_sequence/dog_causal/dog_causal_8.png"" class=""exp-image"">
                    <div class=""question-area""></div> 
                </div>","null","","","","","","","","","","","",""
"","","","","","html-button-response","137","528582","0.0-137.0","1B047ADF78454F0895C1043A0CDE8017","019dac2f-19bf-7eb5-adf6-30bf3e167bfb","019dac27-289a-77ae-8add-f39f6a4b9bed","","2027","
                <div class=""stimulus-container"">
                    <img src=""images/causal_sequence/dog_causal/dog_causal_8.png"" class=""exp-image"">
                    <div class=""question-area"">
                        <p style=""font-size: 20px; font-weight: bold; margin: 0;"">Is there a person in this image?</p>
                    </div>
                </div>","0","main_experiment_trial","8","dog_causal","causal_sequence","chronological","","","","","","",""
"","","","","","html-keyboard-response","138","533584","0.0-138.0","1B047ADF78454F0895C1043A0CDE8017","019dac2f-19bf-7eb5-adf6-30bf3e167bfb","019dac27-289a-77ae-8add-f39f6a4b9bed","","null","
                <div class=""stimulus-container"">
                    <img src=""images/causal_sequence/dog_causal/dog_causal_9.png"" class=""exp-image"">
                    <div class=""question-area""></div> 
                </div>","null","","","","","","","","","","","",""
"","","","","","html-button-response","139","536586","0.0-139.0","1B047ADF78454F0895C1043A0CDE8017","019dac2f-19bf-7eb5-adf6-30bf3e167bfb","019dac27-289a-77ae-8add-f39f6a4b9bed","","null","
                <div class=""stimulus-container"">
                    <img src=""images/causal_sequence/dog_causal/dog_causal_9.png"" class=""exp-image"">
                    <div class=""question-area"">
                        <p style=""font-size: 20px; font-weight: bold; margin: 0;"">Is there a person in this image?</p>
                    </div>
                </div>","null","main_experiment_trial","9","dog_causal","causal_sequence","chronological","","","","","","",""
"","","","","","html-keyboard-response","140","541588","0.0-140.0","1B047ADF78454F0895C1043A0CDE8017","019dac2f-19bf-7eb5-adf6-30bf3e167bfb","019dac27-289a-77ae-8add-f39f6a4b9bed","","null","
                <div class=""stimulus-container"">
                    <img src=""images/causal_sequence/dog_causal/dog_causal_ten.png"" class=""exp-image"">
                    <div class=""question-area""></div> 
                </div>","null","","","","","","","","","","","",""
"","","","","","html-button-response","141","544043","0.0-141.0","1B047ADF78454F0895C1043A0CDE8017","019dac2f-19bf-7eb5-adf6-30bf3e167bfb","019dac27-289a-77ae-8add-f39f6a4b9bed","","2453","
                <div class=""stimulus-container"">
                    <img src=""images/causal_sequence/dog_causal/dog_causal_ten.png"" class=""exp-image"">
                    <div class=""question-area"">
                        <p style=""font-size: 20px; font-weight: bold; margin: 0;"">Is there a person in this image?</p>
                    </div>
                </div>","0","main_experiment_trial","ten","dog_causal","causal_sequence","chronological","","","","","","",""
"","","","","","html-keyboard-response","142","549045","0.0-142.0","1B047ADF78454F0895C1043A0CDE8017","019dac2f-19bf-7eb5-adf6-30bf3e167bfb","019dac27-289a-77ae-8add-f39f6a4b9bed","","null","<div style=""background-color: white; width: 100vw; height: 100vh;""></div>","null","","","","","","","","","","","",""
"","","","","","html-keyboard-response","143","554047","0.0-143.0","1B047ADF78454F0895C1043A0CDE8017","019dac2f-19bf-7eb5-adf6-30bf3e167bfb","019dac27-289a-77ae-8add-f39f6a4b9bed","","null","
                <div class=""stimulus-container"">
                    <img src=""images/causal_sequence/saving_a_cat_causal/saving_a_cat_causal_1.png"" class=""exp-image"">
                    <div class=""question-area""></div> 
                </div>","null","","","","","","","","","","","",""
"","","","","","html-button-response","144","557050","0.0-144.0","1B047ADF78454F0895C1043A0CDE8017","019dac2f-19bf-7eb5-adf6-30bf3e167bfb","019dac27-289a-77ae-8add-f39f6a4b9bed","","null","
                <div class=""stimulus-container"">
                    <img src=""images/causal_sequence/saving_a_cat_causal/saving_a_cat_causal_1.png"" class=""exp-image"">
                    <div class=""question-area"">
                        <p style=""font-size: 20px; font-weight: bold; margin: 0;"">Is there a person in this image?</p>
                    </div>
                </div>","null","main_experiment_trial","1","saving_a_cat_causal","causal_sequence","chronological","","","","","","",""
"","","","","","html-keyboard-response","145","562052","0.0-145.0","1B047ADF78454F0895C1043A0CDE8017","019dac2f-19bf-7eb5-adf6-30bf3e167bfb","019dac27-289a-77ae-8add-f39f6a4b9bed","","null","
                <div class=""stimulus-container"">
                    <img src=""images/causal_sequence/saving_a_cat_causal/saving_a_cat_causal_2.png"" class=""exp-image"">
                    <div class=""question-area""></div> 
                </div>","null","","","","","","","","","","","",""
"","","","","","html-button-response","146","565054","0.0-146.0","1B047ADF78454F0895C1043A0CDE8017","019dac2f-19bf-7eb5-adf6-30bf3e167bfb","019dac27-289a-77ae-8add-f39f6a4b9bed","","null","
                <div class=""stimulus-container"">
                    <img src=""images/causal_sequence/saving_a_cat_causal/saving_a_cat_causal_2.png"" class=""exp-image"">
                    <div class=""question-area"">
                        <p style=""font-size: 20px; font-weight: bold; margin: 0;"">Is there a person in this image?</p>
                    </div>
                </div>","null","main_experiment_trial","2","saving_a_cat_causal","causal_sequence","chronological","","","","","","",""
"","","","","","html-keyboard-response","147","570056","0.0-147.0","1B047ADF78454F0895C1043A0CDE8017","019dac2f-19bf-7eb5-adf6-30bf3e167bfb","019dac27-289a-77ae-8add-f39f6a4b9bed","","null","
                <div class=""stimulus-container"">
                    <img src=""images/causal_sequence/saving_a_cat_causal/saving_a_cat_causal_3.png"" class=""exp-image"">
                    <div class=""question-area""></div> 
                </div>","null","","","","","","","","","","","",""
"","","","","","html-button-response","148","571654","0.0-148.0","1B047ADF78454F0895C1043A0CDE8017","019dac2f-19bf-7eb5-adf6-30bf3e167bfb","019dac27-289a-77ae-8add-f39f6a4b9bed","","1595","
                <div class=""stimulus-container"">
                    <img src=""images/causal_sequence/saving_a_cat_causal/saving_a_cat_causal_3.png"" class=""exp-image"">
                    <div class=""question-area"">
                        <p style=""font-size: 20px; font-weight: bold; margin: 0;"">Is there a person in this image?</p>
                    </div>
                </div>","0","main_experiment_trial","3","saving_a_cat_causal","causal_sequence","chronological","","","","","","",""
"","","","","","html-keyboard-response","149","576656","0.0-149.0","1B047ADF78454F0895C1043A0CDE8017","019dac2f-19bf-7eb5-adf6-30bf3e167bfb","019dac27-289a-77ae-8add-f39f6a4b9bed","","null","
                <div class=""stimulus-container"">
                    <img src=""images/causal_sequence/saving_a_cat_causal/saving_a_cat_causal_4.png"" class=""exp-image"">
                    <div class=""question-area""></div> 
                </div>","null","","","","","","","","","","","",""
"","","","","","html-button-response","150","579659","0.0-150.0","1B047ADF78454F0895C1043A0CDE8017","019dac2f-19bf-7eb5-adf6-30bf3e167bfb","019dac27-289a-77ae-8add-f39f6a4b9bed","","null","
                <div class=""stimulus-container"">
                    <img src=""images/causal_sequence/saving_a_cat_causal/saving_a_cat_causal_4.png"" class=""exp-image"">
                    <div class=""question-area"">
                        <p style=""font-size: 20px; font-weight: bold; margin: 0;"">Is there a person in this image?</p>
                    </div>
                </div>","null","main_experiment_trial","4","saving_a_cat_causal","causal_sequence","chronological","","","","","","",""
"","","","","","html-keyboard-response","151","584660","0.0-151.0","1B047ADF78454F0895C1043A0CDE8017","019dac2f-19bf-7eb5-adf6-30bf3e167bfb","019dac27-289a-77ae-8add-f39f6a4b9bed","","null","
                <div class=""stimulus-container"">
                    <img src=""images/causal_sequence/saving_a_cat_causal/saving_a_cat_causal_5.png"" class=""exp-image"">
                    <div class=""question-area""></div> 
                </div>","null","","","","","","","","","","","",""
"","","","","","html-button-response","152","585766","0.0-152.0","1B047ADF78454F0895C1043A0CDE8017","019dac2f-19bf-7eb5-adf6-30bf3e167bfb","019dac27-289a-77ae-8add-f39f6a4b9bed","","1104","
                <div class=""stimulus-container"">
                    <img src=""images/causal_sequence/saving_a_cat_causal/saving_a_cat_causal_5.png"" class=""exp-image"">
                    <div class=""question-area"">
                        <p style=""font-size: 20px; font-weight: bold; margin: 0;"">Is there a person in this image?</p>
                    </div>
                </div>","0","main_experiment_trial","5","saving_a_cat_causal","causal_sequence","chronological","","","","","","",""
"","","","","","html-keyboard-response","153","590769","0.0-153.0","1B047ADF78454F0895C1043A0CDE8017","019dac2f-19bf-7eb5-adf6-30bf3e167bfb","019dac27-289a-77ae-8add-f39f6a4b9bed","","null","
                <div class=""stimulus-container"">
                    <img src=""images/causal_sequence/saving_a_cat_causal/saving_a_cat_causal_6.png"" class=""exp-image"">
                    <div class=""question-area""></div> 
                </div>","null","","","","","","","","","","","",""
"","","","","","html-button-response","154","593772","0.0-154.0","1B047ADF78454F0895C1043A0CDE8017","019dac2f-19bf-7eb5-adf6-30bf3e167bfb","019dac27-289a-77ae-8add-f39f6a4b9bed","","null","
                <div class=""stimulus-container"">
                    <img src=""images/causal_sequence/saving_a_cat_causal/saving_a_cat_causal_6.png"" class=""exp-image"">
                    <div class=""question-area"">
                        <p style=""font-size: 20px; font-weight: bold; margin: 0;"">Is there a person in this image?</p>
                    </div>
                </div>","null","main_experiment_trial","6","saving_a_cat_causal","causal_sequence","chronological","","","","","","",""
"","","","","","html-keyboard-response","155","598774","0.0-155.0","1B047ADF78454F0895C1043A0CDE8017","019dac2f-19bf-7eb5-adf6-30bf3e167bfb","019dac27-289a-77ae-8add-f39f6a4b9bed","","null","
                <div class=""stimulus-container"">
                    <img src=""images/causal_sequence/saving_a_cat_causal/saving_a_cat_causal_7.png"" class=""exp-image"">
                    <div class=""question-area""></div> 
                </div>","null","","","","","","","","","","","",""
"","","","","","html-button-response","156","601039","0.0-156.0","1B047ADF78454F0895C1043A0CDE8017","019dac2f-19bf-7eb5-adf6-30bf3e167bfb","019dac27-289a-77ae-8add-f39f6a4b9bed","","2263","
                <div class=""stimulus-container"">
                    <img src=""images/causal_sequence/saving_a_cat_causal/saving_a_cat_causal_7.png"" class=""exp-image"">
                    <div class=""question-area"">
                        <p style=""font-size: 20px; font-weight: bold; margin: 0;"">Is there a person in this image?</p>
                    </div>
                </div>","0","main_experiment_trial","7","saving_a_cat_causal","causal_sequence","chronological","","","","","","",""
"","","","","","html-keyboard-response","157","606042","0.0-157.0","1B047ADF78454F0895C1043A0CDE8017","019dac2f-19bf-7eb5-adf6-30bf3e167bfb","019dac27-289a-77ae-8add-f39f6a4b9bed","","null","
                <div class=""stimulus-container"">
                    <img src=""images/causal_sequence/saving_a_cat_causal/saving_a_cat_causal_8.png"" class=""exp-image"">
                    <div class=""question-area""></div> 
                </div>","null","","","","","","","","","","","",""
"","","","","","html-button-response","158","606673","0.0-158.0","1B047ADF78454F0895C1043A0CDE8017","019dac2f-19bf-7eb5-adf6-30bf3e167bfb","019dac27-289a-77ae-8add-f39f6a4b9bed","","629","
                <div class=""stimulus-container"">
                    <img src=""images/causal_sequence/saving_a_cat_causal/saving_a_cat_causal_8.png"" class=""exp-image"">
                    <div class=""question-area"">
                        <p style=""font-size: 20px; font-weight: bold; margin: 0;"">Is there a person in this image?</p>
                    </div>
                </div>","0","main_experiment_trial","8","saving_a_cat_causal","causal_sequence","chronological","","","","","","",""
"","","","","","html-keyboard-response","159","611674","0.0-159.0","1B047ADF78454F0895C1043A0CDE8017","019dac2f-19bf-7eb5-adf6-30bf3e167bfb","019dac27-289a-77ae-8add-f39f6a4b9bed","","null","
                <div class=""stimulus-container"">
                    <img src=""images/causal_sequence/saving_a_cat_causal/saving_a_cat_causal_9.png"" class=""exp-image"">
                    <div class=""question-area""></div> 
                </div>","null","","","","","","","","","","","",""
"","","","","","html-button-response","160","612619","0.0-160.0","1B047ADF78454F0895C1043A0CDE8017","019dac2f-19bf-7eb5-adf6-30bf3e167bfb","019dac27-289a-77ae-8add-f39f6a4b9bed","","943","
                <div class=""stimulus-container"">
                    <img src=""images/causal_sequence/saving_a_cat_causal/saving_a_cat_causal_9.png"" class=""exp-image"">
                    <div class=""question-area"">
                        <p style=""font-size: 20px; font-weight: bold; margin: 0;"">Is there a person in this image?</p>
                    </div>
                </div>","0","main_experiment_trial","9","saving_a_cat_causal","causal_sequence","chronological","","","","","","",""
"","","","","","html-keyboard-response","161","617622","0.0-161.0","1B047ADF78454F0895C1043A0CDE8017","019dac2f-19bf-7eb5-adf6-30bf3e167bfb","019dac27-289a-77ae-8add-f39f6a4b9bed","","null","
                <div class=""stimulus-container"">
                    <img src=""images/causal_sequence/saving_a_cat_causal/saving_a_cat_causal_ten.png"" class=""exp-image"">
                    <div class=""question-area""></div> 
                </div>","null","","","","","","","","","","","",""
"","","","","","html-button-response","162","618335","0.0-162.0","1B047ADF78454F0895C1043A0CDE8017","019dac2f-19bf-7eb5-adf6-30bf3e167bfb","019dac27-289a-77ae-8add-f39f6a4b9bed","","711","
                <div class=""stimulus-container"">
                    <img src=""images/causal_sequence/saving_a_cat_causal/saving_a_cat_causal_ten.png"" class=""exp-image"">
                    <div class=""question-area"">
                        <p style=""font-size: 20px; font-weight: bold; margin: 0;"">Is there a person in this image?</p>
                    </div>
                </div>","0","main_experiment_trial","ten","saving_a_cat_causal","causal_sequence","chronological","","","","","","",""
"","","","","","html-keyboard-response","163","623337","0.0-163.0","1B047ADF78454F0895C1043A0CDE8017","019dac2f-19bf-7eb5-adf6-30bf3e167bfb","019dac27-289a-77ae-8add-f39f6a4b9bed","","null","<div style=""background-color: white; width: 100vw; height: 100vh;""></div>","null","","","","","","","","","","","",""
"","","","","","html-keyboard-response","164","628339","0.0-164.0","1B047ADF78454F0895C1043A0CDE8017","019dac2f-19bf-7eb5-adf6-30bf3e167bfb","019dac27-289a-77ae-8add-f39f6a4b9bed","","null","
                <div class=""stimulus-container"">
                    <img src=""images/semantic_sequence/kitchen_operations_semantic/kitchen_operations_semantic_1.png"" class=""exp-image"">
                    <div class=""question-area""></div> 
                </div>","null","","","","","","","","","","","",""
"","","","","","html-button-response","165","629131","0.0-165.0","1B047ADF78454F0895C1043A0CDE8017","019dac2f-19bf-7eb5-adf6-30bf3e167bfb","019dac27-289a-77ae-8add-f39f6a4b9bed","","790","
                <div class=""stimulus-container"">
                    <img src=""images/semantic_sequence/kitchen_operations_semantic/kitchen_operations_semantic_1.png"" class=""exp-image"">
                    <div class=""question-area"">
                        <p style=""font-size: 20px; font-weight: bold; margin: 0;"">Is there a person in this image?</p>
                    </div>
                </div>","0","main_experiment_trial","1","kitchen_operations_semantic","semantic_sequence","chronological","","","","","","",""
"","","","","","html-keyboard-response","166","634133","0.0-166.0","1B047ADF78454F0895C1043A0CDE8017","019dac2f-19bf-7eb5-adf6-30bf3e167bfb","019dac27-289a-77ae-8add-f39f6a4b9bed","","null","
                <div class=""stimulus-container"">
                    <img src=""images/semantic_sequence/kitchen_operations_semantic/kitchen_operations_semantic_2.png"" class=""exp-image"">
                    <div class=""question-area""></div> 
                </div>","null","","","","","","","","","","","",""
"","","","","","html-button-response","167","635948","0.0-167.0","1B047ADF78454F0895C1043A0CDE8017","019dac2f-19bf-7eb5-adf6-30bf3e167bfb","019dac27-289a-77ae-8add-f39f6a4b9bed","","1813","
                <div class=""stimulus-container"">
                    <img src=""images/semantic_sequence/kitchen_operations_semantic/kitchen_operations_semantic_2.png"" class=""exp-image"">
                    <div class=""question-area"">
                        <p style=""font-size: 20px; font-weight: bold; margin: 0;"">Is there a person in this image?</p>
                    </div>
                </div>","0","main_experiment_trial","2","kitchen_operations_semantic","semantic_sequence","chronological","","","","","","",""
"","","","","","html-keyboard-response","168","640950","0.0-168.0","1B047ADF78454F0895C1043A0CDE8017","019dac2f-19bf-7eb5-adf6-30bf3e167bfb","019dac27-289a-77ae-8add-f39f6a4b9bed","","null","
                <div class=""stimulus-container"">
                    <img src=""images/semantic_sequence/kitchen_operations_semantic/kitchen_operations_semantic_3.png"" class=""exp-image"">
                    <div class=""question-area""></div> 
                </div>","null","","","","","","","","","","","",""
"","","","","","html-button-response","169","641551","0.0-169.0","1B047ADF78454F0895C1043A0CDE8017","019dac2f-19bf-7eb5-adf6-30bf3e167bfb","019dac27-289a-77ae-8add-f39f6a4b9bed","","599","
                <div class=""stimulus-container"">
                    <img src=""images/semantic_sequence/kitchen_operations_semantic/kitchen_operations_semantic_3.png"" class=""exp-image"">
                    <div class=""question-area"">
                        <p style=""font-size: 20px; font-weight: bold; margin: 0;"">Is there a person in this image?</p>
                    </div>
                </div>","0","main_experiment_trial","3","kitchen_operations_semantic","semantic_sequence","chronological","","","","","","",""
"","","","","","html-keyboard-response","170","646554","0.0-170.0","1B047ADF78454F0895C1043A0CDE8017","019dac2f-19bf-7eb5-adf6-30bf3e167bfb","019dac27-289a-77ae-8add-f39f6a4b9bed","","null","
                <div class=""stimulus-container"">
                    <img src=""images/semantic_sequence/kitchen_operations_semantic/kitchen_operations_semantic_4.png"" class=""exp-image"">
                    <div class=""question-area""></div> 
                </div>","null","","","","","","","","","","","",""
"","","","","","html-button-response","171","647637","0.0-171.0","1B047ADF78454F0895C1043A0CDE8017","019dac2f-19bf-7eb5-adf6-30bf3e167bfb","019dac27-289a-77ae-8add-f39f6a4b9bed","","1081","
                <div class=""stimulus-container"">
                    <img src=""images/semantic_sequence/kitchen_operations_semantic/kitchen_operations_semantic_4.png"" class=""exp-image"">
                    <div class=""question-area"">
                        <p style=""font-size: 20px; font-weight: bold; margin: 0;"">Is there a person in this image?</p>
                    </div>
                </div>","0","main_experiment_trial","4","kitchen_operations_semantic","semantic_sequence","chronological","","","","","","",""
"","","","","","html-keyboard-response","172","652639","0.0-172.0","1B047ADF78454F0895C1043A0CDE8017","019dac2f-19bf-7eb5-adf6-30bf3e167bfb","019dac27-289a-77ae-8add-f39f6a4b9bed","","null","
                <div class=""stimulus-container"">
                    <img src=""images/semantic_sequence/kitchen_operations_semantic/kitchen_operations_semantic_5.png"" class=""exp-image"">
                    <div class=""question-area""></div> 
                </div>","null","","","","","","","","","","","",""
"","","","","","html-button-response","173","653789","0.0-173.0","1B047ADF78454F0895C1043A0CDE8017","019dac2f-19bf-7eb5-adf6-30bf3e167bfb","019dac27-289a-77ae-8add-f39f6a4b9bed","","1147","
                <div class=""stimulus-container"">
                    <img src=""images/semantic_sequence/kitchen_operations_semantic/kitchen_operations_semantic_5.png"" class=""exp-image"">
                    <div class=""question-area"">
                        <p style=""font-size: 20px; font-weight: bold; margin: 0;"">Is there a person in this image?</p>
                    </div>
                </div>","0","main_experiment_trial","5","kitchen_operations_semantic","semantic_sequence","chronological","","","","","","",""
"","","","","","html-keyboard-response","174","658791","0.0-174.0","1B047ADF78454F0895C1043A0CDE8017","019dac2f-19bf-7eb5-adf6-30bf3e167bfb","019dac27-289a-77ae-8add-f39f6a4b9bed","","null","
                <div class=""stimulus-container"">
                    <img src=""images/semantic_sequence/kitchen_operations_semantic/kitchen_operations_semantic_6.png"" class=""exp-image"">
                    <div class=""question-area""></div> 
                </div>","null","","","","","","","","","","","",""
"","","","","","html-button-response","175","659256","0.0-175.0","1B047ADF78454F0895C1043A0CDE8017","019dac2f-19bf-7eb5-adf6-30bf3e167bfb","019dac27-289a-77ae-8add-f39f6a4b9bed","","463","
                <div class=""stimulus-container"">
                    <img src=""images/semantic_sequence/kitchen_operations_semantic/kitchen_operations_semantic_6.png"" class=""exp-image"">
                    <div class=""question-area"">
                        <p style=""font-size: 20px; font-weight: bold; margin: 0;"">Is there a person in this image?</p>
                    </div>
                </div>","0","main_experiment_trial","6","kitchen_operations_semantic","semantic_sequence","chronological","","","","","","",""
"","","","","","html-keyboard-response","176","664259","0.0-176.0","1B047ADF78454F0895C1043A0CDE8017","019dac2f-19bf-7eb5-adf6-30bf3e167bfb","019dac27-289a-77ae-8add-f39f6a4b9bed","","null","
                <div class=""stimulus-container"">
                    <img src=""images/semantic_sequence/kitchen_operations_semantic/kitchen_operations_semantic_7.png"" class=""exp-image"">
                    <div class=""question-area""></div> 
                </div>","null","","","","","","","","","","","",""
