"success","timeout","failed_images","failed_audio","failed_video","trial_type","trial_index","time_elapsed","internal_node_id","subject_id","study_id","session_id","view_history","rt","stimulus","response","task","image_index","folder","sequence_type","valuable_image_index","reward_type","chosen_image_index","target_X","correct_choice"
"true","false","[]","[]","[]","preload","0","190976","0.0-0.0","F20D7FCDB2374DD293DD54C659A02DA1","019cf7c0-db29-7072-bede-130be3aae75a","019cf7bd-52b9-7f96-9138-a5960b400b31","","","","","","","","","","","","",""
"","","","","","instructions","1","197585","0.0-1.0","F20D7FCDB2374DD293DD54C659A02DA1","019cf7c0-db29-7072-bede-130be3aae75a","019cf7bd-52b9-7f96-9138-a5960b400b31","[{""page_index"":0,""viewing_time"":6609}]","6609","","","","","","","","","","",""
"","","","","","instructions","2","212121","0.0-2.0","F20D7FCDB2374DD293DD54C659A02DA1","019cf7c0-db29-7072-bede-130be3aae75a","019cf7bd-52b9-7f96-9138-a5960b400b31","[{""page_index"":0,""viewing_time"":14535}]","14535","","","","","","","","","","",""
"true","","","","","fullscreen","3","214342","0.0-3.0","F20D7FCDB2374DD293DD54C659A02DA1","019cf7c0-db29-7072-bede-130be3aae75a","019cf7bd-52b9-7f96-9138-a5960b400b31","","1216","","","","","","","","","","",""
"","","","","","instructions","4","217982","0.0-4.0","F20D7FCDB2374DD293DD54C659A02DA1","019cf7c0-db29-7072-bede-130be3aae75a","019cf7bd-52b9-7f96-9138-a5960b400b31","[{""page_index"":0,""viewing_time"":3639}]","3640","","","","","","","","","","",""
"","","","","","instructions","5","222097","0.0-5.0","F20D7FCDB2374DD293DD54C659A02DA1","019cf7c0-db29-7072-bede-130be3aae75a","019cf7bd-52b9-7f96-9138-a5960b400b31","[{""page_index"":0,""viewing_time"":4114}]","4115","","","","","","","","","","",""
"","","","","","html-keyboard-response","6","226114","0.0-6.0","F20D7FCDB2374DD293DD54C659A02DA1","019cf7c0-db29-7072-bede-130be3aae75a","019cf7bd-52b9-7f96-9138-a5960b400b31","","null","
                <div class=""stimulus-container"">
                    <img src=""images/instructions/movie_1.png"" class=""exp-image"">
                    <div class=""question-area""></div> 
                </div>","null","","","","","","","","",""
"","","","","","html-button-response","7","227434","0.0-7.0","F20D7FCDB2374DD293DD54C659A02DA1","019cf7c0-db29-7072-bede-130be3aae75a","019cf7bd-52b9-7f96-9138-a5960b400b31","","1320","
                <div class=""stimulus-container"">
                    <img src=""images/instructions/movie_1.png"" class=""exp-image"">
                    <div class=""question-area"">
                        <p style=""font-size: 20px; font-weight: bold; margin: 0;"">Was there a person in this image?</p>
                    </div>
                </div>","0","example_question","1","","","","","","",""
"","","","","","html-keyboard-response","8","231436","0.0-8.0","F20D7FCDB2374DD293DD54C659A02DA1","019cf7c0-db29-7072-bede-130be3aae75a","019cf7bd-52b9-7f96-9138-a5960b400b31","","null","
                <div class=""stimulus-container"">
                    <img src=""images/instructions/movie_2.png"" class=""exp-image"">
                    <div class=""question-area""></div> 
                </div>","null","","","","","","","","",""
"","","","","","html-button-response","9","232550","0.0-9.0","F20D7FCDB2374DD293DD54C659A02DA1","019cf7c0-db29-7072-bede-130be3aae75a","019cf7bd-52b9-7f96-9138-a5960b400b31","","1113","
                <div class=""stimulus-container"">
                    <img src=""images/instructions/movie_2.png"" class=""exp-image"">
                    <div class=""question-area"">
                        <p style=""font-size: 20px; font-weight: bold; margin: 0;"">Was there a person in this image?</p>
                    </div>
                </div>","1","example_question","2","","","","","","",""
"","","","","","html-keyboard-response","10","236552","0.0-10.0","F20D7FCDB2374DD293DD54C659A02DA1","019cf7c0-db29-7072-bede-130be3aae75a","019cf7bd-52b9-7f96-9138-a5960b400b31","","null","
                <div class=""stimulus-container"">
                    <img src=""images/instructions/movie_3.png"" class=""exp-image"">
                    <div class=""question-area""></div> 
                </div>","null","","","","","","","","",""
"","","","","","html-button-response","11","237741","0.0-11.0","F20D7FCDB2374DD293DD54C659A02DA1","019cf7c0-db29-7072-bede-130be3aae75a","019cf7bd-52b9-7f96-9138-a5960b400b31","","1188","
                <div class=""stimulus-container"">
                    <img src=""images/instructions/movie_3.png"" class=""exp-image"">
                    <div class=""question-area"">
                        <p style=""font-size: 20px; font-weight: bold; margin: 0;"">Was there a person in this image?</p>
                    </div>
                </div>","0","example_question","3","","","","","","",""
"","","","","","html-keyboard-response","12","241753","0.0-12.0","F20D7FCDB2374DD293DD54C659A02DA1","019cf7c0-db29-7072-bede-130be3aae75a","019cf7bd-52b9-7f96-9138-a5960b400b31","","null","
                <div class=""stimulus-container"">
                    <img src=""images/instructions/movie_4.png"" class=""exp-image"">
                    <div class=""question-area""></div> 
                </div>","null","","","","","","","","",""
"","","","","","html-button-response","13","242525","0.0-13.0","F20D7FCDB2374DD293DD54C659A02DA1","019cf7c0-db29-7072-bede-130be3aae75a","019cf7bd-52b9-7f96-9138-a5960b400b31","","771","
                <div class=""stimulus-container"">
                    <img src=""images/instructions/movie_4.png"" class=""exp-image"">
                    <div class=""question-area"">
                        <p style=""font-size: 20px; font-weight: bold; margin: 0;"">Was there a person in this image?</p>
                    </div>
                </div>","0","example_question","4","","","","","","",""
"","","","","","instructions","14","243896","0.0-14.0","F20D7FCDB2374DD293DD54C659A02DA1","019cf7c0-db29-7072-bede-130be3aae75a","019cf7bd-52b9-7f96-9138-a5960b400b31","[{""page_index"":0,""viewing_time"":1371}]","1371","","","","","","","","","","",""
"","","","","","instructions","15","245747","0.0-15.0","F20D7FCDB2374DD293DD54C659A02DA1","019cf7c0-db29-7072-bede-130be3aae75a","019cf7bd-52b9-7f96-9138-a5960b400b31","[{""page_index"":0,""viewing_time"":1850}]","1850","","","","","","","","","","",""
"","","","","","html-keyboard-response","16","246754","0.0-16.0","F20D7FCDB2374DD293DD54C659A02DA1","019cf7c0-db29-7072-bede-130be3aae75a","019cf7bd-52b9-7f96-9138-a5960b400b31","","null","<div style=""background-color: white; width: 100vw; height: 100vh;""></div>","null","","","","","","","","",""
"","","","","","html-keyboard-response","17","251770","0.0-17.0","F20D7FCDB2374DD293DD54C659A02DA1","019cf7c0-db29-7072-bede-130be3aae75a","019cf7bd-52b9-7f96-9138-a5960b400b31","","null","
                <div class=""stimulus-container"">
                    <img src=""images/schematic_sequence/flight_scheme/flight_scheme_1.png"" class=""exp-image"">
                    <div class=""question-area""></div> 
                </div>","null","","","","","","","","",""
"","","","","","html-button-response","18","254067","0.0-18.0","F20D7FCDB2374DD293DD54C659A02DA1","019cf7c0-db29-7072-bede-130be3aae75a","019cf7bd-52b9-7f96-9138-a5960b400b31","","2297","
                <div class=""stimulus-container"">
                    <img src=""images/schematic_sequence/flight_scheme/flight_scheme_1.png"" class=""exp-image"">
                    <div class=""question-area"">
                        <p style=""font-size: 20px; font-weight: bold; margin: 0;"">Is there a person in this image?</p>
                    </div>
                </div>","0","main_experiment_trial","1","flight_scheme","schematic_sequence","","","","",""
"","","","","","html-keyboard-response","19","259070","0.0-19.0","F20D7FCDB2374DD293DD54C659A02DA1","019cf7c0-db29-7072-bede-130be3aae75a","019cf7bd-52b9-7f96-9138-a5960b400b31","","null","
                <div class=""stimulus-container"">
                    <img src=""images/schematic_sequence/flight_scheme/flight_scheme_2.png"" class=""exp-image"">
                    <div class=""question-area""></div> 
                </div>","null","","","","","","","","",""
"","","","","","html-button-response","20","259748","0.0-20.0","F20D7FCDB2374DD293DD54C659A02DA1","019cf7c0-db29-7072-bede-130be3aae75a","019cf7bd-52b9-7f96-9138-a5960b400b31","","678","
                <div class=""stimulus-container"">
                    <img src=""images/schematic_sequence/flight_scheme/flight_scheme_2.png"" class=""exp-image"">
                    <div class=""question-area"">
                        <p style=""font-size: 20px; font-weight: bold; margin: 0;"">Is there a person in this image?</p>
                    </div>
                </div>","1","main_experiment_trial","2","flight_scheme","schematic_sequence","","","","",""
"","","","","","html-keyboard-response","21","264749","0.0-21.0","F20D7FCDB2374DD293DD54C659A02DA1","019cf7c0-db29-7072-bede-130be3aae75a","019cf7bd-52b9-7f96-9138-a5960b400b31","","null","
                <div class=""stimulus-container"">
                    <img src=""images/schematic_sequence/flight_scheme/flight_scheme_3.png"" class=""exp-image"">
                    <div class=""question-area""></div> 
                </div>","null","","","","","","","","",""
"","","","","","html-button-response","22","266280","0.0-22.0","F20D7FCDB2374DD293DD54C659A02DA1","019cf7c0-db29-7072-bede-130be3aae75a","019cf7bd-52b9-7f96-9138-a5960b400b31","","1530","
                <div class=""stimulus-container"">
                    <img src=""images/schematic_sequence/flight_scheme/flight_scheme_3.png"" class=""exp-image"">
                    <div class=""question-area"">
                        <p style=""font-size: 20px; font-weight: bold; margin: 0;"">Is there a person in this image?</p>
                    </div>
                </div>","0","main_experiment_trial","3","flight_scheme","schematic_sequence","","","","",""
"","","","","","html-keyboard-response","23","271286","0.0-23.0","F20D7FCDB2374DD293DD54C659A02DA1","019cf7c0-db29-7072-bede-130be3aae75a","019cf7bd-52b9-7f96-9138-a5960b400b31","","null","
                <div class=""stimulus-container"">
                    <img src=""images/schematic_sequence/flight_scheme/flight_scheme_4.png"" class=""exp-image"">
                    <div class=""question-area""></div> 
                </div>","null","","","","","","","","",""
"","","","","","html-button-response","24","272133","0.0-24.0","F20D7FCDB2374DD293DD54C659A02DA1","019cf7c0-db29-7072-bede-130be3aae75a","019cf7bd-52b9-7f96-9138-a5960b400b31","","846","
                <div class=""stimulus-container"">
                    <img src=""images/schematic_sequence/flight_scheme/flight_scheme_4.png"" class=""exp-image"">
                    <div class=""question-area"">
                        <p style=""font-size: 20px; font-weight: bold; margin: 0;"">Is there a person in this image?</p>
                    </div>
                </div>","0","main_experiment_trial","4","flight_scheme","schematic_sequence","","","","",""
"","","","","","html-keyboard-response","25","277143","0.0-25.0","F20D7FCDB2374DD293DD54C659A02DA1","019cf7c0-db29-7072-bede-130be3aae75a","019cf7bd-52b9-7f96-9138-a5960b400b31","","null","
                <div class=""stimulus-container"">
                    <img src=""images/schematic_sequence/flight_scheme/flight_scheme_5.png"" class=""exp-image"">
                    <div class=""question-area""></div> 
                </div>","null","","","","","","","","",""
"","","","","","html-button-response","26","278289","0.0-26.0","F20D7FCDB2374DD293DD54C659A02DA1","019cf7c0-db29-7072-bede-130be3aae75a","019cf7bd-52b9-7f96-9138-a5960b400b31","","1145","
                <div class=""stimulus-container"">
                    <img src=""images/schematic_sequence/flight_scheme/flight_scheme_5.png"" class=""exp-image"">
                    <div class=""question-area"">
                        <p style=""font-size: 20px; font-weight: bold; margin: 0;"">Is there a person in this image?</p>
                    </div>
                </div>","0","main_experiment_trial","5","flight_scheme","schematic_sequence","","","","",""
"","","","","","html-keyboard-response","27","283291","0.0-27.0","F20D7FCDB2374DD293DD54C659A02DA1","019cf7c0-db29-7072-bede-130be3aae75a","019cf7bd-52b9-7f96-9138-a5960b400b31","","null","
                <div class=""stimulus-container"">
                    <img src=""images/schematic_sequence/flight_scheme/flight_scheme_6.png"" class=""exp-image"">
                    <div class=""question-area""></div> 
                </div>","null","","","","","","","","",""
"","","","","","html-button-response","28","286293","0.0-28.0","F20D7FCDB2374DD293DD54C659A02DA1","019cf7c0-db29-7072-bede-130be3aae75a","019cf7bd-52b9-7f96-9138-a5960b400b31","","null","
                <div class=""stimulus-container"">
                    <img src=""images/schematic_sequence/flight_scheme/flight_scheme_6.png"" class=""exp-image"">
                    <div class=""question-area"">
                        <p style=""font-size: 20px; font-weight: bold; margin: 0;"">Is there a person in this image?</p>
                    </div>
                </div>","null","main_experiment_trial","6","flight_scheme","schematic_sequence","","","","",""
"","","","","","html-keyboard-response","29","291298","0.0-29.0","F20D7FCDB2374DD293DD54C659A02DA1","019cf7c0-db29-7072-bede-130be3aae75a","019cf7bd-52b9-7f96-9138-a5960b400b31","","null","
                <div class=""stimulus-container"">
                    <img src=""images/schematic_sequence/flight_scheme/flight_scheme_7.png"" class=""exp-image"">
                    <div class=""question-area""></div> 
                </div>","null","","","","","","","","",""
"","","","","","html-button-response","30","291995","0.0-30.0","F20D7FCDB2374DD293DD54C659A02DA1","019cf7c0-db29-7072-bede-130be3aae75a","019cf7bd-52b9-7f96-9138-a5960b400b31","","696","
                <div class=""stimulus-container"">
                    <img src=""images/schematic_sequence/flight_scheme/flight_scheme_7.png"" class=""exp-image"">
                    <div class=""question-area"">
                        <p style=""font-size: 20px; font-weight: bold; margin: 0;"">Is there a person in this image?</p>
                    </div>
                </div>","1","main_experiment_trial","7","flight_scheme","schematic_sequence","","","","",""
"","","","","","html-keyboard-response","31","297000","0.0-31.0","F20D7FCDB2374DD293DD54C659A02DA1","019cf7c0-db29-7072-bede-130be3aae75a","019cf7bd-52b9-7f96-9138-a5960b400b31","","null","
                <div class=""stimulus-container"">
                    <img src=""images/schematic_sequence/flight_scheme/flight_scheme_8.png"" class=""exp-image"">
                    <div class=""question-area""></div> 
                </div>","null","","","","","","","","",""
"","","","","","html-button-response","32","297807","0.0-32.0","F20D7FCDB2374DD293DD54C659A02DA1","019cf7c0-db29-7072-bede-130be3aae75a","019cf7bd-52b9-7f96-9138-a5960b400b31","","807","
                <div class=""stimulus-container"">
                    <img src=""images/schematic_sequence/flight_scheme/flight_scheme_8.png"" class=""exp-image"">
                    <div class=""question-area"">
                        <p style=""font-size: 20px; font-weight: bold; margin: 0;"">Is there a person in this image?</p>
                    </div>
                </div>","1","main_experiment_trial","8","flight_scheme","schematic_sequence","","","","",""
"","","","","","html-keyboard-response","33","302809","0.0-33.0","F20D7FCDB2374DD293DD54C659A02DA1","019cf7c0-db29-7072-bede-130be3aae75a","019cf7bd-52b9-7f96-9138-a5960b400b31","","null","
                <div class=""stimulus-container"">
                    <img src=""images/schematic_sequence/flight_scheme/flight_scheme_9.png"" class=""exp-image"">
                    <div class=""question-area""></div> 
                </div>","null","","","","","","","","",""
"","","","","","html-button-response","34","303311","0.0-34.0","F20D7FCDB2374DD293DD54C659A02DA1","019cf7c0-db29-7072-bede-130be3aae75a","019cf7bd-52b9-7f96-9138-a5960b400b31","","501","
                <div class=""stimulus-container"">
                    <img src=""images/schematic_sequence/flight_scheme/flight_scheme_9.png"" class=""exp-image"">
                    <div class=""question-area"">
                        <p style=""font-size: 20px; font-weight: bold; margin: 0;"">Is there a person in this image?</p>
                    </div>
                </div>","0","main_experiment_trial","9","flight_scheme","schematic_sequence","","","","",""
"","","","","","html-keyboard-response","35","308315","0.0-35.0","F20D7FCDB2374DD293DD54C659A02DA1","019cf7c0-db29-7072-bede-130be3aae75a","019cf7bd-52b9-7f96-9138-a5960b400b31","","null","
                <div class=""stimulus-container"">
                    <img src=""images/schematic_sequence/flight_scheme/flight_scheme_ten.png"" class=""exp-image"">
                    <div class=""question-area""></div> 
                </div>","null","","","","","","","","",""
"","","","","","html-button-response","36","308889","0.0-36.0","F20D7FCDB2374DD293DD54C659A02DA1","019cf7c0-db29-7072-bede-130be3aae75a","019cf7bd-52b9-7f96-9138-a5960b400b31","","573","
                <div class=""stimulus-container"">
                    <img src=""images/schematic_sequence/flight_scheme/flight_scheme_ten.png"" class=""exp-image"">
                    <div class=""question-area"">
                        <p style=""font-size: 20px; font-weight: bold; margin: 0;"">Is there a person in this image?</p>
                    </div>
                </div>","0","main_experiment_trial","ten","flight_scheme","schematic_sequence","","","","",""
"","","","","","html-keyboard-response","37","309894","0.0-37.0","F20D7FCDB2374DD293DD54C659A02DA1","019cf7c0-db29-7072-bede-130be3aae75a","019cf7bd-52b9-7f96-9138-a5960b400b31","","null","<div style=""background-color: white; width: 100vw; height: 100vh;""></div>","null","","","","","","","","",""
"","","","","","html-keyboard-response","38","314908","0.0-38.0","F20D7FCDB2374DD293DD54C659A02DA1","019cf7c0-db29-7072-bede-130be3aae75a","019cf7bd-52b9-7f96-9138-a5960b400b31","","null","
                <div class=""stimulus-container"">
                    <img src=""images/schematic_sequence/hotel_scheme/hotel_scheme_1.png"" class=""exp-image"">
                    <div class=""question-area""></div> 
                </div>","null","","","","","","","","",""
"","","","","","html-button-response","39","315763","0.0-39.0","F20D7FCDB2374DD293DD54C659A02DA1","019cf7c0-db29-7072-bede-130be3aae75a","019cf7bd-52b9-7f96-9138-a5960b400b31","","855","
                <div class=""stimulus-container"">
                    <img src=""images/schematic_sequence/hotel_scheme/hotel_scheme_1.png"" class=""exp-image"">
                    <div class=""question-area"">
                        <p style=""font-size: 20px; font-weight: bold; margin: 0;"">Is there a person in this image?</p>
                    </div>
                </div>","1","main_experiment_trial","1","hotel_scheme","schematic_sequence","","","","",""
"","","","","","html-keyboard-response","40","320769","0.0-40.0","F20D7FCDB2374DD293DD54C659A02DA1","019cf7c0-db29-7072-bede-130be3aae75a","019cf7bd-52b9-7f96-9138-a5960b400b31","","null","
                <div class=""stimulus-container"">
                    <img src=""images/schematic_sequence/hotel_scheme/hotel_scheme_2.png"" class=""exp-image"">
                    <div class=""question-area""></div> 
                </div>","null","","","","","","","","",""
"","","","","","html-button-response","41","321551","0.0-41.0","F20D7FCDB2374DD293DD54C659A02DA1","019cf7c0-db29-7072-bede-130be3aae75a","019cf7bd-52b9-7f96-9138-a5960b400b31","","781","
                <div class=""stimulus-container"">
                    <img src=""images/schematic_sequence/hotel_scheme/hotel_scheme_2.png"" class=""exp-image"">
                    <div class=""question-area"">
                        <p style=""font-size: 20px; font-weight: bold; margin: 0;"">Is there a person in this image?</p>
                    </div>
                </div>","0","main_experiment_trial","2","hotel_scheme","schematic_sequence","","","","",""
"","","","","","html-keyboard-response","42","326553","0.0-42.0","F20D7FCDB2374DD293DD54C659A02DA1","019cf7c0-db29-7072-bede-130be3aae75a","019cf7bd-52b9-7f96-9138-a5960b400b31","","null","
                <div class=""stimulus-container"">
                    <img src=""images/schematic_sequence/hotel_scheme/hotel_scheme_3.png"" class=""exp-image"">
                    <div class=""question-area""></div> 
                </div>","null","","","","","","","","",""
"","","","","","html-button-response","43","327219","0.0-43.0","F20D7FCDB2374DD293DD54C659A02DA1","019cf7c0-db29-7072-bede-130be3aae75a","019cf7bd-52b9-7f96-9138-a5960b400b31","","665","
                <div class=""stimulus-container"">
                    <img src=""images/schematic_sequence/hotel_scheme/hotel_scheme_3.png"" class=""exp-image"">
                    <div class=""question-area"">
                        <p style=""font-size: 20px; font-weight: bold; margin: 0;"">Is there a person in this image?</p>
                    </div>
                </div>","0","main_experiment_trial","3","hotel_scheme","schematic_sequence","","","","",""
"","","","","","html-keyboard-response","44","332232","0.0-44.0","F20D7FCDB2374DD293DD54C659A02DA1","019cf7c0-db29-7072-bede-130be3aae75a","019cf7bd-52b9-7f96-9138-a5960b400b31","","null","
                <div class=""stimulus-container"">
                    <img src=""images/schematic_sequence/hotel_scheme/hotel_scheme_4.png"" class=""exp-image"">
                    <div class=""question-area""></div> 
                </div>","null","","","","","","","","",""
"","","","","","html-button-response","45","333479","0.0-45.0","F20D7FCDB2374DD293DD54C659A02DA1","019cf7c0-db29-7072-bede-130be3aae75a","019cf7bd-52b9-7f96-9138-a5960b400b31","","1246","
                <div class=""stimulus-container"">
                    <img src=""images/schematic_sequence/hotel_scheme/hotel_scheme_4.png"" class=""exp-image"">
                    <div class=""question-area"">
                        <p style=""font-size: 20px; font-weight: bold; margin: 0;"">Is there a person in this image?</p>
                    </div>
                </div>","1","main_experiment_trial","4","hotel_scheme","schematic_sequence","","","","",""
"","","","","","html-keyboard-response","46","338495","0.0-46.0","F20D7FCDB2374DD293DD54C659A02DA1","019cf7c0-db29-7072-bede-130be3aae75a","019cf7bd-52b9-7f96-9138-a5960b400b31","","null","
                <div class=""stimulus-container"">
                    <img src=""images/schematic_sequence/hotel_scheme/hotel_scheme_5.png"" class=""exp-image"">
                    <div class=""question-area""></div> 
                </div>","null","","","","","","","","",""
"","","","","","html-button-response","47","339347","0.0-47.0","F20D7FCDB2374DD293DD54C659A02DA1","019cf7c0-db29-7072-bede-130be3aae75a","019cf7bd-52b9-7f96-9138-a5960b400b31","","852","
                <div class=""stimulus-container"">
                    <img src=""images/schematic_sequence/hotel_scheme/hotel_scheme_5.png"" class=""exp-image"">
                    <div class=""question-area"">
                        <p style=""font-size: 20px; font-weight: bold; margin: 0;"">Is there a person in this image?</p>
                    </div>
                </div>","0","main_experiment_trial","5","hotel_scheme","schematic_sequence","","","","",""
"","","","","","html-keyboard-response","48","344358","0.0-48.0","F20D7FCDB2374DD293DD54C659A02DA1","019cf7c0-db29-7072-bede-130be3aae75a","019cf7bd-52b9-7f96-9138-a5960b400b31","","null","
                <div class=""stimulus-container"">
                    <img src=""images/schematic_sequence/hotel_scheme/hotel_scheme_6.png"" class=""exp-image"">
                    <div class=""question-area""></div> 
                </div>","null","","","","","","","","",""
"","","","","","html-button-response","49","344902","0.0-49.0","F20D7FCDB2374DD293DD54C659A02DA1","019cf7c0-db29-7072-bede-130be3aae75a","019cf7bd-52b9-7f96-9138-a5960b400b31","","543","
                <div class=""stimulus-container"">
                    <img src=""images/schematic_sequence/hotel_scheme/hotel_scheme_6.png"" class=""exp-image"">
                    <div class=""question-area"">
                        <p style=""font-size: 20px; font-weight: bold; margin: 0;"">Is there a person in this image?</p>
                    </div>
                </div>","0","main_experiment_trial","6","hotel_scheme","schematic_sequence","","","","",""
"","","","","","html-keyboard-response","50","349907","0.0-50.0","F20D7FCDB2374DD293DD54C659A02DA1","019cf7c0-db29-7072-bede-130be3aae75a","019cf7bd-52b9-7f96-9138-a5960b400b31","","null","
                <div class=""stimulus-container"">
                    <img src=""images/schematic_sequence/hotel_scheme/hotel_scheme_7.png"" class=""exp-image"">
                    <div class=""question-area""></div> 
                </div>","null","","","","","","","","",""
"","","","","","html-button-response","51","350450","0.0-51.0","F20D7FCDB2374DD293DD54C659A02DA1","019cf7c0-db29-7072-bede-130be3aae75a","019cf7bd-52b9-7f96-9138-a5960b400b31","","542","
                <div class=""stimulus-container"">
                    <img src=""images/schematic_sequence/hotel_scheme/hotel_scheme_7.png"" class=""exp-image"">
                    <div class=""question-area"">
                        <p style=""font-size: 20px; font-weight: bold; margin: 0;"">Is there a person in this image?</p>
                    </div>
                </div>","0","main_experiment_trial","7","hotel_scheme","schematic_sequence","","","","",""
"","","","","","html-keyboard-response","52","355461","0.0-52.0","F20D7FCDB2374DD293DD54C659A02DA1","019cf7c0-db29-7072-bede-130be3aae75a","019cf7bd-52b9-7f96-9138-a5960b400b31","","null","
                <div class=""stimulus-container"">
                    <img src=""images/schematic_sequence/hotel_scheme/hotel_scheme_8.png"" class=""exp-image"">
                    <div class=""question-area""></div> 
                </div>","null","","","","","","","","",""
"","","","","","html-button-response","53","356005","0.0-53.0","F20D7FCDB2374DD293DD54C659A02DA1","019cf7c0-db29-7072-bede-130be3aae75a","019cf7bd-52b9-7f96-9138-a5960b400b31","","543","
                <div class=""stimulus-container"">
                    <img src=""images/schematic_sequence/hotel_scheme/hotel_scheme_8.png"" class=""exp-image"">
                    <div class=""question-area"">
                        <p style=""font-size: 20px; font-weight: bold; margin: 0;"">Is there a person in this image?</p>
                    </div>
                </div>","0","main_experiment_trial","8","hotel_scheme","schematic_sequence","","","","",""
"","","","","","html-keyboard-response","54","361020","0.0-54.0","F20D7FCDB2374DD293DD54C659A02DA1","019cf7c0-db29-7072-bede-130be3aae75a","019cf7bd-52b9-7f96-9138-a5960b400b31","","null","
                <div class=""stimulus-container"">
                    <img src=""images/schematic_sequence/hotel_scheme/hotel_scheme_9.png"" class=""exp-image"">
                    <div class=""question-area""></div> 
                </div>","null","","","","","","","","",""
"","","","","","html-button-response","55","361627","0.0-55.0","F20D7FCDB2374DD293DD54C659A02DA1","019cf7c0-db29-7072-bede-130be3aae75a","019cf7bd-52b9-7f96-9138-a5960b400b31","","606","
                <div class=""stimulus-container"">
                    <img src=""images/schematic_sequence/hotel_scheme/hotel_scheme_9.png"" class=""exp-image"">
                    <div class=""question-area"">
                        <p style=""font-size: 20px; font-weight: bold; margin: 0;"">Is there a person in this image?</p>
                    </div>
                </div>","0","main_experiment_trial","9","hotel_scheme","schematic_sequence","","","","",""
"","","","","","html-keyboard-response","56","366632","0.0-56.0","F20D7FCDB2374DD293DD54C659A02DA1","019cf7c0-db29-7072-bede-130be3aae75a","019cf7bd-52b9-7f96-9138-a5960b400b31","","null","
                <div class=""stimulus-container"">
                    <img src=""images/schematic_sequence/hotel_scheme/hotel_scheme_ten.png"" class=""exp-image"">
                    <div class=""question-area""></div> 
                </div>","null","","","","","","","","",""
"","","","","","html-button-response","57","367328","0.0-57.0","F20D7FCDB2374DD293DD54C659A02DA1","019cf7c0-db29-7072-bede-130be3aae75a","019cf7bd-52b9-7f96-9138-a5960b400b31","","695","
                <div class=""stimulus-container"">
                    <img src=""images/schematic_sequence/hotel_scheme/hotel_scheme_ten.png"" class=""exp-image"">
                    <div class=""question-area"">
                        <p style=""font-size: 20px; font-weight: bold; margin: 0;"">Is there a person in this image?</p>
                    </div>
                </div>","0","main_experiment_trial","ten","hotel_scheme","schematic_sequence","","","","",""
"","","","","","html-keyboard-response","58","368334","0.0-58.0","F20D7FCDB2374DD293DD54C659A02DA1","019cf7c0-db29-7072-bede-130be3aae75a","019cf7bd-52b9-7f96-9138-a5960b400b31","","null","<div style=""background-color: white; width: 100vw; height: 100vh;""></div>","null","","","","","","","","",""
"","","","","","html-keyboard-response","59","373335","0.0-59.0","F20D7FCDB2374DD293DD54C659A02DA1","019cf7c0-db29-7072-bede-130be3aae75a","019cf7bd-52b9-7f96-9138-a5960b400b31","","null","
                <div class=""stimulus-container"">
                    <img src=""images/semantic_sequence/using_technology_semantic/using_technology_semantic_1.png"" class=""exp-image"">
                    <div class=""question-area""></div> 
                </div>","null","","","","","","","","",""
"","","","","","html-button-response","60","373945","0.0-60.0","F20D7FCDB2374DD293DD54C659A02DA1","019cf7c0-db29-7072-bede-130be3aae75a","019cf7bd-52b9-7f96-9138-a5960b400b31","","608","
                <div class=""stimulus-container"">
                    <img src=""images/semantic_sequence/using_technology_semantic/using_technology_semantic_1.png"" class=""exp-image"">
                    <div class=""question-area"">
                        <p style=""font-size: 20px; font-weight: bold; margin: 0;"">Is there a person in this image?</p>
                    </div>
                </div>","0","main_experiment_trial","1","using_technology_semantic","semantic_sequence","","","","",""
"","","","","","html-keyboard-response","61","378950","0.0-61.0","F20D7FCDB2374DD293DD54C659A02DA1","019cf7c0-db29-7072-bede-130be3aae75a","019cf7bd-52b9-7f96-9138-a5960b400b31","","null","
                <div class=""stimulus-container"">
                    <img src=""images/semantic_sequence/using_technology_semantic/using_technology_semantic_2.png"" class=""exp-image"">
                    <div class=""question-area""></div> 
                </div>","null","","","","","","","","",""
"","","","","","html-button-response","62","379754","0.0-62.0","F20D7FCDB2374DD293DD54C659A02DA1","019cf7c0-db29-7072-bede-130be3aae75a","019cf7bd-52b9-7f96-9138-a5960b400b31","","803","
                <div class=""stimulus-container"">
                    <img src=""images/semantic_sequence/using_technology_semantic/using_technology_semantic_2.png"" class=""exp-image"">
                    <div class=""question-area"">
                        <p style=""font-size: 20px; font-weight: bold; margin: 0;"">Is there a person in this image?</p>
                    </div>
                </div>","0","main_experiment_trial","2","using_technology_semantic","semantic_sequence","","","","",""
"","","","","","html-keyboard-response","63","384763","0.0-63.0","F20D7FCDB2374DD293DD54C659A02DA1","019cf7c0-db29-7072-bede-130be3aae75a","019cf7bd-52b9-7f96-9138-a5960b400b31","","null","
                <div class=""stimulus-container"">
                    <img src=""images/semantic_sequence/using_technology_semantic/using_technology_semantic_3.png"" class=""exp-image"">
                    <div class=""question-area""></div> 
                </div>","null","","","","","","","","",""
"","","","","","html-button-response","64","385323","0.0-64.0","F20D7FCDB2374DD293DD54C659A02DA1","019cf7c0-db29-7072-bede-130be3aae75a","019cf7bd-52b9-7f96-9138-a5960b400b31","","559","
                <div class=""stimulus-container"">
                    <img src=""images/semantic_sequence/using_technology_semantic/using_technology_semantic_3.png"" class=""exp-image"">
                    <div class=""question-area"">
                        <p style=""font-size: 20px; font-weight: bold; margin: 0;"">Is there a person in this image?</p>
                    </div>
                </div>","0","main_experiment_trial","3","using_technology_semantic","semantic_sequence","","","","",""
"","","","","","html-keyboard-response","65","390323","0.0-65.0","F20D7FCDB2374DD293DD54C659A02DA1","019cf7c0-db29-7072-bede-130be3aae75a","019cf7bd-52b9-7f96-9138-a5960b400b31","","null","
                <div class=""stimulus-container"">
                    <img src=""images/semantic_sequence/using_technology_semantic/using_technology_semantic_4.png"" class=""exp-image"">
                    <div class=""question-area""></div> 
                </div>","null","","","","","","","","",""
"","","","","","html-button-response","66","390932","0.0-66.0","F20D7FCDB2374DD293DD54C659A02DA1","019cf7c0-db29-7072-bede-130be3aae75a","019cf7bd-52b9-7f96-9138-a5960b400b31","","608","
                <div class=""stimulus-container"">
                    <img src=""images/semantic_sequence/using_technology_semantic/using_technology_semantic_4.png"" class=""exp-image"">
                    <div class=""question-area"">
                        <p style=""font-size: 20px; font-weight: bold; margin: 0;"">Is there a person in this image?</p>
                    </div>
                </div>","0","main_experiment_trial","4","using_technology_semantic","semantic_sequence","","","","",""
"","","","","","html-keyboard-response","67","395940","0.0-67.0","F20D7FCDB2374DD293DD54C659A02DA1","019cf7c0-db29-7072-bede-130be3aae75a","019cf7bd-52b9-7f96-9138-a5960b400b31","","null","
                <div class=""stimulus-container"">
                    <img src=""images/semantic_sequence/using_technology_semantic/using_technology_semantic_5.png"" class=""exp-image"">
                    <div class=""question-area""></div> 
                </div>","null","","","","","","","","",""
"","","","","","html-button-response","68","396563","0.0-68.0","F20D7FCDB2374DD293DD54C659A02DA1","019cf7c0-db29-7072-bede-130be3aae75a","019cf7bd-52b9-7f96-9138-a5960b400b31","","623","
                <div class=""stimulus-container"">
                    <img src=""images/semantic_sequence/using_technology_semantic/using_technology_semantic_5.png"" class=""exp-image"">
                    <div class=""question-area"">
                        <p style=""font-size: 20px; font-weight: bold; margin: 0;"">Is there a person in this image?</p>
                    </div>
                </div>","0","main_experiment_trial","5","using_technology_semantic","semantic_sequence","","","","",""
"","","","","","html-keyboard-response","69","401576","0.0-69.0","F20D7FCDB2374DD293DD54C659A02DA1","019cf7c0-db29-7072-bede-130be3aae75a","019cf7bd-52b9-7f96-9138-a5960b400b31","","null","
                <div class=""stimulus-container"">
                    <img src=""images/semantic_sequence/using_technology_semantic/using_technology_semantic_6.png"" class=""exp-image"">
                    <div class=""question-area""></div> 
                </div>","null","","","","","","","","",""
"","","","","","html-button-response","70","402246","0.0-70.0","F20D7FCDB2374DD293DD54C659A02DA1","019cf7c0-db29-7072-bede-130be3aae75a","019cf7bd-52b9-7f96-9138-a5960b400b31","","669","
                <div class=""stimulus-container"">
                    <img src=""images/semantic_sequence/using_technology_semantic/using_technology_semantic_6.png"" class=""exp-image"">
                    <div class=""question-area"">
                        <p style=""font-size: 20px; font-weight: bold; margin: 0;"">Is there a person in this image?</p>
                    </div>
                </div>","0","main_experiment_trial","6","using_technology_semantic","semantic_sequence","","","","",""
"","","","","","html-keyboard-response","71","407252","0.0-71.0","F20D7FCDB2374DD293DD54C659A02DA1","019cf7c0-db29-7072-bede-130be3aae75a","019cf7bd-52b9-7f96-9138-a5960b400b31","","null","
                <div class=""stimulus-container"">
                    <img src=""images/semantic_sequence/using_technology_semantic/using_technology_semantic_7.png"" class=""exp-image"">
                    <div class=""question-area""></div> 
                </div>","null","","","","","","","","",""
"","","","","","html-button-response","72","407860","0.0-72.0","F20D7FCDB2374DD293DD54C659A02DA1","019cf7c0-db29-7072-bede-130be3aae75a","019cf7bd-52b9-7f96-9138-a5960b400b31","","607","
                <div class=""stimulus-container"">
                    <img src=""images/semantic_sequence/using_technology_semantic/using_technology_semantic_7.png"" class=""exp-image"">
                    <div class=""question-area"">
                        <p style=""font-size: 20px; font-weight: bold; margin: 0;"">Is there a person in this image?</p>
                    </div>
                </div>","0","main_experiment_trial","7","using_technology_semantic","semantic_sequence","","","","",""
"","","","","","html-keyboard-response","73","412861","0.0-73.0","F20D7FCDB2374DD293DD54C659A02DA1","019cf7c0-db29-7072-bede-130be3aae75a","019cf7bd-52b9-7f96-9138-a5960b400b31","","null","
                <div class=""stimulus-container"">
                    <img src=""images/semantic_sequence/using_technology_semantic/using_technology_semantic_8.png"" class=""exp-image"">
                    <div class=""question-area""></div> 
                </div>","null","","","","","","","","",""
"","","","","","html-button-response","74","413482","0.0-74.0","F20D7FCDB2374DD293DD54C659A02DA1","019cf7c0-db29-7072-bede-130be3aae75a","019cf7bd-52b9-7f96-9138-a5960b400b31","","620","
                <div class=""stimulus-container"">
                    <img src=""images/semantic_sequence/using_technology_semantic/using_technology_semantic_8.png"" class=""exp-image"">
                    <div class=""question-area"">
                        <p style=""font-size: 20px; font-weight: bold; margin: 0;"">Is there a person in this image?</p>
                    </div>
                </div>","0","main_experiment_trial","8","using_technology_semantic","semantic_sequence","","","","",""
"","","","","","html-keyboard-response","75","418483","0.0-75.0","F20D7FCDB2374DD293DD54C659A02DA1","019cf7c0-db29-7072-bede-130be3aae75a","019cf7bd-52b9-7f96-9138-a5960b400b31","","null","
                <div class=""stimulus-container"">
                    <img src=""images/semantic_sequence/using_technology_semantic/using_technology_semantic_9.png"" class=""exp-image"">
                    <div class=""question-area""></div> 
                </div>","null","","","","","","","","",""
"","","","","","html-button-response","76","419056","0.0-76.0","F20D7FCDB2374DD293DD54C659A02DA1","019cf7c0-db29-7072-bede-130be3aae75a","019cf7bd-52b9-7f96-9138-a5960b400b31","","572","
                <div class=""stimulus-container"">
                    <img src=""images/semantic_sequence/using_technology_semantic/using_technology_semantic_9.png"" class=""exp-image"">
                    <div class=""question-area"">
                        <p style=""font-size: 20px; font-weight: bold; margin: 0;"">Is there a person in this image?</p>
                    </div>
                </div>","0","main_experiment_trial","9","using_technology_semantic","semantic_sequence","","","","",""
"","","","","","html-keyboard-response","77","424067","0.0-77.0","F20D7FCDB2374DD293DD54C659A02DA1","019cf7c0-db29-7072-bede-130be3aae75a","019cf7bd-52b9-7f96-9138-a5960b400b31","","null","
                <div class=""stimulus-container"">
                    <img src=""images/semantic_sequence/using_technology_semantic/using_technology_semantic_ten.png"" class=""exp-image"">
                    <div class=""question-area""></div> 
                </div>","null","","","","","","","","",""
"","","","","","html-button-response","78","424626","0.0-78.0","F20D7FCDB2374DD293DD54C659A02DA1","019cf7c0-db29-7072-bede-130be3aae75a","019cf7bd-52b9-7f96-9138-a5960b400b31","","557","
                <div class=""stimulus-container"">
                    <img src=""images/semantic_sequence/using_technology_semantic/using_technology_semantic_ten.png"" class=""exp-image"">
                    <div class=""question-area"">
                        <p style=""font-size: 20px; font-weight: bold; margin: 0;"">Is there a person in this image?</p>
                    </div>
                </div>","0","main_experiment_trial","ten","using_technology_semantic","semantic_sequence","","","","",""
"","","","","","html-keyboard-response","79","425628","0.0-79.0","F20D7FCDB2374DD293DD54C659A02DA1","019cf7c0-db29-7072-bede-130be3aae75a","019cf7bd-52b9-7f96-9138-a5960b400b31","","null","<div style=""background-color: white; width: 100vw; height: 100vh;""></div>","null","","","","","","","","",""
"","","","","","html-keyboard-response","80","430640","0.0-80.0","F20D7FCDB2374DD293DD54C659A02DA1","019cf7c0-db29-7072-bede-130be3aae75a","019cf7bd-52b9-7f96-9138-a5960b400b31","","null","
                <div class=""stimulus-container"">
                    <img src=""images/semantic_sequence/physical_activity_semantic/physical_activity_semantic_1.png"" class=""exp-image"">
                    <div class=""question-area""></div> 
                </div>","null","","","","","","","","",""
"","","","","","html-button-response","81","431248","0.0-81.0","F20D7FCDB2374DD293DD54C659A02DA1","019cf7c0-db29-7072-bede-130be3aae75a","019cf7bd-52b9-7f96-9138-a5960b400b31","","608","
                <div class=""stimulus-container"">
                    <img src=""images/semantic_sequence/physical_activity_semantic/physical_activity_semantic_1.png"" class=""exp-image"">
                    <div class=""question-area"">
                        <p style=""font-size: 20px; font-weight: bold; margin: 0;"">Is there a person in this image?</p>
                    </div>
                </div>","0","main_experiment_trial","1","physical_activity_semantic","semantic_sequence","","","","",""
"","","","","","html-keyboard-response","82","436259","0.0-82.0","F20D7FCDB2374DD293DD54C659A02DA1","019cf7c0-db29-7072-bede-130be3aae75a","019cf7bd-52b9-7f96-9138-a5960b400b31","","null","
                <div class=""stimulus-container"">
                    <img src=""images/semantic_sequence/physical_activity_semantic/physical_activity_semantic_2.png"" class=""exp-image"">
                    <div class=""question-area""></div> 
                </div>","null","","","","","","","","",""
"","","","","","html-button-response","83","437176","0.0-83.0","F20D7FCDB2374DD293DD54C659A02DA1","019cf7c0-db29-7072-bede-130be3aae75a","019cf7bd-52b9-7f96-9138-a5960b400b31","","916","
                <div class=""stimulus-container"">
                    <img src=""images/semantic_sequence/physical_activity_semantic/physical_activity_semantic_2.png"" class=""exp-image"">
                    <div class=""question-area"">
                        <p style=""font-size: 20px; font-weight: bold; margin: 0;"">Is there a person in this image?</p>
                    </div>
                </div>","0","main_experiment_trial","2","physical_activity_semantic","semantic_sequence","","","","",""
"","","","","","html-keyboard-response","84","442186","0.0-84.0","F20D7FCDB2374DD293DD54C659A02DA1","019cf7c0-db29-7072-bede-130be3aae75a","019cf7bd-52b9-7f96-9138-a5960b400b31","","null","
                <div class=""stimulus-container"">
                    <img src=""images/semantic_sequence/physical_activity_semantic/physical_activity_semantic_3.png"" class=""exp-image"">
                    <div class=""question-area""></div> 
                </div>","null","","","","","","","","",""
"","","","","","html-button-response","85","442869","0.0-85.0","F20D7FCDB2374DD293DD54C659A02DA1","019cf7c0-db29-7072-bede-130be3aae75a","019cf7bd-52b9-7f96-9138-a5960b400b31","","683","
                <div class=""stimulus-container"">
                    <img src=""images/semantic_sequence/physical_activity_semantic/physical_activity_semantic_3.png"" class=""exp-image"">
                    <div class=""question-area"">
                        <p style=""font-size: 20px; font-weight: bold; margin: 0;"">Is there a person in this image?</p>
                    </div>
                </div>","0","main_experiment_trial","3","physical_activity_semantic","semantic_sequence","","","","",""
"","","","","","html-keyboard-response","86","447874","0.0-86.0","F20D7FCDB2374DD293DD54C659A02DA1","019cf7c0-db29-7072-bede-130be3aae75a","019cf7bd-52b9-7f96-9138-a5960b400b31","","null","
                <div class=""stimulus-container"">
                    <img src=""images/semantic_sequence/physical_activity_semantic/physical_activity_semantic_4.png"" class=""exp-image"">
                    <div class=""question-area""></div> 
                </div>","null","","","","","","","","",""
"","","","","","html-button-response","87","448655","0.0-87.0","F20D7FCDB2374DD293DD54C659A02DA1","019cf7c0-db29-7072-bede-130be3aae75a","019cf7bd-52b9-7f96-9138-a5960b400b31","","779","
                <div class=""stimulus-container"">
                    <img src=""images/semantic_sequence/physical_activity_semantic/physical_activity_semantic_4.png"" class=""exp-image"">
                    <div class=""question-area"">
                        <p style=""font-size: 20px; font-weight: bold; margin: 0;"">Is there a person in this image?</p>
                    </div>
                </div>","0","main_experiment_trial","4","physical_activity_semantic","semantic_sequence","","","","",""
"","","","","","html-keyboard-response","88","453667","0.0-88.0","F20D7FCDB2374DD293DD54C659A02DA1","019cf7c0-db29-7072-bede-130be3aae75a","019cf7bd-52b9-7f96-9138-a5960b400b31","","null","
                <div class=""stimulus-container"">
                    <img src=""images/semantic_sequence/physical_activity_semantic/physical_activity_semantic_5.png"" class=""exp-image"">
                    <div class=""question-area""></div> 
                </div>","null","","","","","","","","",""
"","","","","","html-button-response","89","455091","0.0-89.0","F20D7FCDB2374DD293DD54C659A02DA1","019cf7c0-db29-7072-bede-130be3aae75a","019cf7bd-52b9-7f96-9138-a5960b400b31","","1424","
                <div class=""stimulus-container"">
                    <img src=""images/semantic_sequence/physical_activity_semantic/physical_activity_semantic_5.png"" class=""exp-image"">
                    <div class=""question-area"">
                        <p style=""font-size: 20px; font-weight: bold; margin: 0;"">Is there a person in this image?</p>
                    </div>
                </div>","0","main_experiment_trial","5","physical_activity_semantic","semantic_sequence","","","","",""
"","","","","","html-keyboard-response","90","460107","0.0-90.0","F20D7FCDB2374DD293DD54C659A02DA1","019cf7c0-db29-7072-bede-130be3aae75a","019cf7bd-52b9-7f96-9138-a5960b400b31","","null","
                <div class=""stimulus-container"">
                    <img src=""images/semantic_sequence/physical_activity_semantic/physical_activity_semantic_6.png"" class=""exp-image"">
                    <div class=""question-area""></div> 
                </div>","null","","","","","","","","",""
"","","","","","html-button-response","91","460944","0.0-91.0","F20D7FCDB2374DD293DD54C659A02DA1","019cf7c0-db29-7072-bede-130be3aae75a","019cf7bd-52b9-7f96-9138-a5960b400b31","","836","
                <div class=""stimulus-container"">
                    <img src=""images/semantic_sequence/physical_activity_semantic/physical_activity_semantic_6.png"" class=""exp-image"">
                    <div class=""question-area"">
                        <p style=""font-size: 20px; font-weight: bold; margin: 0;"">Is there a person in this image?</p>
                    </div>
                </div>","0","main_experiment_trial","6","physical_activity_semantic","semantic_sequence","","","","",""
"","","","","","html-keyboard-response","92","465950","0.0-92.0","F20D7FCDB2374DD293DD54C659A02DA1","019cf7c0-db29-7072-bede-130be3aae75a","019cf7bd-52b9-7f96-9138-a5960b400b31","","null","
                <div class=""stimulus-container"">
                    <img src=""images/semantic_sequence/physical_activity_semantic/physical_activity_semantic_7.png"" class=""exp-image"">
                    <div class=""question-area""></div> 
                </div>","null","","","","","","","","",""
"","","","","","html-button-response","93","466774","0.0-93.0","F20D7FCDB2374DD293DD54C659A02DA1","019cf7c0-db29-7072-bede-130be3aae75a","019cf7bd-52b9-7f96-9138-a5960b400b31","","823","
                <div class=""stimulus-container"">
                    <img src=""images/semantic_sequence/physical_activity_semantic/physical_activity_semantic_7.png"" class=""exp-image"">
                    <div class=""question-area"">
                        <p style=""font-size: 20px; font-weight: bold; margin: 0;"">Is there a person in this image?</p>
                    </div>
                </div>","0","main_experiment_trial","7","physical_activity_semantic","semantic_sequence","","","","",""
"","","","","","html-keyboard-response","94","471781","0.0-94.0","F20D7FCDB2374DD293DD54C659A02DA1","019cf7c0-db29-7072-bede-130be3aae75a","019cf7bd-52b9-7f96-9138-a5960b400b31","","null","
                <div class=""stimulus-container"">
                    <img src=""images/semantic_sequence/physical_activity_semantic/physical_activity_semantic_8.png"" class=""exp-image"">
                    <div class=""question-area""></div> 
                </div>","null","","","","","","","","",""
"","","","","","html-button-response","95","472528","0.0-95.0","F20D7FCDB2374DD293DD54C659A02DA1","019cf7c0-db29-7072-bede-130be3aae75a","019cf7bd-52b9-7f96-9138-a5960b400b31","","745","
                <div class=""stimulus-container"">
                    <img src=""images/semantic_sequence/physical_activity_semantic/physical_activity_semantic_8.png"" class=""exp-image"">
                    <div class=""question-area"">
                        <p style=""font-size: 20px; font-weight: bold; margin: 0;"">Is there a person in this image?</p>
                    </div>
                </div>","0","main_experiment_trial","8","physical_activity_semantic","semantic_sequence","","","","",""
"","","","","","html-keyboard-response","96","477532","0.0-96.0","F20D7FCDB2374DD293DD54C659A02DA1","019cf7c0-db29-7072-bede-130be3aae75a","019cf7bd-52b9-7f96-9138-a5960b400b31","","null","
                <div class=""stimulus-container"">
                    <img src=""images/semantic_sequence/physical_activity_semantic/physical_activity_semantic_9.png"" class=""exp-image"">
                    <div class=""question-area""></div> 
                </div>","null","","","","","","","","",""
"","","","","","html-button-response","97","478461","0.0-97.0","F20D7FCDB2374DD293DD54C659A02DA1","019cf7c0-db29-7072-bede-130be3aae75a","019cf7bd-52b9-7f96-9138-a5960b400b31","","929","
                <div class=""stimulus-container"">
                    <img src=""images/semantic_sequence/physical_activity_semantic/physical_activity_semantic_9.png"" class=""exp-image"">
                    <div class=""question-area"">
                        <p style=""font-size: 20px; font-weight: bold; margin: 0;"">Is there a person in this image?</p>
                    </div>
                </div>","0","main_experiment_trial","9","physical_activity_semantic","semantic_sequence","","","","",""
"","","","","","html-keyboard-response","98","483466","0.0-98.0","F20D7FCDB2374DD293DD54C659A02DA1","019cf7c0-db29-7072-bede-130be3aae75a","019cf7bd-52b9-7f96-9138-a5960b400b31","","null","
                <div class=""stimulus-container"">
                    <img src=""images/semantic_sequence/physical_activity_semantic/physical_activity_semantic_ten.png"" class=""exp-image"">
                    <div class=""question-area""></div> 
                </div>","null","","","","","","","","",""
"","","","","","html-button-response","99","484582","0.0-99.0","F20D7FCDB2374DD293DD54C659A02DA1","019cf7c0-db29-7072-bede-130be3aae75a","019cf7bd-52b9-7f96-9138-a5960b400b31","","1115","
                <div class=""stimulus-container"">
                    <img src=""images/semantic_sequence/physical_activity_semantic/physical_activity_semantic_ten.png"" class=""exp-image"">
                    <div class=""question-area"">
                        <p style=""font-size: 20px; font-weight: bold; margin: 0;"">Is there a person in this image?</p>
                    </div>
                </div>","0","main_experiment_trial","ten","physical_activity_semantic","semantic_sequence","","","","",""
"","","","","","html-keyboard-response","100","485588","0.0-100.0","F20D7FCDB2374DD293DD54C659A02DA1","019cf7c0-db29-7072-bede-130be3aae75a","019cf7bd-52b9-7f96-9138-a5960b400b31","","null","<div style=""background-color: white; width: 100vw; height: 100vh;""></div>","null","","","","","","","","",""
"","","","","","html-keyboard-response","101","490597","0.0-101.0","F20D7FCDB2374DD293DD54C659A02DA1","019cf7c0-db29-7072-bede-130be3aae75a","019cf7bd-52b9-7f96-9138-a5960b400b31","","null","
                <div class=""stimulus-container"">
                    <img src=""images/semantic_sequence/cat_care_semantic/cat_care_semantic_1.png"" class=""exp-image"">
                    <div class=""question-area""></div> 
                </div>","null","","","","","","","","",""
"","","","","","html-button-response","102","491310","0.0-102.0","F20D7FCDB2374DD293DD54C659A02DA1","019cf7c0-db29-7072-bede-130be3aae75a","019cf7bd-52b9-7f96-9138-a5960b400b31","","712","
                <div class=""stimulus-container"">
                    <img src=""images/semantic_sequence/cat_care_semantic/cat_care_semantic_1.png"" class=""exp-image"">
                    <div class=""question-area"">
                        <p style=""font-size: 20px; font-weight: bold; margin: 0;"">Is there a person in this image?</p>
                    </div>
                </div>","0","main_experiment_trial","1","cat_care_semantic","semantic_sequence","","","","",""
"","","","","","html-keyboard-response","103","496324","0.0-103.0","F20D7FCDB2374DD293DD54C659A02DA1","019cf7c0-db29-7072-bede-130be3aae75a","019cf7bd-52b9-7f96-9138-a5960b400b31","","null","
                <div class=""stimulus-container"">
                    <img src=""images/semantic_sequence/cat_care_semantic/cat_care_semantic_2.png"" class=""exp-image"">
                    <div class=""question-area""></div> 
                </div>","null","","","","","","","","",""
"","","","","","html-button-response","104","497303","0.0-104.0","F20D7FCDB2374DD293DD54C659A02DA1","019cf7c0-db29-7072-bede-130be3aae75a","019cf7bd-52b9-7f96-9138-a5960b400b31","","978","
                <div class=""stimulus-container"">
                    <img src=""images/semantic_sequence/cat_care_semantic/cat_care_semantic_2.png"" class=""exp-image"">
                    <div class=""question-area"">
                        <p style=""font-size: 20px; font-weight: bold; margin: 0;"">Is there a person in this image?</p>
                    </div>
                </div>","0","main_experiment_trial","2","cat_care_semantic","semantic_sequence","","","","",""
"","","","","","html-keyboard-response","105","502314","0.0-105.0","F20D7FCDB2374DD293DD54C659A02DA1","019cf7c0-db29-7072-bede-130be3aae75a","019cf7bd-52b9-7f96-9138-a5960b400b31","","null","
                <div class=""stimulus-container"">
                    <img src=""images/semantic_sequence/cat_care_semantic/cat_care_semantic_3.png"" class=""exp-image"">
                    <div class=""question-area""></div> 
                </div>","null","","","","","","","","",""
"","","","","","html-button-response","106","503396","0.0-106.0","F20D7FCDB2374DD293DD54C659A02DA1","019cf7c0-db29-7072-bede-130be3aae75a","019cf7bd-52b9-7f96-9138-a5960b400b31","","1082","
                <div class=""stimulus-container"">
                    <img src=""images/semantic_sequence/cat_care_semantic/cat_care_semantic_3.png"" class=""exp-image"">
                    <div class=""question-area"">
                        <p style=""font-size: 20px; font-weight: bold; margin: 0;"">Is there a person in this image?</p>
                    </div>
                </div>","0","main_experiment_trial","3","cat_care_semantic","semantic_sequence","","","","",""
"","","","","","html-keyboard-response","107","508410","0.0-107.0","F20D7FCDB2374DD293DD54C659A02DA1","019cf7c0-db29-7072-bede-130be3aae75a","019cf7bd-52b9-7f96-9138-a5960b400b31","","null","
                <div class=""stimulus-container"">
                    <img src=""images/semantic_sequence/cat_care_semantic/cat_care_semantic_4.png"" class=""exp-image"">
                    <div class=""question-area""></div> 
                </div>","null","","","","","","","","",""
"","","","","","html-button-response","108","509000","0.0-108.0","F20D7FCDB2374DD293DD54C659A02DA1","019cf7c0-db29-7072-bede-130be3aae75a","019cf7bd-52b9-7f96-9138-a5960b400b31","","589","
                <div class=""stimulus-container"">
                    <img src=""images/semantic_sequence/cat_care_semantic/cat_care_semantic_4.png"" class=""exp-image"">
                    <div class=""question-area"">
                        <p style=""font-size: 20px; font-weight: bold; margin: 0;"">Is there a person in this image?</p>
                    </div>
                </div>","0","main_experiment_trial","4","cat_care_semantic","semantic_sequence","","","","",""
"","","","","","html-keyboard-response","109","514013","0.0-109.0","F20D7FCDB2374DD293DD54C659A02DA1","019cf7c0-db29-7072-bede-130be3aae75a","019cf7bd-52b9-7f96-9138-a5960b400b31","","null","
                <div class=""stimulus-container"">
                    <img src=""images/semantic_sequence/cat_care_semantic/cat_care_semantic_5.png"" class=""exp-image"">
                    <div class=""question-area""></div> 
                </div>","null","","","","","","","","",""
"","","","","","html-button-response","110","514604","0.0-110.0","F20D7FCDB2374DD293DD54C659A02DA1","019cf7c0-db29-7072-bede-130be3aae75a","019cf7bd-52b9-7f96-9138-a5960b400b31","","590","
                <div class=""stimulus-container"">
                    <img src=""images/semantic_sequence/cat_care_semantic/cat_care_semantic_5.png"" class=""exp-image"">
                    <div class=""question-area"">
                        <p style=""font-size: 20px; font-weight: bold; margin: 0;"">Is there a person in this image?</p>
                    </div>
                </div>","0","main_experiment_trial","5","cat_care_semantic","semantic_sequence","","","","",""
"","","","","","html-keyboard-response","111","519610","0.0-111.0","F20D7FCDB2374DD293DD54C659A02DA1","019cf7c0-db29-7072-bede-130be3aae75a","019cf7bd-52b9-7f96-9138-a5960b400b31","","null","
                <div class=""stimulus-container"">
                    <img src=""images/semantic_sequence/cat_care_semantic/cat_care_semantic_6.png"" class=""exp-image"">
                    <div class=""question-area""></div> 
                </div>","null","","","","","","","","",""
"","","","","","html-button-response","112","520368","0.0-112.0","F20D7FCDB2374DD293DD54C659A02DA1","019cf7c0-db29-7072-bede-130be3aae75a","019cf7bd-52b9-7f96-9138-a5960b400b31","","757","
                <div class=""stimulus-container"">
                    <img src=""images/semantic_sequence/cat_care_semantic/cat_care_semantic_6.png"" class=""exp-image"">
                    <div class=""question-area"">
                        <p style=""font-size: 20px; font-weight: bold; margin: 0;"">Is there a person in this image?</p>
                    </div>
                </div>","0","main_experiment_trial","6","cat_care_semantic","semantic_sequence","","","","",""
"","","","","","html-keyboard-response","113","525376","0.0-113.0","F20D7FCDB2374DD293DD54C659A02DA1","019cf7c0-db29-7072-bede-130be3aae75a","019cf7bd-52b9-7f96-9138-a5960b400b31","","null","
                <div class=""stimulus-container"">
                    <img src=""images/semantic_sequence/cat_care_semantic/cat_care_semantic_7.png"" class=""exp-image"">
                    <div class=""question-area""></div> 
                </div>","null","","","","","","","","",""
"","","","","","html-button-response","114","525951","0.0-114.0","F20D7FCDB2374DD293DD54C659A02DA1","019cf7c0-db29-7072-bede-130be3aae75a","019cf7bd-52b9-7f96-9138-a5960b400b31","","574","
                <div class=""stimulus-container"">
                    <img src=""images/semantic_sequence/cat_care_semantic/cat_care_semantic_7.png"" class=""exp-image"">
                    <div class=""question-area"">
                        <p style=""font-size: 20px; font-weight: bold; margin: 0;"">Is there a person in this image?</p>
                    </div>
                </div>","0","main_experiment_trial","7","cat_care_semantic","semantic_sequence","","","","",""
"","","","","","html-keyboard-response","115","530963","0.0-115.0","F20D7FCDB2374DD293DD54C659A02DA1","019cf7c0-db29-7072-bede-130be3aae75a","019cf7bd-52b9-7f96-9138-a5960b400b31","","null","
                <div class=""stimulus-container"">
                    <img src=""images/semantic_sequence/cat_care_semantic/cat_care_semantic_8.png"" class=""exp-image"">
                    <div class=""question-area""></div> 
                </div>","null","","","","","","","","",""
"","","","","","html-button-response","116","532159","0.0-116.0","F20D7FCDB2374DD293DD54C659A02DA1","019cf7c0-db29-7072-bede-130be3aae75a","019cf7bd-52b9-7f96-9138-a5960b400b31","","1195","
                <div class=""stimulus-container"">
                    <img src=""images/semantic_sequence/cat_care_semantic/cat_care_semantic_8.png"" class=""exp-image"">
                    <div class=""question-area"">
                        <p style=""font-size: 20px; font-weight: bold; margin: 0;"">Is there a person in this image?</p>
                    </div>
                </div>","0","main_experiment_trial","8","cat_care_semantic","semantic_sequence","","","","",""
"","","","","","html-keyboard-response","117","537162","0.0-117.0","F20D7FCDB2374DD293DD54C659A02DA1","019cf7c0-db29-7072-bede-130be3aae75a","019cf7bd-52b9-7f96-9138-a5960b400b31","","null","
                <div class=""stimulus-container"">
                    <img src=""images/semantic_sequence/cat_care_semantic/cat_care_semantic_9.png"" class=""exp-image"">
                    <div class=""question-area""></div> 
                </div>","null","","","","","","","","",""
"","","","","","html-button-response","118","537784","0.0-118.0","F20D7FCDB2374DD293DD54C659A02DA1","019cf7c0-db29-7072-bede-130be3aae75a","019cf7bd-52b9-7f96-9138-a5960b400b31","","622","
                <div class=""stimulus-container"">
                    <img src=""images/semantic_sequence/cat_care_semantic/cat_care_semantic_9.png"" class=""exp-image"">
                    <div class=""question-area"">
                        <p style=""font-size: 20px; font-weight: bold; margin: 0;"">Is there a person in this image?</p>
                    </div>
                </div>","0","main_experiment_trial","9","cat_care_semantic","semantic_sequence","","","","",""
"","","","","","html-keyboard-response","119","542787","0.0-119.0","F20D7FCDB2374DD293DD54C659A02DA1","019cf7c0-db29-7072-bede-130be3aae75a","019cf7bd-52b9-7f96-9138-a5960b400b31","","null","
                <div class=""stimulus-container"">
                    <img src=""images/semantic_sequence/cat_care_semantic/cat_care_semantic_ten.png"" class=""exp-image"">
                    <div class=""question-area""></div> 
                </div>","null","","","","","","","","",""
"","","","","","html-button-response","120","543862","0.0-120.0","F20D7FCDB2374DD293DD54C659A02DA1","019cf7c0-db29-7072-bede-130be3aae75a","019cf7bd-52b9-7f96-9138-a5960b400b31","","1075","
                <div class=""stimulus-container"">
                    <img src=""images/semantic_sequence/cat_care_semantic/cat_care_semantic_ten.png"" class=""exp-image"">
                    <div class=""question-area"">
                        <p style=""font-size: 20px; font-weight: bold; margin: 0;"">Is there a person in this image?</p>
                    </div>
                </div>","1","main_experiment_trial","ten","cat_care_semantic","semantic_sequence","","","","",""
"","","","","","html-keyboard-response","121","544865","0.0-121.0","F20D7FCDB2374DD293DD54C659A02DA1","019cf7c0-db29-7072-bede-130be3aae75a","019cf7bd-52b9-7f96-9138-a5960b400b31","","null","<div style=""background-color: white; width: 100vw; height: 100vh;""></div>","null","","","","","","","","",""
"","","","","","html-keyboard-response","122","549870","0.0-122.0","F20D7FCDB2374DD293DD54C659A02DA1","019cf7c0-db29-7072-bede-130be3aae75a","019cf7bd-52b9-7f96-9138-a5960b400b31","","null","
                <div class=""stimulus-container"">
                    <img src=""images/semantic_sequence/maintaining_a_car_semantic/maintaining_a_car_semantic_1.png"" class=""exp-image"">
                    <div class=""question-area""></div> 
                </div>","null","","","","","","","","",""
"","","","","","html-button-response","123","551495","0.0-123.0","F20D7FCDB2374DD293DD54C659A02DA1","019cf7c0-db29-7072-bede-130be3aae75a","019cf7bd-52b9-7f96-9138-a5960b400b31","","1623","
                <div class=""stimulus-container"">
                    <img src=""images/semantic_sequence/maintaining_a_car_semantic/maintaining_a_car_semantic_1.png"" class=""exp-image"">
                    <div class=""question-area"">
                        <p style=""font-size: 20px; font-weight: bold; margin: 0;"">Is there a person in this image?</p>
                    </div>
                </div>","0","main_experiment_trial","1","maintaining_a_car_semantic","semantic_sequence","","","","",""
"","","","","","html-keyboard-response","124","556511","0.0-124.0","F20D7FCDB2374DD293DD54C659A02DA1","019cf7c0-db29-7072-bede-130be3aae75a","019cf7bd-52b9-7f96-9138-a5960b400b31","","null","
                <div class=""stimulus-container"">
                    <img src=""images/semantic_sequence/maintaining_a_car_semantic/maintaining_a_car_semantic_2.png"" class=""exp-image"">
                    <div class=""question-area""></div> 
                </div>","null","","","","","","","","",""
"","","","","","html-button-response","125","557210","0.0-125.0","F20D7FCDB2374DD293DD54C659A02DA1","019cf7c0-db29-7072-bede-130be3aae75a","019cf7bd-52b9-7f96-9138-a5960b400b31","","698","
                <div class=""stimulus-container"">
                    <img src=""images/semantic_sequence/maintaining_a_car_semantic/maintaining_a_car_semantic_2.png"" class=""exp-image"">
                    <div class=""question-area"">
                        <p style=""font-size: 20px; font-weight: bold; margin: 0;"">Is there a person in this image?</p>
                    </div>
                </div>","0","main_experiment_trial","2","maintaining_a_car_semantic","semantic_sequence","","","","",""
"","","","","","html-keyboard-response","126","562212","0.0-126.0","F20D7FCDB2374DD293DD54C659A02DA1","019cf7c0-db29-7072-bede-130be3aae75a","019cf7bd-52b9-7f96-9138-a5960b400b31","","null","
                <div class=""stimulus-container"">
                    <img src=""images/semantic_sequence/maintaining_a_car_semantic/maintaining_a_car_semantic_3.png"" class=""exp-image"">
                    <div class=""question-area""></div> 
                </div>","null","","","","","","","","",""
"","","","","","html-button-response","127","562971","0.0-127.0","F20D7FCDB2374DD293DD54C659A02DA1","019cf7c0-db29-7072-bede-130be3aae75a","019cf7bd-52b9-7f96-9138-a5960b400b31","","759","
                <div class=""stimulus-container"">
                    <img src=""images/semantic_sequence/maintaining_a_car_semantic/maintaining_a_car_semantic_3.png"" class=""exp-image"">
                    <div class=""question-area"">
                        <p style=""font-size: 20px; font-weight: bold; margin: 0;"">Is there a person in this image?</p>
                    </div>
                </div>","0","main_experiment_trial","3","maintaining_a_car_semantic","semantic_sequence","","","","",""
"","","","","","html-keyboard-response","128","567973","0.0-128.0","F20D7FCDB2374DD293DD54C659A02DA1","019cf7c0-db29-7072-bede-130be3aae75a","019cf7bd-52b9-7f96-9138-a5960b400b31","","null","
                <div class=""stimulus-container"">
                    <img src=""images/semantic_sequence/maintaining_a_car_semantic/maintaining_a_car_semantic_4.png"" class=""exp-image"">
                    <div class=""question-area""></div> 
                </div>","null","","","","","","","","",""
"","","","","","html-button-response","129","568982","0.0-129.0","F20D7FCDB2374DD293DD54C659A02DA1","019cf7c0-db29-7072-bede-130be3aae75a","019cf7bd-52b9-7f96-9138-a5960b400b31","","1008","
                <div class=""stimulus-container"">
                    <img src=""images/semantic_sequence/maintaining_a_car_semantic/maintaining_a_car_semantic_4.png"" class=""exp-image"">
                    <div class=""question-area"">
                        <p style=""font-size: 20px; font-weight: bold; margin: 0;"">Is there a person in this image?</p>
                    </div>
                </div>","0","main_experiment_trial","4","maintaining_a_car_semantic","semantic_sequence","","","","",""
"","","","","","html-keyboard-response","130","573990","0.0-130.0","F20D7FCDB2374DD293DD54C659A02DA1","019cf7c0-db29-7072-bede-130be3aae75a","019cf7bd-52b9-7f96-9138-a5960b400b31","","null","
                <div class=""stimulus-container"">
                    <img src=""images/semantic_sequence/maintaining_a_car_semantic/maintaining_a_car_semantic_5.png"" class=""exp-image"">
                    <div class=""question-area""></div> 
                </div>","null","","","","","","","","",""
"","","","","","html-button-response","131","574783","0.0-131.0","F20D7FCDB2374DD293DD54C659A02DA1","019cf7c0-db29-7072-bede-130be3aae75a","019cf7bd-52b9-7f96-9138-a5960b400b31","","792","
                <div class=""stimulus-container"">
                    <img src=""images/semantic_sequence/maintaining_a_car_semantic/maintaining_a_car_semantic_5.png"" class=""exp-image"">
                    <div class=""question-area"">
                        <p style=""font-size: 20px; font-weight: bold; margin: 0;"">Is there a person in this image?</p>
                    </div>
                </div>","0","main_experiment_trial","5","maintaining_a_car_semantic","semantic_sequence","","","","",""
"","","","","","html-keyboard-response","132","579785","0.0-132.0","F20D7FCDB2374DD293DD54C659A02DA1","019cf7c0-db29-7072-bede-130be3aae75a","019cf7bd-52b9-7f96-9138-a5960b400b31","","null","
                <div class=""stimulus-container"">
                    <img src=""images/semantic_sequence/maintaining_a_car_semantic/maintaining_a_car_semantic_6.png"" class=""exp-image"">
                    <div class=""question-area""></div> 
                </div>","null","","","","","","","","",""
"","","","","","html-button-response","133","580573","0.0-133.0","F20D7FCDB2374DD293DD54C659A02DA1","019cf7c0-db29-7072-bede-130be3aae75a","019cf7bd-52b9-7f96-9138-a5960b400b31","","787","
                <div class=""stimulus-container"">
                    <img src=""images/semantic_sequence/maintaining_a_car_semantic/maintaining_a_car_semantic_6.png"" class=""exp-image"">
                    <div class=""question-area"">
                        <p style=""font-size: 20px; font-weight: bold; margin: 0;"">Is there a person in this image?</p>
                    </div>
                </div>","0","main_experiment_trial","6","maintaining_a_car_semantic","semantic_sequence","","","","",""
"","","","","","html-keyboard-response","134","585580","0.0-134.0","F20D7FCDB2374DD293DD54C659A02DA1","019cf7c0-db29-7072-bede-130be3aae75a","019cf7bd-52b9-7f96-9138-a5960b400b31","","null","
                <div class=""stimulus-container"">
                    <img src=""images/semantic_sequence/maintaining_a_car_semantic/maintaining_a_car_semantic_7.png"" class=""exp-image"">
                    <div class=""question-area""></div> 
                </div>","null","","","","","","","","",""
"","","","","","html-button-response","135","586419","0.0-135.0","F20D7FCDB2374DD293DD54C659A02DA1","019cf7c0-db29-7072-bede-130be3aae75a","019cf7bd-52b9-7f96-9138-a5960b400b31","","838","
                <div class=""stimulus-container"">
                    <img src=""images/semantic_sequence/maintaining_a_car_semantic/maintaining_a_car_semantic_7.png"" class=""exp-image"">
                    <div class=""question-area"">
                        <p style=""font-size: 20px; font-weight: bold; margin: 0;"">Is there a person in this image?</p>
                    </div>
                </div>","0","main_experiment_trial","7","maintaining_a_car_semantic","semantic_sequence","","","","",""
"","","","","","html-keyboard-response","136","591433","0.0-136.0","F20D7FCDB2374DD293DD54C659A02DA1","019cf7c0-db29-7072-bede-130be3aae75a","019cf7bd-52b9-7f96-9138-a5960b400b31","","null","
                <div class=""stimulus-container"">
                    <img src=""images/semantic_sequence/maintaining_a_car_semantic/maintaining_a_car_semantic_8.png"" class=""exp-image"">
                    <div class=""question-area""></div> 
                </div>","null","","","","","","","","",""
"","","","","","html-button-response","137","592038","0.0-137.0","F20D7FCDB2374DD293DD54C659A02DA1","019cf7c0-db29-7072-bede-130be3aae75a","019cf7bd-52b9-7f96-9138-a5960b400b31","","604","
                <div class=""stimulus-container"">
                    <img src=""images/semantic_sequence/maintaining_a_car_semantic/maintaining_a_car_semantic_8.png"" class=""exp-image"">
                    <div class=""question-area"">
                        <p style=""font-size: 20px; font-weight: bold; margin: 0;"">Is there a person in this image?</p>
                    </div>
                </div>","0","main_experiment_trial","8","maintaining_a_car_semantic","semantic_sequence","","","","",""
"","","","","","html-keyboard-response","138","597046","0.0-138.0","F20D7FCDB2374DD293DD54C659A02DA1","019cf7c0-db29-7072-bede-130be3aae75a","019cf7bd-52b9-7f96-9138-a5960b400b31","","null","
                <div class=""stimulus-container"">
                    <img src=""images/semantic_sequence/maintaining_a_car_semantic/maintaining_a_car_semantic_9.png"" class=""exp-image"">
                    <div class=""question-area""></div> 
                </div>","null","","","","","","","","",""
"","","","","","html-button-response","139","597897","0.0-139.0","F20D7FCDB2374DD293DD54C659A02DA1","019cf7c0-db29-7072-bede-130be3aae75a","019cf7bd-52b9-7f96-9138-a5960b400b31","","850","
                <div class=""stimulus-container"">
                    <img src=""images/semantic_sequence/maintaining_a_car_semantic/maintaining_a_car_semantic_9.png"" class=""exp-image"">
                    <div class=""question-area"">
                        <p style=""font-size: 20px; font-weight: bold; margin: 0;"">Is there a person in this image?</p>
                    </div>
                </div>","0","main_experiment_trial","9","maintaining_a_car_semantic","semantic_sequence","","","","",""
"","","","","","html-keyboard-response","140","602898","0.0-140.0","F20D7FCDB2374DD293DD54C659A02DA1","019cf7c0-db29-7072-bede-130be3aae75a","019cf7bd-52b9-7f96-9138-a5960b400b31","","null","
                <div class=""stimulus-container"">
                    <img src=""images/semantic_sequence/maintaining_a_car_semantic/maintaining_a_car_semantic_ten.png"" class=""exp-image"">
                    <div class=""question-area""></div> 
                </div>","null","","","","","","","","",""
"","","","","","html-button-response","141","603599","0.0-141.0","F20D7FCDB2374DD293DD54C659A02DA1","019cf7c0-db29-7072-bede-130be3aae75a","019cf7bd-52b9-7f96-9138-a5960b400b31","","700","
                <div class=""stimulus-container"">
                    <img src=""images/semantic_sequence/maintaining_a_car_semantic/maintaining_a_car_semantic_ten.png"" class=""exp-image"">
                    <div class=""question-area"">
                        <p style=""font-size: 20px; font-weight: bold; margin: 0;"">Is there a person in this image?</p>
                    </div>
                </div>","0","main_experiment_trial","ten","maintaining_a_car_semantic","semantic_sequence","","","","",""
"","","","","","html-keyboard-response","142","604606","0.0-142.0","F20D7FCDB2374DD293DD54C659A02DA1","019cf7c0-db29-7072-bede-130be3aae75a","019cf7bd-52b9-7f96-9138-a5960b400b31","","null","<div style=""background-color: white; width: 100vw; height: 100vh;""></div>","null","","","","","","","","",""
"","","","","","html-keyboard-response","143","609608","0.0-143.0","F20D7FCDB2374DD293DD54C659A02DA1","019cf7c0-db29-7072-bede-130be3aae75a","019cf7bd-52b9-7f96-9138-a5960b400b31","","null","
                <div class=""stimulus-container"">
                    <img src=""images/semantic_sequence/exploring_nature_semantic/exploring_nature_semantic_1.png"" class=""exp-image"">
                    <div class=""question-area""></div> 
                </div>","null","","","","","","","","",""
"","","","","","html-button-response","144","610352","0.0-144.0","F20D7FCDB2374DD293DD54C659A02DA1","019cf7c0-db29-7072-bede-130be3aae75a","019cf7bd-52b9-7f96-9138-a5960b400b31","","744","
                <div class=""stimulus-container"">
                    <img src=""images/semantic_sequence/exploring_nature_semantic/exploring_nature_semantic_1.png"" class=""exp-image"">
                    <div class=""question-area"">
                        <p style=""font-size: 20px; font-weight: bold; margin: 0;"">Is there a person in this image?</p>
                    </div>
                </div>","0","main_experiment_trial","1","exploring_nature_semantic","semantic_sequence","","","","",""
"","","","","","html-keyboard-response","145","615366","0.0-145.0","F20D7FCDB2374DD293DD54C659A02DA1","019cf7c0-db29-7072-bede-130be3aae75a","019cf7bd-52b9-7f96-9138-a5960b400b31","","null","
                <div class=""stimulus-container"">
                    <img src=""images/semantic_sequence/exploring_nature_semantic/exploring_nature_semantic_2.png"" class=""exp-image"">
                    <div class=""question-area""></div> 
                </div>","null","","","","","","","","",""
"","","","","","html-button-response","146","616352","0.0-146.0","F20D7FCDB2374DD293DD54C659A02DA1","019cf7c0-db29-7072-bede-130be3aae75a","019cf7bd-52b9-7f96-9138-a5960b400b31","","985","
                <div class=""stimulus-container"">
                    <img src=""images/semantic_sequence/exploring_nature_semantic/exploring_nature_semantic_2.png"" class=""exp-image"">
                    <div class=""question-area"">
                        <p style=""font-size: 20px; font-weight: bold; margin: 0;"">Is there a person in this image?</p>
                    </div>
                </div>","0","main_experiment_trial","2","exploring_nature_semantic","semantic_sequence","","","","",""
"","","","","","html-keyboard-response","147","621365","0.0-147.0","F20D7FCDB2374DD293DD54C659A02DA1","019cf7c0-db29-7072-bede-130be3aae75a","019cf7bd-52b9-7f96-9138-a5960b400b31","","null","
                <div class=""stimulus-container"">
                    <img src=""images/semantic_sequence/exploring_nature_semantic/exploring_nature_semantic_3.png"" class=""exp-image"">
                    <div class=""question-area""></div> 
                </div>","null","","","","","","","","",""
"","","","","","html-button-response","148","622331","0.0-148.0","F20D7FCDB2374DD293DD54C659A02DA1","019cf7c0-db29-7072-bede-130be3aae75a","019cf7bd-52b9-7f96-9138-a5960b400b31","","965","
                <div class=""stimulus-container"">
                    <img src=""images/semantic_sequence/exploring_nature_semantic/exploring_nature_semantic_3.png"" class=""exp-image"">
                    <div class=""question-area"">
                        <p style=""font-size: 20px; font-weight: bold; margin: 0;"">Is there a person in this image?</p>
                    </div>
                </div>","0","main_experiment_trial","3","exploring_nature_semantic","semantic_sequence","","","","",""
"","","","","","html-keyboard-response","149","627333","0.0-149.0","F20D7FCDB2374DD293DD54C659A02DA1","019cf7c0-db29-7072-bede-130be3aae75a","019cf7bd-52b9-7f96-9138-a5960b400b31","","null","
                <div class=""stimulus-container"">
                    <img src=""images/semantic_sequence/exploring_nature_semantic/exploring_nature_semantic_4.png"" class=""exp-image"">
                    <div class=""question-area""></div> 
                </div>","null","","","","","","","","",""
"","","","","","html-button-response","150","628341","0.0-150.0","F20D7FCDB2374DD293DD54C659A02DA1","019cf7c0-db29-7072-bede-130be3aae75a","019cf7bd-52b9-7f96-9138-a5960b400b31","","1008","
                <div class=""stimulus-container"">
                    <img src=""images/semantic_sequence/exploring_nature_semantic/exploring_nature_semantic_4.png"" class=""exp-image"">
                    <div class=""question-area"">
                        <p style=""font-size: 20px; font-weight: bold; margin: 0;"">Is there a person in this image?</p>
                    </div>
                </div>","0","main_experiment_trial","4","exploring_nature_semantic","semantic_sequence","","","","",""
"","","","","","html-keyboard-response","151","633355","0.0-151.0","F20D7FCDB2374DD293DD54C659A02DA1","019cf7c0-db29-7072-bede-130be3aae75a","019cf7bd-52b9-7f96-9138-a5960b400b31","","null","
                <div class=""stimulus-container"">
                    <img src=""images/semantic_sequence/exploring_nature_semantic/exploring_nature_semantic_5.png"" class=""exp-image"">
                    <div class=""question-area""></div> 
                </div>","null","","","","","","","","",""
"","","","","","html-button-response","152","634207","0.0-152.0","F20D7FCDB2374DD293DD54C659A02DA1","019cf7c0-db29-7072-bede-130be3aae75a","019cf7bd-52b9-7f96-9138-a5960b400b31","","852","
                <div class=""stimulus-container"">
                    <img src=""images/semantic_sequence/exploring_nature_semantic/exploring_nature_semantic_5.png"" class=""exp-image"">
                    <div class=""question-area"">
                        <p style=""font-size: 20px; font-weight: bold; margin: 0;"">Is there a person in this image?</p>
                    </div>
                </div>","0","main_experiment_trial","5","exploring_nature_semantic","semantic_sequence","","","","",""
"","","","","","html-keyboard-response","153","639210","0.0-153.0","F20D7FCDB2374DD293DD54C659A02DA1","019cf7c0-db29-7072-bede-130be3aae75a","019cf7bd-52b9-7f96-9138-a5960b400b31","","null","
                <div class=""stimulus-container"">
                    <img src=""images/semantic_sequence/exploring_nature_semantic/exploring_nature_semantic_6.png"" class=""exp-image"">
                    <div class=""question-area""></div> 
                </div>","null","","","","","","","","",""
"","","","","","html-button-response","154","640200","0.0-154.0","F20D7FCDB2374DD293DD54C659A02DA1","019cf7c0-db29-7072-bede-130be3aae75a","019cf7bd-52b9-7f96-9138-a5960b400b31","","989","
                <div class=""stimulus-container"">
                    <img src=""images/semantic_sequence/exploring_nature_semantic/exploring_nature_semantic_6.png"" class=""exp-image"">
                    <div class=""question-area"">
                        <p style=""font-size: 20px; font-weight: bold; margin: 0;"">Is there a person in this image?</p>
                    </div>
                </div>","0","main_experiment_trial","6","exploring_nature_semantic","semantic_sequence","","","","",""
"","","","","","html-keyboard-response","155","645203","0.0-155.0","F20D7FCDB2374DD293DD54C659A02DA1","019cf7c0-db29-7072-bede-130be3aae75a","019cf7bd-52b9-7f96-9138-a5960b400b31","","null","
                <div class=""stimulus-container"">
                    <img src=""images/semantic_sequence/exploring_nature_semantic/exploring_nature_semantic_7.png"" class=""exp-image"">
                    <div class=""question-area""></div> 
                </div>","null","","","","","","","","",""
"","","","","","html-button-response","156","645856","0.0-156.0","F20D7FCDB2374DD293DD54C659A02DA1","019cf7c0-db29-7072-bede-130be3aae75a","019cf7bd-52b9-7f96-9138-a5960b400b31","","652","
                <div class=""stimulus-container"">
                    <img src=""images/semantic_sequence/exploring_nature_semantic/exploring_nature_semantic_7.png"" class=""exp-image"">
                    <div class=""question-area"">
                        <p style=""font-size: 20px; font-weight: bold; margin: 0;"">Is there a person in this image?</p>
                    </div>
                </div>","0","main_experiment_trial","7","exploring_nature_semantic","semantic_sequence","","","","",""
"","","","","","html-keyboard-response","157","650869","0.0-157.0","F20D7FCDB2374DD293DD54C659A02DA1","019cf7c0-db29-7072-bede-130be3aae75a","019cf7bd-52b9-7f96-9138-a5960b400b31","","null","
                <div class=""stimulus-container"">
                    <img src=""images/semantic_sequence/exploring_nature_semantic/exploring_nature_semantic_8.png"" class=""exp-image"">
                    <div class=""question-area""></div> 
                </div>","null","","","","","","","","",""
"","","","","","html-button-response","158","651753","0.0-158.0","F20D7FCDB2374DD293DD54C659A02DA1","019cf7c0-db29-7072-bede-130be3aae75a","019cf7bd-52b9-7f96-9138-a5960b400b31","","882","
                <div class=""stimulus-container"">
                    <img src=""images/semantic_sequence/exploring_nature_semantic/exploring_nature_semantic_8.png"" class=""exp-image"">
                    <div class=""question-area"">
                        <p style=""font-size: 20px; font-weight: bold; margin: 0;"">Is there a person in this image?</p>
                    </div>
                </div>","0","main_experiment_trial","8","exploring_nature_semantic","semantic_sequence","","","","",""
"","","","","","html-keyboard-response","159","656760","0.0-159.0","F20D7FCDB2374DD293DD54C659A02DA1","019cf7c0-db29-7072-bede-130be3aae75a","019cf7bd-52b9-7f96-9138-a5960b400b31","","null","
                <div class=""stimulus-container"">
                    <img src=""images/semantic_sequence/exploring_nature_semantic/exploring_nature_semantic_9.png"" class=""exp-image"">
                    <div class=""question-area""></div> 
                </div>","null","","","","","","","","",""
"","","","","","html-button-response","160","657723","0.0-160.0","F20D7FCDB2374DD293DD54C659A02DA1","019cf7c0-db29-7072-bede-130be3aae75a","019cf7bd-52b9-7f96-9138-a5960b400b31","","962","
                <div class=""stimulus-container"">
                    <img src=""images/semantic_sequence/exploring_nature_semantic/exploring_nature_semantic_9.png"" class=""exp-image"">
                    <div class=""question-area"">
                        <p style=""font-size: 20px; font-weight: bold; margin: 0;"">Is there a person in this image?</p>
                    </div>
                </div>","0","main_experiment_trial","9","exploring_nature_semantic","semantic_sequence","","","","",""
"","","","","","html-keyboard-response","161","662733","0.0-161.0","F20D7FCDB2374DD293DD54C659A02DA1","019cf7c0-db29-7072-bede-130be3aae75a","019cf7bd-52b9-7f96-9138-a5960b400b31","","null","
                <div class=""stimulus-container"">
                    <img src=""images/semantic_sequence/exploring_nature_semantic/exploring_nature_semantic_ten.png"" class=""exp-image"">
                    <div class=""question-area""></div> 
                </div>","null","","","","","","","","",""
"","","","","","html-button-response","162","663701","0.0-162.0","F20D7FCDB2374DD293DD54C659A02DA1","019cf7c0-db29-7072-bede-130be3aae75a","019cf7bd-52b9-7f96-9138-a5960b400b31","","967","
                <div class=""stimulus-container"">
                    <img src=""images/semantic_sequence/exploring_nature_semantic/exploring_nature_semantic_ten.png"" class=""exp-image"">
                    <div class=""question-area"">
                        <p style=""font-size: 20px; font-weight: bold; margin: 0;"">Is there a person in this image?</p>
                    </div>
                </div>","0","main_experiment_trial","ten","exploring_nature_semantic","semantic_sequence","","","","",""
"","","","","","html-keyboard-response","163","664707","0.0-163.0","F20D7FCDB2374DD293DD54C659A02DA1","019cf7c0-db29-7072-bede-130be3aae75a","019cf7bd-52b9-7f96-9138-a5960b400b31","","null","<div style=""background-color: white; width: 100vw; height: 100vh;""></div>","null","","","","","","","","",""
"","","","","","html-keyboard-response","164","669721","0.0-164.0","F20D7FCDB2374DD293DD54C659A02DA1","019cf7c0-db29-7072-bede-130be3aae75a","019cf7bd-52b9-7f96-9138-a5960b400b31","","null","
                <div class=""stimulus-container"">
                    <img src=""images/schematic_sequence/interview_scheme/interview_scheme_1.png"" class=""exp-image"">
                    <div class=""question-area""></div> 
                </div>","null","","","","","","","","",""
"","","","","","html-button-response","165","671192","0.0-165.0","F20D7FCDB2374DD293DD54C659A02DA1","019cf7c0-db29-7072-bede-130be3aae75a","019cf7bd-52b9-7f96-9138-a5960b400b31","","1471","
                <div class=""stimulus-container"">
                    <img src=""images/schematic_sequence/interview_scheme/interview_scheme_1.png"" class=""exp-image"">
                    <div class=""question-area"">
                        <p style=""font-size: 20px; font-weight: bold; margin: 0;"">Is there a person in this image?</p>
                    </div>
                </div>","1","main_experiment_trial","1","interview_scheme","schematic_sequence","","","","",""
"","","","","","html-keyboard-response","166","676195","0.0-166.0","F20D7FCDB2374DD293DD54C659A02DA1","019cf7c0-db29-7072-bede-130be3aae75a","019cf7bd-52b9-7f96-9138-a5960b400b31","","null","
                <div class=""stimulus-container"">
                    <img src=""images/schematic_sequence/interview_scheme/interview_scheme_2.png"" class=""exp-image"">
                    <div class=""question-area""></div> 
                </div>","null","","","","","","","","",""
"","","","","","html-button-response","167","677506","0.0-167.0","F20D7FCDB2374DD293DD54C659A02DA1","019cf7c0-db29-7072-bede-130be3aae75a","019cf7bd-52b9-7f96-9138-a5960b400b31","","1309","
                <div class=""stimulus-container"">
                    <img src=""images/schematic_sequence/interview_scheme/interview_scheme_2.png"" class=""exp-image"">
                    <div class=""question-area"">
                        <p style=""font-size: 20px; font-weight: bold; margin: 0;"">Is there a person in this image?</p>
                    </div>
                </div>","1","main_experiment_trial","2","interview_scheme","schematic_sequence","","","","",""
"","","","","","html-keyboard-response","168","682511","0.0-168.0","F20D7FCDB2374DD293DD54C659A02DA1","019cf7c0-db29-7072-bede-130be3aae75a","019cf7bd-52b9-7f96-9138-a5960b400b31","","null","
                <div class=""stimulus-container"">
                    <img src=""images/schematic_sequence/interview_scheme/interview_scheme_3.png"" class=""exp-image"">
                    <div class=""question-area""></div> 
                </div>","null","","","","","","","","",""
"","","","","","html-button-response","169","683830","0.0-169.0","F20D7FCDB2374DD293DD54C659A02DA1","019cf7c0-db29-7072-bede-130be3aae75a","019cf7bd-52b9-7f96-9138-a5960b400b31","","1318","
                <div class=""stimulus-container"">
                    <img src=""images/schematic_sequence/interview_scheme/interview_scheme_3.png"" class=""exp-image"">
                    <div class=""question-area"">
                        <p style=""font-size: 20px; font-weight: bold; margin: 0;"">Is there a person in this image?</p>
                    </div>
                </div>","1","main_experiment_trial","3","interview_scheme","schematic_sequence","","","","",""
"","","","","","html-keyboard-response","170","688840","0.0-170.0","F20D7FCDB2374DD293DD54C659A02DA1","019cf7c0-db29-7072-bede-130be3aae75a","019cf7bd-52b9-7f96-9138-a5960b400b31","","null","
                <div class=""stimulus-container"">
                    <img src=""images/schematic_sequence/interview_scheme/interview_scheme_4.png"" class=""exp-image"">
                    <div class=""question-area""></div> 
                </div>","null","","","","","","","","",""
"","","","","","html-button-response","171","690062","0.0-171.0","F20D7FCDB2374DD293DD54C659A02DA1","019cf7c0-db29-7072-bede-130be3aae75a","019cf7bd-52b9-7f96-9138-a5960b400b31","","1222","
                <div class=""stimulus-container"">
                    <img src=""images/schematic_sequence/interview_scheme/interview_scheme_4.png"" class=""exp-image"">
                    <div class=""question-area"">
                        <p style=""font-size: 20px; font-weight: bold; margin: 0;"">Is there a person in this image?</p>
                    </div>
                </div>","1","main_experiment_trial","4","interview_scheme","schematic_sequence","","","","",""
"","","","","","html-keyboard-response","172","695063","0.0-172.0","F20D7FCDB2374DD293DD54C659A02DA1","019cf7c0-db29-7072-bede-130be3aae75a","019cf7bd-52b9-7f96-9138-a5960b400b31","","null","
                <div class=""stimulus-container"">
                    <img src=""images/schematic_sequence/interview_scheme/interview_scheme_5.png"" class=""exp-image"">
                    <div class=""question-area""></div> 
                </div>","null","","","","","","","","",""
"","","","","","html-button-response","173","696212","0.0-173.0","F20D7FCDB2374DD293DD54C659A02DA1","019cf7c0-db29-7072-bede-130be3aae75a","019cf7bd-52b9-7f96-9138-a5960b400b31","","1148","
                <div class=""stimulus-container"">
                    <img src=""images/schematic_sequence/interview_scheme/interview_scheme_5.png"" class=""exp-image"">
                    <div class=""question-area"">
                        <p style=""font-size: 20px; font-weight: bold; margin: 0;"">Is there a person in this image?</p>
                    </div>
                </div>","0","main_experiment_trial","5","interview_scheme","schematic_sequence","","","","",""
"","","","","","html-keyboard-response","174","701214","0.0-174.0","F20D7FCDB2374DD293DD54C659A02DA1","019cf7c0-db29-7072-bede-130be3aae75a","019cf7bd-52b9-7f96-9138-a5960b400b31","","null","
                <div class=""stimulus-container"">
                    <img src=""images/schematic_sequence/interview_scheme/interview_scheme_6.png"" class=""exp-image"">
                    <div class=""question-area""></div> 
                </div>","null","","","","","","","","",""
"","","","","","html-button-response","175","702237","0.0-175.0","F20D7FCDB2374DD293DD54C659A02DA1","019cf7c0-db29-7072-bede-130be3aae75a","019cf7bd-52b9-7f96-9138-a5960b400b31","","1022","
                <div class=""stimulus-container"">
                    <img src=""images/schematic_sequence/interview_scheme/interview_scheme_6.png"" class=""exp-image"">
                    <div class=""question-area"">
                        <p style=""font-size: 20px; font-weight: bold; margin: 0;"">Is there a person in this image?</p>
                    </div>
                </div>","0","main_experiment_trial","6","interview_scheme","schematic_sequence","","","","",""
"","","","","","html-keyboard-response","176","707245","0.0-176.0","F20D7FCDB2374DD293DD54C659A02DA1","019cf7c0-db29-7072-bede-130be3aae75a","019cf7bd-52b9-7f96-9138-a5960b400b31","","null","
                <div class=""stimulus-container"">
                    <img src=""images/schematic_sequence/interview_scheme/interview_scheme_7.png"" class=""exp-image"">
                    <div class=""question-area""></div> 
                </div>","null","","","","","","","","",""
"","","","","","html-button-response","177","707916","0.0-177.0","F20D7FCDB2374DD293DD54C659A02DA1","019cf7c0-db29-7072-bede-130be3aae75a","019cf7bd-52b9-7f96-9138-a5960b400b31","","670","
                <div class=""stimulus-container"">
                    <img src=""images/schematic_sequence/interview_scheme/interview_scheme_7.png"" class=""exp-image"">
                    <div class=""question-area"">
                        <p style=""font-size: 20px; font-weight: bold; margin: 0;"">Is there a person in this image?</p>
                    </div>
                </div>","0","main_experiment_trial","7","interview_scheme","schematic_sequence","","","","",""
"","","","","","html-keyboard-response","178","712932","0.0-178.0","F20D7FCDB2374DD293DD54C659A02DA1","019cf7c0-db29-7072-bede-130be3aae75a","019cf7bd-52b9-7f96-9138-a5960b400b31","","null","
                <div class=""stimulus-container"">
                    <img src=""images/schematic_sequence/interview_scheme/interview_scheme_8.png"" class=""exp-image"">
                    <div class=""question-area""></div> 
                </div>","null","","","","","","","","",""
"","","","","","html-button-response","179","713805","0.0-179.0","F20D7FCDB2374DD293DD54C659A02DA1","019cf7c0-db29-7072-bede-130be3aae75a","019cf7bd-52b9-7f96-9138-a5960b400b31","","872","
                <div class=""stimulus-container"">
                    <img src=""images/schematic_sequence/interview_scheme/interview_scheme_8.png"" class=""exp-image"">
                    <div class=""question-area"">
                        <p style=""font-size: 20px; font-weight: bold; margin: 0;"">Is there a person in this image?</p>
                    </div>
                </div>","0","main_experiment_trial","8","interview_scheme","schematic_sequence","","","","",""
