"success","timeout","failed_images","failed_audio","failed_video","trial_type","trial_index","time_elapsed","internal_node_id","subject_id","study_id","session_id","view_history","rt","stimulus","response","task","image_index","folder","sequence_type","presentation_order","valuable_image_index","reward_type","correct_choice","target_X","l_dist","r_dist","chosen_image_index","selected_after_X"
"true","false","[]","[]","[]","preload","0","14078","0.0-0.0","6856D29CC0AD487CA557F138AC7F9B4A","019d666e-964c-753f-bcbc-ddc115eaf98f","019d6630-2071-75cb-8026-6699844a2719","","","","","","","","","","","","","","","","",""
"","","","","","instructions","1","19812","0.0-1.0","6856D29CC0AD487CA557F138AC7F9B4A","019d666e-964c-753f-bcbc-ddc115eaf98f","019d6630-2071-75cb-8026-6699844a2719","[{""page_index"":0,""viewing_time"":5733}]","5733","","","","","","","","","","","","","","",""
"","","","","","instructions","2","33088","0.0-2.0","6856D29CC0AD487CA557F138AC7F9B4A","019d666e-964c-753f-bcbc-ddc115eaf98f","019d6630-2071-75cb-8026-6699844a2719","[{""page_index"":0,""viewing_time"":13276}]","13276","","","","","","","","","","","","","","",""
"true","","","","","fullscreen","3","37064","0.0-3.0","6856D29CC0AD487CA557F138AC7F9B4A","019d666e-964c-753f-bcbc-ddc115eaf98f","019d6630-2071-75cb-8026-6699844a2719","","2965","","","","","","","","","","","","","","",""
"","","","","","instructions","4","50562","0.0-4.0","6856D29CC0AD487CA557F138AC7F9B4A","019d666e-964c-753f-bcbc-ddc115eaf98f","019d6630-2071-75cb-8026-6699844a2719","[{""page_index"":0,""viewing_time"":13497}]","13498","","","","","","","","","","","","","","",""
"","","","","","instructions","5","60606","0.0-5.0","6856D29CC0AD487CA557F138AC7F9B4A","019d666e-964c-753f-bcbc-ddc115eaf98f","019d6630-2071-75cb-8026-6699844a2719","[{""page_index"":0,""viewing_time"":10043}]","10044","","","","","","","","","","","","","","",""
"","","","","","html-keyboard-response","6","64619","0.0-6.0","6856D29CC0AD487CA557F138AC7F9B4A","019d666e-964c-753f-bcbc-ddc115eaf98f","019d6630-2071-75cb-8026-6699844a2719","","null","
                <div class=""stimulus-container"">
                    <img src=""images/instructions/movie_1.png"" class=""exp-image"">
                    <div class=""question-area""></div> 
                </div>","null","","","","","","","","","","","","",""
"","","","","","html-button-response","7","67191","0.0-7.0","6856D29CC0AD487CA557F138AC7F9B4A","019d666e-964c-753f-bcbc-ddc115eaf98f","019d6630-2071-75cb-8026-6699844a2719","","2570","
                <div class=""stimulus-container"">
                    <img src=""images/instructions/movie_1.png"" class=""exp-image"">
                    <div class=""question-area"">
                        <p style=""font-size: 20px; font-weight: bold; margin: 0;"">Was there a person in this image?</p>
                    </div>
                </div>","0","example_question","1","","","","","","","","","","",""
"","","","","","html-keyboard-response","8","71206","0.0-8.0","6856D29CC0AD487CA557F138AC7F9B4A","019d666e-964c-753f-bcbc-ddc115eaf98f","019d6630-2071-75cb-8026-6699844a2719","","null","
                <div class=""stimulus-container"">
                    <img src=""images/instructions/movie_2.png"" class=""exp-image"">
                    <div class=""question-area""></div> 
                </div>","null","","","","","","","","","","","","",""
"","","","","","html-button-response","9","72108","0.0-9.0","6856D29CC0AD487CA557F138AC7F9B4A","019d666e-964c-753f-bcbc-ddc115eaf98f","019d6630-2071-75cb-8026-6699844a2719","","901","
                <div class=""stimulus-container"">
                    <img src=""images/instructions/movie_2.png"" class=""exp-image"">
                    <div class=""question-area"">
                        <p style=""font-size: 20px; font-weight: bold; margin: 0;"">Was there a person in this image?</p>
                    </div>
                </div>","0","example_question","2","","","","","","","","","","",""
"","","","","","html-keyboard-response","10","76123","0.0-10.0","6856D29CC0AD487CA557F138AC7F9B4A","019d666e-964c-753f-bcbc-ddc115eaf98f","019d6630-2071-75cb-8026-6699844a2719","","null","
                <div class=""stimulus-container"">
                    <img src=""images/instructions/movie_3.png"" class=""exp-image"">
                    <div class=""question-area""></div> 
                </div>","null","","","","","","","","","","","","",""
"","","","","","html-button-response","11","77012","0.0-11.0","6856D29CC0AD487CA557F138AC7F9B4A","019d666e-964c-753f-bcbc-ddc115eaf98f","019d6630-2071-75cb-8026-6699844a2719","","887","
                <div class=""stimulus-container"">
                    <img src=""images/instructions/movie_3.png"" class=""exp-image"">
                    <div class=""question-area"">
                        <p style=""font-size: 20px; font-weight: bold; margin: 0;"">Was there a person in this image?</p>
                    </div>
                </div>","0","example_question","3","","","","","","","","","","",""
"","","","","","html-keyboard-response","12","81024","0.0-12.0","6856D29CC0AD487CA557F138AC7F9B4A","019d666e-964c-753f-bcbc-ddc115eaf98f","019d6630-2071-75cb-8026-6699844a2719","","null","
                <div class=""stimulus-container"">
                    <img src=""images/instructions/movie_4.png"" class=""exp-image"">
                    <div class=""question-area""></div> 
                </div>","null","","","","","","","","","","","","",""
"","","","","","html-button-response","13","81858","0.0-13.0","6856D29CC0AD487CA557F138AC7F9B4A","019d666e-964c-753f-bcbc-ddc115eaf98f","019d6630-2071-75cb-8026-6699844a2719","","833","
                <div class=""stimulus-container"">
                    <img src=""images/instructions/movie_4.png"" class=""exp-image"">
                    <div class=""question-area"">
                        <p style=""font-size: 20px; font-weight: bold; margin: 0;"">Was there a person in this image?</p>
                    </div>
                </div>","0","example_question","4","","","","","","","","","","",""
"","","","","","instructions","14","84941","0.0-14.0","6856D29CC0AD487CA557F138AC7F9B4A","019d666e-964c-753f-bcbc-ddc115eaf98f","019d6630-2071-75cb-8026-6699844a2719","[{""page_index"":0,""viewing_time"":3082}]","3082","","","","","","","","","","","","","","",""
"","","","","","instructions","15","96916","0.0-15.0","6856D29CC0AD487CA557F138AC7F9B4A","019d666e-964c-753f-bcbc-ddc115eaf98f","019d6630-2071-75cb-8026-6699844a2719","[{""page_index"":0,""viewing_time"":11974}]","11974","","","","","","","","","","","","","","",""
"","","","","","html-keyboard-response","16","101919","0.0-16.0","6856D29CC0AD487CA557F138AC7F9B4A","019d666e-964c-753f-bcbc-ddc115eaf98f","019d6630-2071-75cb-8026-6699844a2719","","null","<div style=""background-color: white; width: 100vw; height: 100vh;""></div>","null","","","","","","","","","","","","",""
"","","","","","html-keyboard-response","17","106925","0.0-17.0","6856D29CC0AD487CA557F138AC7F9B4A","019d666e-964c-753f-bcbc-ddc115eaf98f","019d6630-2071-75cb-8026-6699844a2719","","null","
                <div class=""stimulus-container"">
                    <img src=""images/causal_sequence/museum_causal/museum_causal_1.png"" class=""exp-image"">
                    <div class=""question-area""></div> 
                </div>","null","","","","","","","","","","","","",""
"","","","","","html-button-response","18","108452","0.0-18.0","6856D29CC0AD487CA557F138AC7F9B4A","019d666e-964c-753f-bcbc-ddc115eaf98f","019d6630-2071-75cb-8026-6699844a2719","","1526","
                <div class=""stimulus-container"">
                    <img src=""images/causal_sequence/museum_causal/museum_causal_1.png"" class=""exp-image"">
                    <div class=""question-area"">
                        <p style=""font-size: 20px; font-weight: bold; margin: 0;"">Is there a person in this image?</p>
                    </div>
                </div>","0","main_experiment_trial","1","museum_causal","causal_sequence","chronological","","","","","","","",""
"","","","","","html-keyboard-response","19","113460","0.0-19.0","6856D29CC0AD487CA557F138AC7F9B4A","019d666e-964c-753f-bcbc-ddc115eaf98f","019d6630-2071-75cb-8026-6699844a2719","","null","
                <div class=""stimulus-container"">
                    <img src=""images/causal_sequence/museum_causal/museum_causal_2.png"" class=""exp-image"">
                    <div class=""question-area""></div> 
                </div>","null","","","","","","","","","","","","",""
"","","","","","html-button-response","20","114149","0.0-20.0","6856D29CC0AD487CA557F138AC7F9B4A","019d666e-964c-753f-bcbc-ddc115eaf98f","019d6630-2071-75cb-8026-6699844a2719","","687","
                <div class=""stimulus-container"">
                    <img src=""images/causal_sequence/museum_causal/museum_causal_2.png"" class=""exp-image"">
                    <div class=""question-area"">
                        <p style=""font-size: 20px; font-weight: bold; margin: 0;"">Is there a person in this image?</p>
                    </div>
                </div>","0","main_experiment_trial","2","museum_causal","causal_sequence","chronological","","","","","","","",""
"","","","","","html-keyboard-response","21","119163","0.0-21.0","6856D29CC0AD487CA557F138AC7F9B4A","019d666e-964c-753f-bcbc-ddc115eaf98f","019d6630-2071-75cb-8026-6699844a2719","","null","
                <div class=""stimulus-container"">
                    <img src=""images/causal_sequence/museum_causal/museum_causal_3.png"" class=""exp-image"">
                    <div class=""question-area""></div> 
                </div>","null","","","","","","","","","","","","",""
"","","","","","html-button-response","22","120743","0.0-22.0","6856D29CC0AD487CA557F138AC7F9B4A","019d666e-964c-753f-bcbc-ddc115eaf98f","019d6630-2071-75cb-8026-6699844a2719","","1578","
                <div class=""stimulus-container"">
                    <img src=""images/causal_sequence/museum_causal/museum_causal_3.png"" class=""exp-image"">
                    <div class=""question-area"">
                        <p style=""font-size: 20px; font-weight: bold; margin: 0;"">Is there a person in this image?</p>
                    </div>
                </div>","0","main_experiment_trial","3","museum_causal","causal_sequence","chronological","","","","","","","",""
"","","","","","html-keyboard-response","23","125752","0.0-23.0","6856D29CC0AD487CA557F138AC7F9B4A","019d666e-964c-753f-bcbc-ddc115eaf98f","019d6630-2071-75cb-8026-6699844a2719","","null","
                <div class=""stimulus-container"">
                    <img src=""images/causal_sequence/museum_causal/museum_causal_4.png"" class=""exp-image"">
                    <div class=""question-area""></div> 
                </div>","null","","","","","","","","","","","","",""
"","","","","","html-button-response","24","126487","0.0-24.0","6856D29CC0AD487CA557F138AC7F9B4A","019d666e-964c-753f-bcbc-ddc115eaf98f","019d6630-2071-75cb-8026-6699844a2719","","733","
                <div class=""stimulus-container"">
                    <img src=""images/causal_sequence/museum_causal/museum_causal_4.png"" class=""exp-image"">
                    <div class=""question-area"">
                        <p style=""font-size: 20px; font-weight: bold; margin: 0;"">Is there a person in this image?</p>
                    </div>
                </div>","1","main_experiment_trial","4","museum_causal","causal_sequence","chronological","","","","","","","",""
"","","","","","html-keyboard-response","25","131501","0.0-25.0","6856D29CC0AD487CA557F138AC7F9B4A","019d666e-964c-753f-bcbc-ddc115eaf98f","019d6630-2071-75cb-8026-6699844a2719","","null","
                <div class=""stimulus-container"">
                    <img src=""images/causal_sequence/museum_causal/museum_causal_5.png"" class=""exp-image"">
                    <div class=""question-area""></div> 
                </div>","null","","","","","","","","","","","","",""
"","","","","","html-button-response","26","133871","0.0-26.0","6856D29CC0AD487CA557F138AC7F9B4A","019d666e-964c-753f-bcbc-ddc115eaf98f","019d6630-2071-75cb-8026-6699844a2719","","2369","
                <div class=""stimulus-container"">
                    <img src=""images/causal_sequence/museum_causal/museum_causal_5.png"" class=""exp-image"">
                    <div class=""question-area"">
                        <p style=""font-size: 20px; font-weight: bold; margin: 0;"">Is there a person in this image?</p>
                    </div>
                </div>","0","main_experiment_trial","5","museum_causal","causal_sequence","chronological","","","","","","","",""
"","","","","","html-keyboard-response","27","138886","0.0-27.0","6856D29CC0AD487CA557F138AC7F9B4A","019d666e-964c-753f-bcbc-ddc115eaf98f","019d6630-2071-75cb-8026-6699844a2719","","null","
                <div class=""stimulus-container"">
                    <img src=""images/causal_sequence/museum_causal/museum_causal_6.png"" class=""exp-image"">
                    <div class=""question-area""></div> 
                </div>","null","","","","","","","","","","","","",""
"","","","","","html-button-response","28","139624","0.0-28.0","6856D29CC0AD487CA557F138AC7F9B4A","019d666e-964c-753f-bcbc-ddc115eaf98f","019d6630-2071-75cb-8026-6699844a2719","","737","
                <div class=""stimulus-container"">
                    <img src=""images/causal_sequence/museum_causal/museum_causal_6.png"" class=""exp-image"">
                    <div class=""question-area"">
                        <p style=""font-size: 20px; font-weight: bold; margin: 0;"">Is there a person in this image?</p>
                    </div>
                </div>","0","main_experiment_trial","6","museum_causal","causal_sequence","chronological","","","","","","","",""
"","","","","","html-keyboard-response","29","144629","0.0-29.0","6856D29CC0AD487CA557F138AC7F9B4A","019d666e-964c-753f-bcbc-ddc115eaf98f","019d6630-2071-75cb-8026-6699844a2719","","null","
                <div class=""stimulus-container"">
                    <img src=""images/causal_sequence/museum_causal/museum_causal_7.png"" class=""exp-image"">
                    <div class=""question-area""></div> 
                </div>","null","","","","","","","","","","","","",""
"","","","","","html-button-response","30","145352","0.0-30.0","6856D29CC0AD487CA557F138AC7F9B4A","019d666e-964c-753f-bcbc-ddc115eaf98f","019d6630-2071-75cb-8026-6699844a2719","","722","
                <div class=""stimulus-container"">
                    <img src=""images/causal_sequence/museum_causal/museum_causal_7.png"" class=""exp-image"">
                    <div class=""question-area"">
                        <p style=""font-size: 20px; font-weight: bold; margin: 0;"">Is there a person in this image?</p>
                    </div>
                </div>","1","main_experiment_trial","7","museum_causal","causal_sequence","chronological","","","","","","","",""
"","","","","","html-keyboard-response","31","150367","0.0-31.0","6856D29CC0AD487CA557F138AC7F9B4A","019d666e-964c-753f-bcbc-ddc115eaf98f","019d6630-2071-75cb-8026-6699844a2719","","null","
                <div class=""stimulus-container"">
                    <img src=""images/causal_sequence/museum_causal/museum_causal_8.png"" class=""exp-image"">
                    <div class=""question-area""></div> 
                </div>","null","","","","","","","","","","","","",""
"","","","","","html-button-response","32","151420","0.0-32.0","6856D29CC0AD487CA557F138AC7F9B4A","019d666e-964c-753f-bcbc-ddc115eaf98f","019d6630-2071-75cb-8026-6699844a2719","","1052","
                <div class=""stimulus-container"">
                    <img src=""images/causal_sequence/museum_causal/museum_causal_8.png"" class=""exp-image"">
                    <div class=""question-area"">
                        <p style=""font-size: 20px; font-weight: bold; margin: 0;"">Is there a person in this image?</p>
                    </div>
                </div>","0","main_experiment_trial","8","museum_causal","causal_sequence","chronological","","","","","","","",""
"","","","","","html-keyboard-response","33","156436","0.0-33.0","6856D29CC0AD487CA557F138AC7F9B4A","019d666e-964c-753f-bcbc-ddc115eaf98f","019d6630-2071-75cb-8026-6699844a2719","","null","
                <div class=""stimulus-container"">
                    <img src=""images/causal_sequence/museum_causal/museum_causal_9.png"" class=""exp-image"">
                    <div class=""question-area""></div> 
                </div>","null","","","","","","","","","","","","",""
"","","","","","html-button-response","34","157581","0.0-34.0","6856D29CC0AD487CA557F138AC7F9B4A","019d666e-964c-753f-bcbc-ddc115eaf98f","019d6630-2071-75cb-8026-6699844a2719","","1143","
                <div class=""stimulus-container"">
                    <img src=""images/causal_sequence/museum_causal/museum_causal_9.png"" class=""exp-image"">
                    <div class=""question-area"">
                        <p style=""font-size: 20px; font-weight: bold; margin: 0;"">Is there a person in this image?</p>
                    </div>
                </div>","1","main_experiment_trial","9","museum_causal","causal_sequence","chronological","","","","","","","",""
"","","","","","html-keyboard-response","35","162585","0.0-35.0","6856D29CC0AD487CA557F138AC7F9B4A","019d666e-964c-753f-bcbc-ddc115eaf98f","019d6630-2071-75cb-8026-6699844a2719","","null","
                <div class=""stimulus-container"">
                    <img src=""images/causal_sequence/museum_causal/museum_causal_ten.png"" class=""exp-image"">
                    <div class=""question-area""></div> 
                </div>","null","","","","","","","","","","","","",""
"","","","","","html-button-response","36","164110","0.0-36.0","6856D29CC0AD487CA557F138AC7F9B4A","019d666e-964c-753f-bcbc-ddc115eaf98f","019d6630-2071-75cb-8026-6699844a2719","","1524","
                <div class=""stimulus-container"">
                    <img src=""images/causal_sequence/museum_causal/museum_causal_ten.png"" class=""exp-image"">
                    <div class=""question-area"">
                        <p style=""font-size: 20px; font-weight: bold; margin: 0;"">Is there a person in this image?</p>
                    </div>
                </div>","0","main_experiment_trial","ten","museum_causal","causal_sequence","chronological","","","","","","","",""
"","","","","","html-keyboard-response","37","169113","0.0-37.0","6856D29CC0AD487CA557F138AC7F9B4A","019d666e-964c-753f-bcbc-ddc115eaf98f","019d6630-2071-75cb-8026-6699844a2719","","null","<div style=""background-color: white; width: 100vw; height: 100vh;""></div>","null","","","","","","","","","","","","",""
"","","","","","html-keyboard-response","38","174116","0.0-38.0","6856D29CC0AD487CA557F138AC7F9B4A","019d666e-964c-753f-bcbc-ddc115eaf98f","019d6630-2071-75cb-8026-6699844a2719","","null","
                <div class=""stimulus-container"">
                    <img src=""images/schematic_sequence/supermarket_scheme/supermarket_scheme_1.png"" class=""exp-image"">
                    <div class=""question-area""></div> 
                </div>","null","","","","","","","","","","","","",""
"","","","","","html-button-response","39","175957","0.0-39.0","6856D29CC0AD487CA557F138AC7F9B4A","019d666e-964c-753f-bcbc-ddc115eaf98f","019d6630-2071-75cb-8026-6699844a2719","","1840","
                <div class=""stimulus-container"">
                    <img src=""images/schematic_sequence/supermarket_scheme/supermarket_scheme_1.png"" class=""exp-image"">
                    <div class=""question-area"">
                        <p style=""font-size: 20px; font-weight: bold; margin: 0;"">Is there a person in this image?</p>
                    </div>
                </div>","1","main_experiment_trial","1","supermarket_scheme","schematic_sequence","chronological","","","","","","","",""
"","","","","","html-keyboard-response","40","180964","0.0-40.0","6856D29CC0AD487CA557F138AC7F9B4A","019d666e-964c-753f-bcbc-ddc115eaf98f","019d6630-2071-75cb-8026-6699844a2719","","null","
                <div class=""stimulus-container"">
                    <img src=""images/schematic_sequence/supermarket_scheme/supermarket_scheme_2.png"" class=""exp-image"">
                    <div class=""question-area""></div> 
                </div>","null","","","","","","","","","","","","",""
"","","","","","html-button-response","41","181707","0.0-41.0","6856D29CC0AD487CA557F138AC7F9B4A","019d666e-964c-753f-bcbc-ddc115eaf98f","019d6630-2071-75cb-8026-6699844a2719","","742","
                <div class=""stimulus-container"">
                    <img src=""images/schematic_sequence/supermarket_scheme/supermarket_scheme_2.png"" class=""exp-image"">
                    <div class=""question-area"">
                        <p style=""font-size: 20px; font-weight: bold; margin: 0;"">Is there a person in this image?</p>
                    </div>
                </div>","1","main_experiment_trial","2","supermarket_scheme","schematic_sequence","chronological","","","","","","","",""
"","","","","","html-keyboard-response","42","186721","0.0-42.0","6856D29CC0AD487CA557F138AC7F9B4A","019d666e-964c-753f-bcbc-ddc115eaf98f","019d6630-2071-75cb-8026-6699844a2719","","null","
                <div class=""stimulus-container"">
                    <img src=""images/schematic_sequence/supermarket_scheme/supermarket_scheme_3.png"" class=""exp-image"">
                    <div class=""question-area""></div> 
                </div>","null","","","","","","","","","","","","",""
"","","","","","html-button-response","43","187607","0.0-43.0","6856D29CC0AD487CA557F138AC7F9B4A","019d666e-964c-753f-bcbc-ddc115eaf98f","019d6630-2071-75cb-8026-6699844a2719","","885","
                <div class=""stimulus-container"">
                    <img src=""images/schematic_sequence/supermarket_scheme/supermarket_scheme_3.png"" class=""exp-image"">
                    <div class=""question-area"">
                        <p style=""font-size: 20px; font-weight: bold; margin: 0;"">Is there a person in this image?</p>
                    </div>
                </div>","1","main_experiment_trial","3","supermarket_scheme","schematic_sequence","chronological","","","","","","","",""
"","","","","","html-keyboard-response","44","192623","0.0-44.0","6856D29CC0AD487CA557F138AC7F9B4A","019d666e-964c-753f-bcbc-ddc115eaf98f","019d6630-2071-75cb-8026-6699844a2719","","null","
                <div class=""stimulus-container"">
                    <img src=""images/schematic_sequence/supermarket_scheme/supermarket_scheme_4.png"" class=""exp-image"">
                    <div class=""question-area""></div> 
                </div>","null","","","","","","","","","","","","",""
"","","","","","html-button-response","45","193350","0.0-45.0","6856D29CC0AD487CA557F138AC7F9B4A","019d666e-964c-753f-bcbc-ddc115eaf98f","019d6630-2071-75cb-8026-6699844a2719","","726","
                <div class=""stimulus-container"">
                    <img src=""images/schematic_sequence/supermarket_scheme/supermarket_scheme_4.png"" class=""exp-image"">
                    <div class=""question-area"">
                        <p style=""font-size: 20px; font-weight: bold; margin: 0;"">Is there a person in this image?</p>
                    </div>
                </div>","0","main_experiment_trial","4","supermarket_scheme","schematic_sequence","chronological","","","","","","","",""
"","","","","","html-keyboard-response","46","198356","0.0-46.0","6856D29CC0AD487CA557F138AC7F9B4A","019d666e-964c-753f-bcbc-ddc115eaf98f","019d6630-2071-75cb-8026-6699844a2719","","null","
                <div class=""stimulus-container"">
                    <img src=""images/schematic_sequence/supermarket_scheme/supermarket_scheme_5.png"" class=""exp-image"">
                    <div class=""question-area""></div> 
                </div>","null","","","","","","","","","","","","",""
"","","","","","html-button-response","47","200383","0.0-47.0","6856D29CC0AD487CA557F138AC7F9B4A","019d666e-964c-753f-bcbc-ddc115eaf98f","019d6630-2071-75cb-8026-6699844a2719","","2026","
                <div class=""stimulus-container"">
                    <img src=""images/schematic_sequence/supermarket_scheme/supermarket_scheme_5.png"" class=""exp-image"">
                    <div class=""question-area"">
                        <p style=""font-size: 20px; font-weight: bold; margin: 0;"">Is there a person in this image?</p>
                    </div>
                </div>","1","main_experiment_trial","5","supermarket_scheme","schematic_sequence","chronological","","","","","","","",""
"","","","","","html-keyboard-response","48","205391","0.0-48.0","6856D29CC0AD487CA557F138AC7F9B4A","019d666e-964c-753f-bcbc-ddc115eaf98f","019d6630-2071-75cb-8026-6699844a2719","","null","
                <div class=""stimulus-container"">
                    <img src=""images/schematic_sequence/supermarket_scheme/supermarket_scheme_6.png"" class=""exp-image"">
                    <div class=""question-area""></div> 
                </div>","null","","","","","","","","","","","","",""
"","","","","","html-button-response","49","206183","0.0-49.0","6856D29CC0AD487CA557F138AC7F9B4A","019d666e-964c-753f-bcbc-ddc115eaf98f","019d6630-2071-75cb-8026-6699844a2719","","790","
                <div class=""stimulus-container"">
                    <img src=""images/schematic_sequence/supermarket_scheme/supermarket_scheme_6.png"" class=""exp-image"">
                    <div class=""question-area"">
                        <p style=""font-size: 20px; font-weight: bold; margin: 0;"">Is there a person in this image?</p>
                    </div>
                </div>","0","main_experiment_trial","6","supermarket_scheme","schematic_sequence","chronological","","","","","","","",""
"","","","","","html-keyboard-response","50","211192","0.0-50.0","6856D29CC0AD487CA557F138AC7F9B4A","019d666e-964c-753f-bcbc-ddc115eaf98f","019d6630-2071-75cb-8026-6699844a2719","","null","
                <div class=""stimulus-container"">
                    <img src=""images/schematic_sequence/supermarket_scheme/supermarket_scheme_7.png"" class=""exp-image"">
                    <div class=""question-area""></div> 
                </div>","null","","","","","","","","","","","","",""
"","","","","","html-button-response","51","212364","0.0-51.0","6856D29CC0AD487CA557F138AC7F9B4A","019d666e-964c-753f-bcbc-ddc115eaf98f","019d6630-2071-75cb-8026-6699844a2719","","1170","
                <div class=""stimulus-container"">
                    <img src=""images/schematic_sequence/supermarket_scheme/supermarket_scheme_7.png"" class=""exp-image"">
                    <div class=""question-area"">
                        <p style=""font-size: 20px; font-weight: bold; margin: 0;"">Is there a person in this image?</p>
                    </div>
                </div>","0","main_experiment_trial","7","supermarket_scheme","schematic_sequence","chronological","","","","","","","",""
"","","","","","html-keyboard-response","52","217380","0.0-52.0","6856D29CC0AD487CA557F138AC7F9B4A","019d666e-964c-753f-bcbc-ddc115eaf98f","019d6630-2071-75cb-8026-6699844a2719","","null","
                <div class=""stimulus-container"">
                    <img src=""images/schematic_sequence/supermarket_scheme/supermarket_scheme_8.png"" class=""exp-image"">
                    <div class=""question-area""></div> 
                </div>","null","","","","","","","","","","","","",""
"","","","","","html-button-response","53","220060","0.0-53.0","6856D29CC0AD487CA557F138AC7F9B4A","019d666e-964c-753f-bcbc-ddc115eaf98f","019d6630-2071-75cb-8026-6699844a2719","","2678","
                <div class=""stimulus-container"">
                    <img src=""images/schematic_sequence/supermarket_scheme/supermarket_scheme_8.png"" class=""exp-image"">
                    <div class=""question-area"">
                        <p style=""font-size: 20px; font-weight: bold; margin: 0;"">Is there a person in this image?</p>
                    </div>
                </div>","0","main_experiment_trial","8","supermarket_scheme","schematic_sequence","chronological","","","","","","","",""
"","","","","","html-keyboard-response","54","225063","0.0-54.0","6856D29CC0AD487CA557F138AC7F9B4A","019d666e-964c-753f-bcbc-ddc115eaf98f","019d6630-2071-75cb-8026-6699844a2719","","null","
                <div class=""stimulus-container"">
                    <img src=""images/schematic_sequence/supermarket_scheme/supermarket_scheme_9.png"" class=""exp-image"">
                    <div class=""question-area""></div> 
                </div>","null","","","","","","","","","","","","",""
"","","","","","html-button-response","55","226995","0.0-55.0","6856D29CC0AD487CA557F138AC7F9B4A","019d666e-964c-753f-bcbc-ddc115eaf98f","019d6630-2071-75cb-8026-6699844a2719","","1931","
                <div class=""stimulus-container"">
                    <img src=""images/schematic_sequence/supermarket_scheme/supermarket_scheme_9.png"" class=""exp-image"">
                    <div class=""question-area"">
                        <p style=""font-size: 20px; font-weight: bold; margin: 0;"">Is there a person in this image?</p>
                    </div>
                </div>","0","main_experiment_trial","9","supermarket_scheme","schematic_sequence","chronological","","","","","","","",""
"","","","","","html-keyboard-response","56","232010","0.0-56.0","6856D29CC0AD487CA557F138AC7F9B4A","019d666e-964c-753f-bcbc-ddc115eaf98f","019d6630-2071-75cb-8026-6699844a2719","","null","
                <div class=""stimulus-container"">
                    <img src=""images/schematic_sequence/supermarket_scheme/supermarket_scheme_ten.png"" class=""exp-image"">
                    <div class=""question-area""></div> 
                </div>","null","","","","","","","","","","","","",""
"","","","","","html-button-response","57","232775","0.0-57.0","6856D29CC0AD487CA557F138AC7F9B4A","019d666e-964c-753f-bcbc-ddc115eaf98f","019d6630-2071-75cb-8026-6699844a2719","","764","
                <div class=""stimulus-container"">
                    <img src=""images/schematic_sequence/supermarket_scheme/supermarket_scheme_ten.png"" class=""exp-image"">
                    <div class=""question-area"">
                        <p style=""font-size: 20px; font-weight: bold; margin: 0;"">Is there a person in this image?</p>
                    </div>
                </div>","1","main_experiment_trial","ten","supermarket_scheme","schematic_sequence","chronological","","","","","","","",""
"","","","","","html-keyboard-response","58","237791","0.0-58.0","6856D29CC0AD487CA557F138AC7F9B4A","019d666e-964c-753f-bcbc-ddc115eaf98f","019d6630-2071-75cb-8026-6699844a2719","","null","<div style=""background-color: white; width: 100vw; height: 100vh;""></div>","null","","","","","","","","","","","","",""
"","","","","","html-keyboard-response","59","242804","0.0-59.0","6856D29CC0AD487CA557F138AC7F9B4A","019d666e-964c-753f-bcbc-ddc115eaf98f","019d6630-2071-75cb-8026-6699844a2719","","null","
                <div class=""stimulus-container"">
                    <img src=""images/causal_sequence/dog_causal/dog_causal_1.png"" class=""exp-image"">
                    <div class=""question-area""></div> 
                </div>","null","","","","","","","","","","","","",""
"","","","","","html-button-response","60","243883","0.0-60.0","6856D29CC0AD487CA557F138AC7F9B4A","019d666e-964c-753f-bcbc-ddc115eaf98f","019d6630-2071-75cb-8026-6699844a2719","","1077","
                <div class=""stimulus-container"">
                    <img src=""images/causal_sequence/dog_causal/dog_causal_1.png"" class=""exp-image"">
                    <div class=""question-area"">
                        <p style=""font-size: 20px; font-weight: bold; margin: 0;"">Is there a person in this image?</p>
                    </div>
                </div>","0","main_experiment_trial","1","dog_causal","causal_sequence","chronological","","","","","","","",""
"","","","","","html-keyboard-response","61","248889","0.0-61.0","6856D29CC0AD487CA557F138AC7F9B4A","019d666e-964c-753f-bcbc-ddc115eaf98f","019d6630-2071-75cb-8026-6699844a2719","","null","
                <div class=""stimulus-container"">
                    <img src=""images/causal_sequence/dog_causal/dog_causal_2.png"" class=""exp-image"">
                    <div class=""question-area""></div> 
                </div>","null","","","","","","","","","","","","",""
"","","","","","html-button-response","62","249889","0.0-62.0","6856D29CC0AD487CA557F138AC7F9B4A","019d666e-964c-753f-bcbc-ddc115eaf98f","019d6630-2071-75cb-8026-6699844a2719","","999","
                <div class=""stimulus-container"">
                    <img src=""images/causal_sequence/dog_causal/dog_causal_2.png"" class=""exp-image"">
                    <div class=""question-area"">
                        <p style=""font-size: 20px; font-weight: bold; margin: 0;"">Is there a person in this image?</p>
                    </div>
                </div>","0","main_experiment_trial","2","dog_causal","causal_sequence","chronological","","","","","","","",""
"","","","","","html-keyboard-response","63","254900","0.0-63.0","6856D29CC0AD487CA557F138AC7F9B4A","019d666e-964c-753f-bcbc-ddc115eaf98f","019d6630-2071-75cb-8026-6699844a2719","","null","
                <div class=""stimulus-container"">
                    <img src=""images/causal_sequence/dog_causal/dog_causal_3.png"" class=""exp-image"">
                    <div class=""question-area""></div> 
                </div>","null","","","","","","","","","","","","",""
"","","","","","html-button-response","64","255781","0.0-64.0","6856D29CC0AD487CA557F138AC7F9B4A","019d666e-964c-753f-bcbc-ddc115eaf98f","019d6630-2071-75cb-8026-6699844a2719","","880","
                <div class=""stimulus-container"">
                    <img src=""images/causal_sequence/dog_causal/dog_causal_3.png"" class=""exp-image"">
                    <div class=""question-area"">
                        <p style=""font-size: 20px; font-weight: bold; margin: 0;"">Is there a person in this image?</p>
                    </div>
                </div>","0","main_experiment_trial","3","dog_causal","causal_sequence","chronological","","","","","","","",""
"","","","","","html-keyboard-response","65","260783","0.0-65.0","6856D29CC0AD487CA557F138AC7F9B4A","019d666e-964c-753f-bcbc-ddc115eaf98f","019d6630-2071-75cb-8026-6699844a2719","","null","
                <div class=""stimulus-container"">
                    <img src=""images/causal_sequence/dog_causal/dog_causal_4.png"" class=""exp-image"">
                    <div class=""question-area""></div> 
                </div>","null","","","","","","","","","","","","",""
"","","","","","html-button-response","66","261578","0.0-66.0","6856D29CC0AD487CA557F138AC7F9B4A","019d666e-964c-753f-bcbc-ddc115eaf98f","019d6630-2071-75cb-8026-6699844a2719","","793","
                <div class=""stimulus-container"">
                    <img src=""images/causal_sequence/dog_causal/dog_causal_4.png"" class=""exp-image"">
                    <div class=""question-area"">
                        <p style=""font-size: 20px; font-weight: bold; margin: 0;"">Is there a person in this image?</p>
                    </div>
                </div>","0","main_experiment_trial","4","dog_causal","causal_sequence","chronological","","","","","","","",""
"","","","","","html-keyboard-response","67","266583","0.0-67.0","6856D29CC0AD487CA557F138AC7F9B4A","019d666e-964c-753f-bcbc-ddc115eaf98f","019d6630-2071-75cb-8026-6699844a2719","","null","
                <div class=""stimulus-container"">
                    <img src=""images/causal_sequence/dog_causal/dog_causal_5.png"" class=""exp-image"">
                    <div class=""question-area""></div> 
                </div>","null","","","","","","","","","","","","",""
"","","","","","html-button-response","68","267660","0.0-68.0","6856D29CC0AD487CA557F138AC7F9B4A","019d666e-964c-753f-bcbc-ddc115eaf98f","019d6630-2071-75cb-8026-6699844a2719","","1076","
                <div class=""stimulus-container"">
                    <img src=""images/causal_sequence/dog_causal/dog_causal_5.png"" class=""exp-image"">
                    <div class=""question-area"">
                        <p style=""font-size: 20px; font-weight: bold; margin: 0;"">Is there a person in this image?</p>
                    </div>
                </div>","0","main_experiment_trial","5","dog_causal","causal_sequence","chronological","","","","","","","",""
"","","","","","html-keyboard-response","69","272677","0.0-69.0","6856D29CC0AD487CA557F138AC7F9B4A","019d666e-964c-753f-bcbc-ddc115eaf98f","019d6630-2071-75cb-8026-6699844a2719","","null","
                <div class=""stimulus-container"">
                    <img src=""images/causal_sequence/dog_causal/dog_causal_6.png"" class=""exp-image"">
                    <div class=""question-area""></div> 
                </div>","null","","","","","","","","","","","","",""
"","","","","","html-button-response","70","273844","0.0-70.0","6856D29CC0AD487CA557F138AC7F9B4A","019d666e-964c-753f-bcbc-ddc115eaf98f","019d6630-2071-75cb-8026-6699844a2719","","1166","
                <div class=""stimulus-container"">
                    <img src=""images/causal_sequence/dog_causal/dog_causal_6.png"" class=""exp-image"">
                    <div class=""question-area"">
                        <p style=""font-size: 20px; font-weight: bold; margin: 0;"">Is there a person in this image?</p>
                    </div>
                </div>","0","main_experiment_trial","6","dog_causal","causal_sequence","chronological","","","","","","","",""
"","","","","","html-keyboard-response","71","278847","0.0-71.0","6856D29CC0AD487CA557F138AC7F9B4A","019d666e-964c-753f-bcbc-ddc115eaf98f","019d6630-2071-75cb-8026-6699844a2719","","null","
                <div class=""stimulus-container"">
                    <img src=""images/causal_sequence/dog_causal/dog_causal_7.png"" class=""exp-image"">
                    <div class=""question-area""></div> 
                </div>","null","","","","","","","","","","","","",""
"","","","","","html-button-response","72","279857","0.0-72.0","6856D29CC0AD487CA557F138AC7F9B4A","019d666e-964c-753f-bcbc-ddc115eaf98f","019d6630-2071-75cb-8026-6699844a2719","","1009","
                <div class=""stimulus-container"">
                    <img src=""images/causal_sequence/dog_causal/dog_causal_7.png"" class=""exp-image"">
                    <div class=""question-area"">
                        <p style=""font-size: 20px; font-weight: bold; margin: 0;"">Is there a person in this image?</p>
                    </div>
                </div>","0","main_experiment_trial","7","dog_causal","causal_sequence","chronological","","","","","","","",""
"","","","","","html-keyboard-response","73","284874","0.0-73.0","6856D29CC0AD487CA557F138AC7F9B4A","019d666e-964c-753f-bcbc-ddc115eaf98f","019d6630-2071-75cb-8026-6699844a2719","","null","
                <div class=""stimulus-container"">
                    <img src=""images/causal_sequence/dog_causal/dog_causal_8.png"" class=""exp-image"">
                    <div class=""question-area""></div> 
                </div>","null","","","","","","","","","","","","",""
"","","","","","html-button-response","74","285586","0.0-74.0","6856D29CC0AD487CA557F138AC7F9B4A","019d666e-964c-753f-bcbc-ddc115eaf98f","019d6630-2071-75cb-8026-6699844a2719","","712","
                <div class=""stimulus-container"">
                    <img src=""images/causal_sequence/dog_causal/dog_causal_8.png"" class=""exp-image"">
                    <div class=""question-area"">
                        <p style=""font-size: 20px; font-weight: bold; margin: 0;"">Is there a person in this image?</p>
                    </div>
                </div>","0","main_experiment_trial","8","dog_causal","causal_sequence","chronological","","","","","","","",""
"","","","","","html-keyboard-response","75","290602","0.0-75.0","6856D29CC0AD487CA557F138AC7F9B4A","019d666e-964c-753f-bcbc-ddc115eaf98f","019d6630-2071-75cb-8026-6699844a2719","","null","
                <div class=""stimulus-container"">
                    <img src=""images/causal_sequence/dog_causal/dog_causal_9.png"" class=""exp-image"">
                    <div class=""question-area""></div> 
                </div>","null","","","","","","","","","","","","",""
"","","","","","html-button-response","76","292603","0.0-76.0","6856D29CC0AD487CA557F138AC7F9B4A","019d666e-964c-753f-bcbc-ddc115eaf98f","019d6630-2071-75cb-8026-6699844a2719","","2000","
                <div class=""stimulus-container"">
                    <img src=""images/causal_sequence/dog_causal/dog_causal_9.png"" class=""exp-image"">
                    <div class=""question-area"">
                        <p style=""font-size: 20px; font-weight: bold; margin: 0;"">Is there a person in this image?</p>
                    </div>
                </div>","0","main_experiment_trial","9","dog_causal","causal_sequence","chronological","","","","","","","",""
"","","","","","html-keyboard-response","77","297610","0.0-77.0","6856D29CC0AD487CA557F138AC7F9B4A","019d666e-964c-753f-bcbc-ddc115eaf98f","019d6630-2071-75cb-8026-6699844a2719","","null","
                <div class=""stimulus-container"">
                    <img src=""images/causal_sequence/dog_causal/dog_causal_ten.png"" class=""exp-image"">
                    <div class=""question-area""></div> 
                </div>","null","","","","","","","","","","","","",""
"","","","","","html-button-response","78","298415","0.0-78.0","6856D29CC0AD487CA557F138AC7F9B4A","019d666e-964c-753f-bcbc-ddc115eaf98f","019d6630-2071-75cb-8026-6699844a2719","","805","
                <div class=""stimulus-container"">
                    <img src=""images/causal_sequence/dog_causal/dog_causal_ten.png"" class=""exp-image"">
                    <div class=""question-area"">
                        <p style=""font-size: 20px; font-weight: bold; margin: 0;"">Is there a person in this image?</p>
                    </div>
                </div>","0","main_experiment_trial","ten","dog_causal","causal_sequence","chronological","","","","","","","",""
"","","","","","html-keyboard-response","79","303423","0.0-79.0","6856D29CC0AD487CA557F138AC7F9B4A","019d666e-964c-753f-bcbc-ddc115eaf98f","019d6630-2071-75cb-8026-6699844a2719","","null","<div style=""background-color: white; width: 100vw; height: 100vh;""></div>","null","","","","","","","","","","","","",""
"","","","","","html-keyboard-response","80","308435","0.0-80.0","6856D29CC0AD487CA557F138AC7F9B4A","019d666e-964c-753f-bcbc-ddc115eaf98f","019d6630-2071-75cb-8026-6699844a2719","","null","
                <div class=""stimulus-container"">
                    <img src=""images/schematic_sequence/dinner_party_scheme/dinner_party_scheme_1.png"" class=""exp-image"">
                    <div class=""question-area""></div> 
                </div>","null","","","","","","","","","","","","",""
"","","","","","html-button-response","81","310716","0.0-81.0","6856D29CC0AD487CA557F138AC7F9B4A","019d666e-964c-753f-bcbc-ddc115eaf98f","019d6630-2071-75cb-8026-6699844a2719","","2280","
                <div class=""stimulus-container"">
                    <img src=""images/schematic_sequence/dinner_party_scheme/dinner_party_scheme_1.png"" class=""exp-image"">
                    <div class=""question-area"">
                        <p style=""font-size: 20px; font-weight: bold; margin: 0;"">Is there a person in this image?</p>
                    </div>
                </div>","0","main_experiment_trial","1","dinner_party_scheme","schematic_sequence","chronological","","","","","","","",""
"","","","","","html-keyboard-response","82","315727","0.0-82.0","6856D29CC0AD487CA557F138AC7F9B4A","019d666e-964c-753f-bcbc-ddc115eaf98f","019d6630-2071-75cb-8026-6699844a2719","","null","
                <div class=""stimulus-container"">
                    <img src=""images/schematic_sequence/dinner_party_scheme/dinner_party_scheme_2.png"" class=""exp-image"">
                    <div class=""question-area""></div> 
                </div>","null","","","","","","","","","","","","",""
"","","","","","html-button-response","83","316911","0.0-83.0","6856D29CC0AD487CA557F138AC7F9B4A","019d666e-964c-753f-bcbc-ddc115eaf98f","019d6630-2071-75cb-8026-6699844a2719","","1183","
                <div class=""stimulus-container"">
                    <img src=""images/schematic_sequence/dinner_party_scheme/dinner_party_scheme_2.png"" class=""exp-image"">
                    <div class=""question-area"">
                        <p style=""font-size: 20px; font-weight: bold; margin: 0;"">Is there a person in this image?</p>
                    </div>
                </div>","0","main_experiment_trial","2","dinner_party_scheme","schematic_sequence","chronological","","","","","","","",""
"","","","","","html-keyboard-response","84","321919","0.0-84.0","6856D29CC0AD487CA557F138AC7F9B4A","019d666e-964c-753f-bcbc-ddc115eaf98f","019d6630-2071-75cb-8026-6699844a2719","","null","
                <div class=""stimulus-container"">
                    <img src=""images/schematic_sequence/dinner_party_scheme/dinner_party_scheme_3.png"" class=""exp-image"">
                    <div class=""question-area""></div> 
                </div>","null","","","","","","","","","","","","",""
"","","","","","html-button-response","85","322727","0.0-85.0","6856D29CC0AD487CA557F138AC7F9B4A","019d666e-964c-753f-bcbc-ddc115eaf98f","019d6630-2071-75cb-8026-6699844a2719","","806","
                <div class=""stimulus-container"">
                    <img src=""images/schematic_sequence/dinner_party_scheme/dinner_party_scheme_3.png"" class=""exp-image"">
                    <div class=""question-area"">
                        <p style=""font-size: 20px; font-weight: bold; margin: 0;"">Is there a person in this image?</p>
                    </div>
                </div>","0","main_experiment_trial","3","dinner_party_scheme","schematic_sequence","chronological","","","","","","","",""
"","","","","","html-keyboard-response","86","327731","0.0-86.0","6856D29CC0AD487CA557F138AC7F9B4A","019d666e-964c-753f-bcbc-ddc115eaf98f","019d6630-2071-75cb-8026-6699844a2719","","null","
                <div class=""stimulus-container"">
                    <img src=""images/schematic_sequence/dinner_party_scheme/dinner_party_scheme_4.png"" class=""exp-image"">
                    <div class=""question-area""></div> 
                </div>","null","","","","","","","","","","","","",""
"","","","","","html-button-response","87","329537","0.0-87.0","6856D29CC0AD487CA557F138AC7F9B4A","019d666e-964c-753f-bcbc-ddc115eaf98f","019d6630-2071-75cb-8026-6699844a2719","","1806","
                <div class=""stimulus-container"">
                    <img src=""images/schematic_sequence/dinner_party_scheme/dinner_party_scheme_4.png"" class=""exp-image"">
                    <div class=""question-area"">
                        <p style=""font-size: 20px; font-weight: bold; margin: 0;"">Is there a person in this image?</p>
                    </div>
                </div>","0","main_experiment_trial","4","dinner_party_scheme","schematic_sequence","chronological","","","","","","","",""
"","","","","","html-keyboard-response","88","334551","0.0-88.0","6856D29CC0AD487CA557F138AC7F9B4A","019d666e-964c-753f-bcbc-ddc115eaf98f","019d6630-2071-75cb-8026-6699844a2719","","null","
                <div class=""stimulus-container"">
                    <img src=""images/schematic_sequence/dinner_party_scheme/dinner_party_scheme_5.png"" class=""exp-image"">
                    <div class=""question-area""></div> 
                </div>","null","","","","","","","","","","","","",""
"","","","","","html-button-response","89","335531","0.0-89.0","6856D29CC0AD487CA557F138AC7F9B4A","019d666e-964c-753f-bcbc-ddc115eaf98f","019d6630-2071-75cb-8026-6699844a2719","","979","
                <div class=""stimulus-container"">
                    <img src=""images/schematic_sequence/dinner_party_scheme/dinner_party_scheme_5.png"" class=""exp-image"">
                    <div class=""question-area"">
                        <p style=""font-size: 20px; font-weight: bold; margin: 0;"">Is there a person in this image?</p>
                    </div>
                </div>","0","main_experiment_trial","5","dinner_party_scheme","schematic_sequence","chronological","","","","","","","",""
"","","","","","html-keyboard-response","90","340538","0.0-90.0","6856D29CC0AD487CA557F138AC7F9B4A","019d666e-964c-753f-bcbc-ddc115eaf98f","019d6630-2071-75cb-8026-6699844a2719","","null","
                <div class=""stimulus-container"">
                    <img src=""images/schematic_sequence/dinner_party_scheme/dinner_party_scheme_6.png"" class=""exp-image"">
                    <div class=""question-area""></div> 
                </div>","null","","","","","","","","","","","","",""
"","","","","","html-button-response","91","341437","0.0-91.0","6856D29CC0AD487CA557F138AC7F9B4A","019d666e-964c-753f-bcbc-ddc115eaf98f","019d6630-2071-75cb-8026-6699844a2719","","898","
                <div class=""stimulus-container"">
                    <img src=""images/schematic_sequence/dinner_party_scheme/dinner_party_scheme_6.png"" class=""exp-image"">
                    <div class=""question-area"">
                        <p style=""font-size: 20px; font-weight: bold; margin: 0;"">Is there a person in this image?</p>
                    </div>
                </div>","0","main_experiment_trial","6","dinner_party_scheme","schematic_sequence","chronological","","","","","","","",""
"","","","","","html-keyboard-response","92","346439","0.0-92.0","6856D29CC0AD487CA557F138AC7F9B4A","019d666e-964c-753f-bcbc-ddc115eaf98f","019d6630-2071-75cb-8026-6699844a2719","","null","
                <div class=""stimulus-container"">
                    <img src=""images/schematic_sequence/dinner_party_scheme/dinner_party_scheme_7.png"" class=""exp-image"">
                    <div class=""question-area""></div> 
                </div>","null","","","","","","","","","","","","",""
"","","","","","html-button-response","93","348504","0.0-93.0","6856D29CC0AD487CA557F138AC7F9B4A","019d666e-964c-753f-bcbc-ddc115eaf98f","019d6630-2071-75cb-8026-6699844a2719","","2064","
                <div class=""stimulus-container"">
                    <img src=""images/schematic_sequence/dinner_party_scheme/dinner_party_scheme_7.png"" class=""exp-image"">
                    <div class=""question-area"">
                        <p style=""font-size: 20px; font-weight: bold; margin: 0;"">Is there a person in this image?</p>
                    </div>
                </div>","0","main_experiment_trial","7","dinner_party_scheme","schematic_sequence","chronological","","","","","","","",""
"","","","","","html-keyboard-response","94","353513","0.0-94.0","6856D29CC0AD487CA557F138AC7F9B4A","019d666e-964c-753f-bcbc-ddc115eaf98f","019d6630-2071-75cb-8026-6699844a2719","","null","
                <div class=""stimulus-container"">
                    <img src=""images/schematic_sequence/dinner_party_scheme/dinner_party_scheme_8.png"" class=""exp-image"">
                    <div class=""question-area""></div> 
                </div>","null","","","","","","","","","","","","",""
"","","","","","html-button-response","95","356517","0.0-95.0","6856D29CC0AD487CA557F138AC7F9B4A","019d666e-964c-753f-bcbc-ddc115eaf98f","019d6630-2071-75cb-8026-6699844a2719","","null","
                <div class=""stimulus-container"">
                    <img src=""images/schematic_sequence/dinner_party_scheme/dinner_party_scheme_8.png"" class=""exp-image"">
                    <div class=""question-area"">
                        <p style=""font-size: 20px; font-weight: bold; margin: 0;"">Is there a person in this image?</p>
                    </div>
                </div>","null","main_experiment_trial","8","dinner_party_scheme","schematic_sequence","chronological","","","","","","","",""
"","","","","","html-keyboard-response","96","361525","0.0-96.0","6856D29CC0AD487CA557F138AC7F9B4A","019d666e-964c-753f-bcbc-ddc115eaf98f","019d6630-2071-75cb-8026-6699844a2719","","null","
                <div class=""stimulus-container"">
                    <img src=""images/schematic_sequence/dinner_party_scheme/dinner_party_scheme_9.png"" class=""exp-image"">
                    <div class=""question-area""></div> 
                </div>","null","","","","","","","","","","","","",""
"","","","","","html-button-response","97","362680","0.0-97.0","6856D29CC0AD487CA557F138AC7F9B4A","019d666e-964c-753f-bcbc-ddc115eaf98f","019d6630-2071-75cb-8026-6699844a2719","","1154","
                <div class=""stimulus-container"">
                    <img src=""images/schematic_sequence/dinner_party_scheme/dinner_party_scheme_9.png"" class=""exp-image"">
                    <div class=""question-area"">
                        <p style=""font-size: 20px; font-weight: bold; margin: 0;"">Is there a person in this image?</p>
                    </div>
                </div>","0","main_experiment_trial","9","dinner_party_scheme","schematic_sequence","chronological","","","","","","","",""
"","","","","","html-keyboard-response","98","367690","0.0-98.0","6856D29CC0AD487CA557F138AC7F9B4A","019d666e-964c-753f-bcbc-ddc115eaf98f","019d6630-2071-75cb-8026-6699844a2719","","null","
                <div class=""stimulus-container"">
                    <img src=""images/schematic_sequence/dinner_party_scheme/dinner_party_scheme_ten.png"" class=""exp-image"">
                    <div class=""question-area""></div> 
                </div>","null","","","","","","","","","","","","",""
"","","","","","html-button-response","99","368976","0.0-99.0","6856D29CC0AD487CA557F138AC7F9B4A","019d666e-964c-753f-bcbc-ddc115eaf98f","019d6630-2071-75cb-8026-6699844a2719","","1285","
                <div class=""stimulus-container"">
                    <img src=""images/schematic_sequence/dinner_party_scheme/dinner_party_scheme_ten.png"" class=""exp-image"">
                    <div class=""question-area"">
                        <p style=""font-size: 20px; font-weight: bold; margin: 0;"">Is there a person in this image?</p>
                    </div>
                </div>","0","main_experiment_trial","ten","dinner_party_scheme","schematic_sequence","chronological","","","","","","","",""
"","","","","","html-keyboard-response","100","373991","0.0-100.0","6856D29CC0AD487CA557F138AC7F9B4A","019d666e-964c-753f-bcbc-ddc115eaf98f","019d6630-2071-75cb-8026-6699844a2719","","null","<div style=""background-color: white; width: 100vw; height: 100vh;""></div>","null","","","","","","","","","","","","",""
"","","","","","html-keyboard-response","101","379006","0.0-101.0","6856D29CC0AD487CA557F138AC7F9B4A","019d666e-964c-753f-bcbc-ddc115eaf98f","019d6630-2071-75cb-8026-6699844a2719","","null","
                <div class=""stimulus-container"">
                    <img src=""images/schematic_sequence/hotel_scheme/hotel_scheme_1.png"" class=""exp-image"">
                    <div class=""question-area""></div> 
                </div>","null","","","","","","","","","","","","",""
"","","","","","html-button-response","102","379891","0.0-102.0","6856D29CC0AD487CA557F138AC7F9B4A","019d666e-964c-753f-bcbc-ddc115eaf98f","019d6630-2071-75cb-8026-6699844a2719","","884","
                <div class=""stimulus-container"">
                    <img src=""images/schematic_sequence/hotel_scheme/hotel_scheme_1.png"" class=""exp-image"">
                    <div class=""question-area"">
                        <p style=""font-size: 20px; font-weight: bold; margin: 0;"">Is there a person in this image?</p>
                    </div>
                </div>","1","main_experiment_trial","1","hotel_scheme","schematic_sequence","chronological","","","","","","","",""
"","","","","","html-keyboard-response","103","384901","0.0-103.0","6856D29CC0AD487CA557F138AC7F9B4A","019d666e-964c-753f-bcbc-ddc115eaf98f","019d6630-2071-75cb-8026-6699844a2719","","null","
                <div class=""stimulus-container"">
                    <img src=""images/schematic_sequence/hotel_scheme/hotel_scheme_2.png"" class=""exp-image"">
                    <div class=""question-area""></div> 
                </div>","null","","","","","","","","","","","","",""
"","","","","","html-button-response","104","385774","0.0-104.0","6856D29CC0AD487CA557F138AC7F9B4A","019d666e-964c-753f-bcbc-ddc115eaf98f","019d6630-2071-75cb-8026-6699844a2719","","872","
                <div class=""stimulus-container"">
                    <img src=""images/schematic_sequence/hotel_scheme/hotel_scheme_2.png"" class=""exp-image"">
                    <div class=""question-area"">
                        <p style=""font-size: 20px; font-weight: bold; margin: 0;"">Is there a person in this image?</p>
                    </div>
                </div>","0","main_experiment_trial","2","hotel_scheme","schematic_sequence","chronological","","","","","","","",""
"","","","","","html-keyboard-response","105","390775","0.0-105.0","6856D29CC0AD487CA557F138AC7F9B4A","019d666e-964c-753f-bcbc-ddc115eaf98f","019d6630-2071-75cb-8026-6699844a2719","","null","
                <div class=""stimulus-container"">
                    <img src=""images/schematic_sequence/hotel_scheme/hotel_scheme_3.png"" class=""exp-image"">
                    <div class=""question-area""></div> 
                </div>","null","","","","","","","","","","","","",""
"","","","","","html-button-response","106","391903","0.0-106.0","6856D29CC0AD487CA557F138AC7F9B4A","019d666e-964c-753f-bcbc-ddc115eaf98f","019d6630-2071-75cb-8026-6699844a2719","","1126","
                <div class=""stimulus-container"">
                    <img src=""images/schematic_sequence/hotel_scheme/hotel_scheme_3.png"" class=""exp-image"">
                    <div class=""question-area"">
                        <p style=""font-size: 20px; font-weight: bold; margin: 0;"">Is there a person in this image?</p>
                    </div>
                </div>","0","main_experiment_trial","3","hotel_scheme","schematic_sequence","chronological","","","","","","","",""
"","","","","","html-keyboard-response","107","396911","0.0-107.0","6856D29CC0AD487CA557F138AC7F9B4A","019d666e-964c-753f-bcbc-ddc115eaf98f","019d6630-2071-75cb-8026-6699844a2719","","null","
                <div class=""stimulus-container"">
                    <img src=""images/schematic_sequence/hotel_scheme/hotel_scheme_4.png"" class=""exp-image"">
                    <div class=""question-area""></div> 
                </div>","null","","","","","","","","","","","","",""
"","","","","","html-button-response","108","399013","0.0-108.0","6856D29CC0AD487CA557F138AC7F9B4A","019d666e-964c-753f-bcbc-ddc115eaf98f","019d6630-2071-75cb-8026-6699844a2719","","2101","
                <div class=""stimulus-container"">
                    <img src=""images/schematic_sequence/hotel_scheme/hotel_scheme_4.png"" class=""exp-image"">
                    <div class=""question-area"">
                        <p style=""font-size: 20px; font-weight: bold; margin: 0;"">Is there a person in this image?</p>
                    </div>
                </div>","1","main_experiment_trial","4","hotel_scheme","schematic_sequence","chronological","","","","","","","",""
"","","","","","html-keyboard-response","109","404024","0.0-109.0","6856D29CC0AD487CA557F138AC7F9B4A","019d666e-964c-753f-bcbc-ddc115eaf98f","019d6630-2071-75cb-8026-6699844a2719","","null","
                <div class=""stimulus-container"">
                    <img src=""images/schematic_sequence/hotel_scheme/hotel_scheme_5.png"" class=""exp-image"">
                    <div class=""question-area""></div> 
                </div>","null","","","","","","","","","","","","",""
"","","","","","html-button-response","110","405198","0.0-110.0","6856D29CC0AD487CA557F138AC7F9B4A","019d666e-964c-753f-bcbc-ddc115eaf98f","019d6630-2071-75cb-8026-6699844a2719","","1172","
                <div class=""stimulus-container"">
                    <img src=""images/schematic_sequence/hotel_scheme/hotel_scheme_5.png"" class=""exp-image"">
                    <div class=""question-area"">
                        <p style=""font-size: 20px; font-weight: bold; margin: 0;"">Is there a person in this image?</p>
                    </div>
                </div>","0","main_experiment_trial","5","hotel_scheme","schematic_sequence","chronological","","","","","","","",""
"","","","","","html-keyboard-response","111","410213","0.0-111.0","6856D29CC0AD487CA557F138AC7F9B4A","019d666e-964c-753f-bcbc-ddc115eaf98f","019d6630-2071-75cb-8026-6699844a2719","","null","
                <div class=""stimulus-container"">
                    <img src=""images/schematic_sequence/hotel_scheme/hotel_scheme_6.png"" class=""exp-image"">
                    <div class=""question-area""></div> 
                </div>","null","","","","","","","","","","","","",""
"","","","","","html-button-response","112","411140","0.0-112.0","6856D29CC0AD487CA557F138AC7F9B4A","019d666e-964c-753f-bcbc-ddc115eaf98f","019d6630-2071-75cb-8026-6699844a2719","","926","
                <div class=""stimulus-container"">
                    <img src=""images/schematic_sequence/hotel_scheme/hotel_scheme_6.png"" class=""exp-image"">
                    <div class=""question-area"">
                        <p style=""font-size: 20px; font-weight: bold; margin: 0;"">Is there a person in this image?</p>
                    </div>
                </div>","0","main_experiment_trial","6","hotel_scheme","schematic_sequence","chronological","","","","","","","",""
"","","","","","html-keyboard-response","113","416147","0.0-113.0","6856D29CC0AD487CA557F138AC7F9B4A","019d666e-964c-753f-bcbc-ddc115eaf98f","019d6630-2071-75cb-8026-6699844a2719","","null","
                <div class=""stimulus-container"">
                    <img src=""images/schematic_sequence/hotel_scheme/hotel_scheme_7.png"" class=""exp-image"">
                    <div class=""question-area""></div> 
                </div>","null","","","","","","","","","","","","",""
"","","","","","html-button-response","114","419150","0.0-114.0","6856D29CC0AD487CA557F138AC7F9B4A","019d666e-964c-753f-bcbc-ddc115eaf98f","019d6630-2071-75cb-8026-6699844a2719","","null","
                <div class=""stimulus-container"">
                    <img src=""images/schematic_sequence/hotel_scheme/hotel_scheme_7.png"" class=""exp-image"">
                    <div class=""question-area"">
                        <p style=""font-size: 20px; font-weight: bold; margin: 0;"">Is there a person in this image?</p>
                    </div>
                </div>","null","main_experiment_trial","7","hotel_scheme","schematic_sequence","chronological","","","","","","","",""
"","","","","","html-keyboard-response","115","424156","0.0-115.0","6856D29CC0AD487CA557F138AC7F9B4A","019d666e-964c-753f-bcbc-ddc115eaf98f","019d6630-2071-75cb-8026-6699844a2719","","null","
                <div class=""stimulus-container"">
                    <img src=""images/schematic_sequence/hotel_scheme/hotel_scheme_8.png"" class=""exp-image"">
                    <div class=""question-area""></div> 
                </div>","null","","","","","","","","","","","","",""
"","","","","","html-button-response","116","424893","0.0-116.0","6856D29CC0AD487CA557F138AC7F9B4A","019d666e-964c-753f-bcbc-ddc115eaf98f","019d6630-2071-75cb-8026-6699844a2719","","736","
                <div class=""stimulus-container"">
                    <img src=""images/schematic_sequence/hotel_scheme/hotel_scheme_8.png"" class=""exp-image"">
                    <div class=""question-area"">
                        <p style=""font-size: 20px; font-weight: bold; margin: 0;"">Is there a person in this image?</p>
                    </div>
                </div>","0","main_experiment_trial","8","hotel_scheme","schematic_sequence","chronological","","","","","","","",""
"","","","","","html-keyboard-response","117","429901","0.0-117.0","6856D29CC0AD487CA557F138AC7F9B4A","019d666e-964c-753f-bcbc-ddc115eaf98f","019d6630-2071-75cb-8026-6699844a2719","","null","
                <div class=""stimulus-container"">
                    <img src=""images/schematic_sequence/hotel_scheme/hotel_scheme_9.png"" class=""exp-image"">
                    <div class=""question-area""></div> 
                </div>","null","","","","","","","","","","","","",""
"","","","","","html-button-response","118","430675","0.0-118.0","6856D29CC0AD487CA557F138AC7F9B4A","019d666e-964c-753f-bcbc-ddc115eaf98f","019d6630-2071-75cb-8026-6699844a2719","","774","
                <div class=""stimulus-container"">
                    <img src=""images/schematic_sequence/hotel_scheme/hotel_scheme_9.png"" class=""exp-image"">
                    <div class=""question-area"">
                        <p style=""font-size: 20px; font-weight: bold; margin: 0;"">Is there a person in this image?</p>
                    </div>
                </div>","0","main_experiment_trial","9","hotel_scheme","schematic_sequence","chronological","","","","","","","",""
"","","","","","html-keyboard-response","119","435681","0.0-119.0","6856D29CC0AD487CA557F138AC7F9B4A","019d666e-964c-753f-bcbc-ddc115eaf98f","019d6630-2071-75cb-8026-6699844a2719","","null","
                <div class=""stimulus-container"">
                    <img src=""images/schematic_sequence/hotel_scheme/hotel_scheme_ten.png"" class=""exp-image"">
                    <div class=""question-area""></div> 
                </div>","null","","","","","","","","","","","","",""
"","","","","","html-button-response","120","436396","0.0-120.0","6856D29CC0AD487CA557F138AC7F9B4A","019d666e-964c-753f-bcbc-ddc115eaf98f","019d6630-2071-75cb-8026-6699844a2719","","713","
                <div class=""stimulus-container"">
                    <img src=""images/schematic_sequence/hotel_scheme/hotel_scheme_ten.png"" class=""exp-image"">
                    <div class=""question-area"">
                        <p style=""font-size: 20px; font-weight: bold; margin: 0;"">Is there a person in this image?</p>
                    </div>
                </div>","0","main_experiment_trial","ten","hotel_scheme","schematic_sequence","chronological","","","","","","","",""
"","","","","","html-keyboard-response","121","441403","0.0-121.0","6856D29CC0AD487CA557F138AC7F9B4A","019d666e-964c-753f-bcbc-ddc115eaf98f","019d6630-2071-75cb-8026-6699844a2719","","null","<div style=""background-color: white; width: 100vw; height: 100vh;""></div>","null","","","","","","","","","","","","",""
"","","","","","html-keyboard-response","122","446417","0.0-122.0","6856D29CC0AD487CA557F138AC7F9B4A","019d666e-964c-753f-bcbc-ddc115eaf98f","019d6630-2071-75cb-8026-6699844a2719","","null","
                <div class=""stimulus-container"">
                    <img src=""images/schematic_sequence/restaurant_scheme/restaurant_scheme_1.png"" class=""exp-image"">
                    <div class=""question-area""></div> 
                </div>","null","","","","","","","","","","","","",""
"","","","","","html-button-response","123","447282","0.0-123.0","6856D29CC0AD487CA557F138AC7F9B4A","019d666e-964c-753f-bcbc-ddc115eaf98f","019d6630-2071-75cb-8026-6699844a2719","","864","
                <div class=""stimulus-container"">
                    <img src=""images/schematic_sequence/restaurant_scheme/restaurant_scheme_1.png"" class=""exp-image"">
                    <div class=""question-area"">
                        <p style=""font-size: 20px; font-weight: bold; margin: 0;"">Is there a person in this image?</p>
                    </div>
                </div>","0","main_experiment_trial","1","restaurant_scheme","schematic_sequence","chronological","","","","","","","",""
"","","","","","html-keyboard-response","124","452290","0.0-124.0","6856D29CC0AD487CA557F138AC7F9B4A","019d666e-964c-753f-bcbc-ddc115eaf98f","019d6630-2071-75cb-8026-6699844a2719","","null","
                <div class=""stimulus-container"">
                    <img src=""images/schematic_sequence/restaurant_scheme/restaurant_scheme_2.png"" class=""exp-image"">
                    <div class=""question-area""></div> 
                </div>","null","","","","","","","","","","","","",""
"","","","","","html-button-response","125","453079","0.0-125.0","6856D29CC0AD487CA557F138AC7F9B4A","019d666e-964c-753f-bcbc-ddc115eaf98f","019d6630-2071-75cb-8026-6699844a2719","","789","
                <div class=""stimulus-container"">
                    <img src=""images/schematic_sequence/restaurant_scheme/restaurant_scheme_2.png"" class=""exp-image"">
                    <div class=""question-area"">
                        <p style=""font-size: 20px; font-weight: bold; margin: 0;"">Is there a person in this image?</p>
                    </div>
                </div>","1","main_experiment_trial","2","restaurant_scheme","schematic_sequence","chronological","","","","","","","",""
"","","","","","html-keyboard-response","126","458095","0.0-126.0","6856D29CC0AD487CA557F138AC7F9B4A","019d666e-964c-753f-bcbc-ddc115eaf98f","019d6630-2071-75cb-8026-6699844a2719","","null","
                <div class=""stimulus-container"">
                    <img src=""images/schematic_sequence/restaurant_scheme/restaurant_scheme_3.png"" class=""exp-image"">
                    <div class=""question-area""></div> 
                </div>","null","","","","","","","","","","","","",""
"","","","","","html-button-response","127","458765","0.0-127.0","6856D29CC0AD487CA557F138AC7F9B4A","019d666e-964c-753f-bcbc-ddc115eaf98f","019d6630-2071-75cb-8026-6699844a2719","","668","
                <div class=""stimulus-container"">
                    <img src=""images/schematic_sequence/restaurant_scheme/restaurant_scheme_3.png"" class=""exp-image"">
                    <div class=""question-area"">
                        <p style=""font-size: 20px; font-weight: bold; margin: 0;"">Is there a person in this image?</p>
                    </div>
                </div>","1","main_experiment_trial","3","restaurant_scheme","schematic_sequence","chronological","","","","","","","",""
"","","","","","html-keyboard-response","128","463769","0.0-128.0","6856D29CC0AD487CA557F138AC7F9B4A","019d666e-964c-753f-bcbc-ddc115eaf98f","019d6630-2071-75cb-8026-6699844a2719","","null","
                <div class=""stimulus-container"">
                    <img src=""images/schematic_sequence/restaurant_scheme/restaurant_scheme_4.png"" class=""exp-image"">
                    <div class=""question-area""></div> 
                </div>","null","","","","","","","","","","","","",""
"","","","","","html-button-response","129","464596","0.0-129.0","6856D29CC0AD487CA557F138AC7F9B4A","019d666e-964c-753f-bcbc-ddc115eaf98f","019d6630-2071-75cb-8026-6699844a2719","","826","
                <div class=""stimulus-container"">
                    <img src=""images/schematic_sequence/restaurant_scheme/restaurant_scheme_4.png"" class=""exp-image"">
                    <div class=""question-area"">
                        <p style=""font-size: 20px; font-weight: bold; margin: 0;"">Is there a person in this image?</p>
                    </div>
                </div>","0","main_experiment_trial","4","restaurant_scheme","schematic_sequence","chronological","","","","","","","",""
"","","","","","html-keyboard-response","130","469612","0.0-130.0","6856D29CC0AD487CA557F138AC7F9B4A","019d666e-964c-753f-bcbc-ddc115eaf98f","019d6630-2071-75cb-8026-6699844a2719","","null","
                <div class=""stimulus-container"">
                    <img src=""images/schematic_sequence/restaurant_scheme/restaurant_scheme_5.png"" class=""exp-image"">
                    <div class=""question-area""></div> 
                </div>","null","","","","","","","","","","","","",""
"","","","","","html-button-response","131","470418","0.0-131.0","6856D29CC0AD487CA557F138AC7F9B4A","019d666e-964c-753f-bcbc-ddc115eaf98f","019d6630-2071-75cb-8026-6699844a2719","","806","
                <div class=""stimulus-container"">
                    <img src=""images/schematic_sequence/restaurant_scheme/restaurant_scheme_5.png"" class=""exp-image"">
                    <div class=""question-area"">
                        <p style=""font-size: 20px; font-weight: bold; margin: 0;"">Is there a person in this image?</p>
                    </div>
                </div>","0","main_experiment_trial","5","restaurant_scheme","schematic_sequence","chronological","","","","","","","",""
"","","","","","html-keyboard-response","132","475425","0.0-132.0","6856D29CC0AD487CA557F138AC7F9B4A","019d666e-964c-753f-bcbc-ddc115eaf98f","019d6630-2071-75cb-8026-6699844a2719","","null","
                <div class=""stimulus-container"">
                    <img src=""images/schematic_sequence/restaurant_scheme/restaurant_scheme_6.png"" class=""exp-image"">
                    <div class=""question-area""></div> 
                </div>","null","","","","","","","","","","","","",""
"","","","","","html-button-response","133","476158","0.0-133.0","6856D29CC0AD487CA557F138AC7F9B4A","019d666e-964c-753f-bcbc-ddc115eaf98f","019d6630-2071-75cb-8026-6699844a2719","","731","
                <div class=""stimulus-container"">
                    <img src=""images/schematic_sequence/restaurant_scheme/restaurant_scheme_6.png"" class=""exp-image"">
                    <div class=""question-area"">
                        <p style=""font-size: 20px; font-weight: bold; margin: 0;"">Is there a person in this image?</p>
                    </div>
                </div>","1","main_experiment_trial","6","restaurant_scheme","schematic_sequence","chronological","","","","","","","",""
"","","","","","html-keyboard-response","134","481162","0.0-134.0","6856D29CC0AD487CA557F138AC7F9B4A","019d666e-964c-753f-bcbc-ddc115eaf98f","019d6630-2071-75cb-8026-6699844a2719","","null","
                <div class=""stimulus-container"">
                    <img src=""images/schematic_sequence/restaurant_scheme/restaurant_scheme_7.png"" class=""exp-image"">
                    <div class=""question-area""></div> 
                </div>","null","","","","","","","","","","","","",""
"","","","","","html-button-response","135","482258","0.0-135.0","6856D29CC0AD487CA557F138AC7F9B4A","019d666e-964c-753f-bcbc-ddc115eaf98f","019d6630-2071-75cb-8026-6699844a2719","","1094","
                <div class=""stimulus-container"">
                    <img src=""images/schematic_sequence/restaurant_scheme/restaurant_scheme_7.png"" class=""exp-image"">
                    <div class=""question-area"">
                        <p style=""font-size: 20px; font-weight: bold; margin: 0;"">Is there a person in this image?</p>
                    </div>
                </div>","1","main_experiment_trial","7","restaurant_scheme","schematic_sequence","chronological","","","","","","","",""
"","","","","","html-keyboard-response","136","487271","0.0-136.0","6856D29CC0AD487CA557F138AC7F9B4A","019d666e-964c-753f-bcbc-ddc115eaf98f","019d6630-2071-75cb-8026-6699844a2719","","null","
                <div class=""stimulus-container"">
                    <img src=""images/schematic_sequence/restaurant_scheme/restaurant_scheme_8.png"" class=""exp-image"">
                    <div class=""question-area""></div> 
                </div>","null","","","","","","","","","","","","",""
"","","","","","html-button-response","137","488086","0.0-137.0","6856D29CC0AD487CA557F138AC7F9B4A","019d666e-964c-753f-bcbc-ddc115eaf98f","019d6630-2071-75cb-8026-6699844a2719","","814","
                <div class=""stimulus-container"">
                    <img src=""images/schematic_sequence/restaurant_scheme/restaurant_scheme_8.png"" class=""exp-image"">
                    <div class=""question-area"">
                        <p style=""font-size: 20px; font-weight: bold; margin: 0;"">Is there a person in this image?</p>
                    </div>
                </div>","0","main_experiment_trial","8","restaurant_scheme","schematic_sequence","chronological","","","","","","","",""
"","","","","","html-keyboard-response","138","493104","0.0-138.0","6856D29CC0AD487CA557F138AC7F9B4A","019d666e-964c-753f-bcbc-ddc115eaf98f","019d6630-2071-75cb-8026-6699844a2719","","null","
                <div class=""stimulus-container"">
                    <img src=""images/schematic_sequence/restaurant_scheme/restaurant_scheme_9.png"" class=""exp-image"">
                    <div class=""question-area""></div> 
                </div>","null","","","","","","","","","","","","",""
"","","","","","html-button-response","139","493932","0.0-139.0","6856D29CC0AD487CA557F138AC7F9B4A","019d666e-964c-753f-bcbc-ddc115eaf98f","019d6630-2071-75cb-8026-6699844a2719","","827","
                <div class=""stimulus-container"">
                    <img src=""images/schematic_sequence/restaurant_scheme/restaurant_scheme_9.png"" class=""exp-image"">
                    <div class=""question-area"">
                        <p style=""font-size: 20px; font-weight: bold; margin: 0;"">Is there a person in this image?</p>
                    </div>
                </div>","0","main_experiment_trial","9","restaurant_scheme","schematic_sequence","chronological","","","","","","","",""
"","","","","","html-keyboard-response","140","498943","0.0-140.0","6856D29CC0AD487CA557F138AC7F9B4A","019d666e-964c-753f-bcbc-ddc115eaf98f","019d6630-2071-75cb-8026-6699844a2719","","null","
                <div class=""stimulus-container"">
                    <img src=""images/schematic_sequence/restaurant_scheme/restaurant_scheme_ten.png"" class=""exp-image"">
                    <div class=""question-area""></div> 
                </div>","null","","","","","","","","","","","","",""
"","","","","","html-button-response","141","499815","0.0-141.0","6856D29CC0AD487CA557F138AC7F9B4A","019d666e-964c-753f-bcbc-ddc115eaf98f","019d6630-2071-75cb-8026-6699844a2719","","871","
                <div class=""stimulus-container"">
                    <img src=""images/schematic_sequence/restaurant_scheme/restaurant_scheme_ten.png"" class=""exp-image"">
                    <div class=""question-area"">
                        <p style=""font-size: 20px; font-weight: bold; margin: 0;"">Is there a person in this image?</p>
                    </div>
                </div>","0","main_experiment_trial","ten","restaurant_scheme","schematic_sequence","chronological","","","","","","","",""
"","","","","","html-keyboard-response","142","504830","0.0-142.0","6856D29CC0AD487CA557F138AC7F9B4A","019d666e-964c-753f-bcbc-ddc115eaf98f","019d6630-2071-75cb-8026-6699844a2719","","null","<div style=""background-color: white; width: 100vw; height: 100vh;""></div>","null","","","","","","","","","","","","",""
"","","","","","html-keyboard-response","143","509847","0.0-143.0","6856D29CC0AD487CA557F138AC7F9B4A","019d666e-964c-753f-bcbc-ddc115eaf98f","019d6630-2071-75cb-8026-6699844a2719","","null","
                <div class=""stimulus-container"">
                    <img src=""images/semantic_sequence/self_care_activities_semantic/self_care_activities_semantic_1.png"" class=""exp-image"">
                    <div class=""question-area""></div> 
                </div>","null","","","","","","","","","","","","",""
"","","","","","html-button-response","144","510857","0.0-144.0","6856D29CC0AD487CA557F138AC7F9B4A","019d666e-964c-753f-bcbc-ddc115eaf98f","019d6630-2071-75cb-8026-6699844a2719","","1009","
                <div class=""stimulus-container"">
                    <img src=""images/semantic_sequence/self_care_activities_semantic/self_care_activities_semantic_1.png"" class=""exp-image"">
                    <div class=""question-area"">
                        <p style=""font-size: 20px; font-weight: bold; margin: 0;"">Is there a person in this image?</p>
                    </div>
                </div>","0","main_experiment_trial","1","self_care_activities_semantic","semantic_sequence","chronological","","","","","","","",""
"","","","","","html-keyboard-response","145","515871","0.0-145.0","6856D29CC0AD487CA557F138AC7F9B4A","019d666e-964c-753f-bcbc-ddc115eaf98f","019d6630-2071-75cb-8026-6699844a2719","","null","
                <div class=""stimulus-container"">
                    <img src=""images/semantic_sequence/self_care_activities_semantic/self_care_activities_semantic_2.png"" class=""exp-image"">
                    <div class=""question-area""></div> 
                </div>","null","","","","","","","","","","","","",""
"","","","","","html-button-response","146","517088","0.0-146.0","6856D29CC0AD487CA557F138AC7F9B4A","019d666e-964c-753f-bcbc-ddc115eaf98f","019d6630-2071-75cb-8026-6699844a2719","","1215","
                <div class=""stimulus-container"">
                    <img src=""images/semantic_sequence/self_care_activities_semantic/self_care_activities_semantic_2.png"" class=""exp-image"">
                    <div class=""question-area"">
                        <p style=""font-size: 20px; font-weight: bold; margin: 0;"">Is there a person in this image?</p>
                    </div>
                </div>","0","main_experiment_trial","2","self_care_activities_semantic","semantic_sequence","chronological","","","","","","","",""
"","","","","","html-keyboard-response","147","522105","0.0-147.0","6856D29CC0AD487CA557F138AC7F9B4A","019d666e-964c-753f-bcbc-ddc115eaf98f","019d6630-2071-75cb-8026-6699844a2719","","null","
                <div class=""stimulus-container"">
                    <img src=""images/semantic_sequence/self_care_activities_semantic/self_care_activities_semantic_3.png"" class=""exp-image"">
                    <div class=""question-area""></div> 
                </div>","null","","","","","","","","","","","","",""
"","","","","","html-button-response","148","523378","0.0-148.0","6856D29CC0AD487CA557F138AC7F9B4A","019d666e-964c-753f-bcbc-ddc115eaf98f","019d6630-2071-75cb-8026-6699844a2719","","1272","
                <div class=""stimulus-container"">
                    <img src=""images/semantic_sequence/self_care_activities_semantic/self_care_activities_semantic_3.png"" class=""exp-image"">
                    <div class=""question-area"">
                        <p style=""font-size: 20px; font-weight: bold; margin: 0;"">Is there a person in this image?</p>
                    </div>
                </div>","0","main_experiment_trial","3","self_care_activities_semantic","semantic_sequence","chronological","","","","","","","",""
"","","","","","html-keyboard-response","149","528388","0.0-149.0","6856D29CC0AD487CA557F138AC7F9B4A","019d666e-964c-753f-bcbc-ddc115eaf98f","019d6630-2071-75cb-8026-6699844a2719","","null","
                <div class=""stimulus-container"">
                    <img src=""images/semantic_sequence/self_care_activities_semantic/self_care_activities_semantic_4.png"" class=""exp-image"">
                    <div class=""question-area""></div> 
                </div>","null","","","","","","","","","","","","",""
"","","","","","html-button-response","150","529804","0.0-150.0","6856D29CC0AD487CA557F138AC7F9B4A","019d666e-964c-753f-bcbc-ddc115eaf98f","019d6630-2071-75cb-8026-6699844a2719","","1415","
                <div class=""stimulus-container"">
                    <img src=""images/semantic_sequence/self_care_activities_semantic/self_care_activities_semantic_4.png"" class=""exp-image"">
                    <div class=""question-area"">
                        <p style=""font-size: 20px; font-weight: bold; margin: 0;"">Is there a person in this image?</p>
                    </div>
                </div>","0","main_experiment_trial","4","self_care_activities_semantic","semantic_sequence","chronological","","","","","","","",""
"","","","","","html-keyboard-response","151","534805","0.0-151.0","6856D29CC0AD487CA557F138AC7F9B4A","019d666e-964c-753f-bcbc-ddc115eaf98f","019d6630-2071-75cb-8026-6699844a2719","","null","
                <div class=""stimulus-container"">
                    <img src=""images/semantic_sequence/self_care_activities_semantic/self_care_activities_semantic_5.png"" class=""exp-image"">
                    <div class=""question-area""></div> 
                </div>","null","","","","","","","","","","","","",""
"","","","","","html-button-response","152","535750","0.0-152.0","6856D29CC0AD487CA557F138AC7F9B4A","019d666e-964c-753f-bcbc-ddc115eaf98f","019d6630-2071-75cb-8026-6699844a2719","","943","
                <div class=""stimulus-container"">
                    <img src=""images/semantic_sequence/self_care_activities_semantic/self_care_activities_semantic_5.png"" class=""exp-image"">
                    <div class=""question-area"">
                        <p style=""font-size: 20px; font-weight: bold; margin: 0;"">Is there a person in this image?</p>
                    </div>
                </div>","0","main_experiment_trial","5","self_care_activities_semantic","semantic_sequence","chronological","","","","","","","",""
"","","","","","html-keyboard-response","153","540754","0.0-153.0","6856D29CC0AD487CA557F138AC7F9B4A","019d666e-964c-753f-bcbc-ddc115eaf98f","019d6630-2071-75cb-8026-6699844a2719","","null","
                <div class=""stimulus-container"">
                    <img src=""images/semantic_sequence/self_care_activities_semantic/self_care_activities_semantic_6.png"" class=""exp-image"">
                    <div class=""question-area""></div> 
                </div>","null","","","","","","","","","","","","",""
"","","","","","html-button-response","154","541511","0.0-154.0","6856D29CC0AD487CA557F138AC7F9B4A","019d666e-964c-753f-bcbc-ddc115eaf98f","019d6630-2071-75cb-8026-6699844a2719","","756","
                <div class=""stimulus-container"">
                    <img src=""images/semantic_sequence/self_care_activities_semantic/self_care_activities_semantic_6.png"" class=""exp-image"">
                    <div class=""question-area"">
                        <p style=""font-size: 20px; font-weight: bold; margin: 0;"">Is there a person in this image?</p>
                    </div>
                </div>","1","main_experiment_trial","6","self_care_activities_semantic","semantic_sequence","chronological","","","","","","","",""
"","","","","","html-keyboard-response","155","546522","0.0-155.0","6856D29CC0AD487CA557F138AC7F9B4A","019d666e-964c-753f-bcbc-ddc115eaf98f","019d6630-2071-75cb-8026-6699844a2719","","null","
                <div class=""stimulus-container"">
                    <img src=""images/semantic_sequence/self_care_activities_semantic/self_care_activities_semantic_7.png"" class=""exp-image"">
                    <div class=""question-area""></div> 
                </div>","null","","","","","","","","","","","","",""
"","","","","","html-button-response","156","547986","0.0-156.0","6856D29CC0AD487CA557F138AC7F9B4A","019d666e-964c-753f-bcbc-ddc115eaf98f","019d6630-2071-75cb-8026-6699844a2719","","1464","
                <div class=""stimulus-container"">
                    <img src=""images/semantic_sequence/self_care_activities_semantic/self_care_activities_semantic_7.png"" class=""exp-image"">
                    <div class=""question-area"">
                        <p style=""font-size: 20px; font-weight: bold; margin: 0;"">Is there a person in this image?</p>
                    </div>
                </div>","0","main_experiment_trial","7","self_care_activities_semantic","semantic_sequence","chronological","","","","","","","",""
"","","","","","html-keyboard-response","157","552995","0.0-157.0","6856D29CC0AD487CA557F138AC7F9B4A","019d666e-964c-753f-bcbc-ddc115eaf98f","019d6630-2071-75cb-8026-6699844a2719","","null","
                <div class=""stimulus-container"">
                    <img src=""images/semantic_sequence/self_care_activities_semantic/self_care_activities_semantic_8.png"" class=""exp-image"">
                    <div class=""question-area""></div> 
                </div>","null","","","","","","","","","","","","",""
"","","","","","html-button-response","158","554047","0.0-158.0","6856D29CC0AD487CA557F138AC7F9B4A","019d666e-964c-753f-bcbc-ddc115eaf98f","019d6630-2071-75cb-8026-6699844a2719","","1051","
                <div class=""stimulus-container"">
                    <img src=""images/semantic_sequence/self_care_activities_semantic/self_care_activities_semantic_8.png"" class=""exp-image"">
                    <div class=""question-area"">
                        <p style=""font-size: 20px; font-weight: bold; margin: 0;"">Is there a person in this image?</p>
                    </div>
                </div>","0","main_experiment_trial","8","self_care_activities_semantic","semantic_sequence","chronological","","","","","","","",""
"","","","","","html-keyboard-response","159","559054","0.0-159.0","6856D29CC0AD487CA557F138AC7F9B4A","019d666e-964c-753f-bcbc-ddc115eaf98f","019d6630-2071-75cb-8026-6699844a2719","","null","
                <div class=""stimulus-container"">
                    <img src=""images/semantic_sequence/self_care_activities_semantic/self_care_activities_semantic_9.png"" class=""exp-image"">
                    <div class=""question-area""></div> 
                </div>","null","","","","","","","","","","","","",""
"","","","","","html-button-response","160","560676","0.0-160.0","6856D29CC0AD487CA557F138AC7F9B4A","019d666e-964c-753f-bcbc-ddc115eaf98f","019d6630-2071-75cb-8026-6699844a2719","","1621","
                <div class=""stimulus-container"">
                    <img src=""images/semantic_sequence/self_care_activities_semantic/self_care_activities_semantic_9.png"" class=""exp-image"">
                    <div class=""question-area"">
                        <p style=""font-size: 20px; font-weight: bold; margin: 0;"">Is there a person in this image?</p>
                    </div>
                </div>","0","main_experiment_trial","9","self_care_activities_semantic","semantic_sequence","chronological","","","","","","","",""
"","","","","","html-keyboard-response","161","565680","0.0-161.0","6856D29CC0AD487CA557F138AC7F9B4A","019d666e-964c-753f-bcbc-ddc115eaf98f","019d6630-2071-75cb-8026-6699844a2719","","null","
                <div class=""stimulus-container"">
                    <img src=""images/semantic_sequence/self_care_activities_semantic/self_care_activities_semantic_ten.png"" class=""exp-image"">
                    <div class=""question-area""></div> 
                </div>","null","","","","","","","","","","","","",""
"","","","","","html-button-response","162","567197","0.0-162.0","6856D29CC0AD487CA557F138AC7F9B4A","019d666e-964c-753f-bcbc-ddc115eaf98f","019d6630-2071-75cb-8026-6699844a2719","","1516","
                <div class=""stimulus-container"">
                    <img src=""images/semantic_sequence/self_care_activities_semantic/self_care_activities_semantic_ten.png"" class=""exp-image"">
                    <div class=""question-area"">
                        <p style=""font-size: 20px; font-weight: bold; margin: 0;"">Is there a person in this image?</p>
                    </div>
                </div>","0","main_experiment_trial","ten","self_care_activities_semantic","semantic_sequence","chronological","","","","","","","",""
"","","","","","html-keyboard-response","163","572207","0.0-163.0","6856D29CC0AD487CA557F138AC7F9B4A","019d666e-964c-753f-bcbc-ddc115eaf98f","019d6630-2071-75cb-8026-6699844a2719","","null","<div style=""background-color: white; width: 100vw; height: 100vh;""></div>","null","","","","","","","","","","","","",""
"","","","","","html-keyboard-response","164","577210","0.0-164.0","6856D29CC0AD487CA557F138AC7F9B4A","019d666e-964c-753f-bcbc-ddc115eaf98f","019d6630-2071-75cb-8026-6699844a2719","","null","
                <div class=""stimulus-container"">
                    <img src=""images/schematic_sequence/interview_scheme/interview_scheme_1.png"" class=""exp-image"">
                    <div class=""question-area""></div> 
                </div>","null","","","","","","","","","","","","",""
"","","","","","html-button-response","165","578922","0.0-165.0","6856D29CC0AD487CA557F138AC7F9B4A","019d666e-964c-753f-bcbc-ddc115eaf98f","019d6630-2071-75cb-8026-6699844a2719","","1711","
                <div class=""stimulus-container"">
                    <img src=""images/schematic_sequence/interview_scheme/interview_scheme_1.png"" class=""exp-image"">
                    <div class=""question-area"">
                        <p style=""font-size: 20px; font-weight: bold; margin: 0;"">Is there a person in this image?</p>
                    </div>
                </div>","1","main_experiment_trial","1","interview_scheme","schematic_sequence","chronological","","","","","","","",""
"","","","","","html-keyboard-response","166","583927","0.0-166.0","6856D29CC0AD487CA557F138AC7F9B4A","019d666e-964c-753f-bcbc-ddc115eaf98f","019d6630-2071-75cb-8026-6699844a2719","","null","
                <div class=""stimulus-container"">
                    <img src=""images/schematic_sequence/interview_scheme/interview_scheme_2.png"" class=""exp-image"">
                    <div class=""question-area""></div> 
                </div>","null","","","","","","","","","","","","",""
"","","","","","html-button-response","167","586772","0.0-167.0","6856D29CC0AD487CA557F138AC7F9B4A","019d666e-964c-753f-bcbc-ddc115eaf98f","019d6630-2071-75cb-8026-6699844a2719","","2844","
                <div class=""stimulus-container"">
                    <img src=""images/schematic_sequence/interview_scheme/interview_scheme_2.png"" class=""exp-image"">
                    <div class=""question-area"">
                        <p style=""font-size: 20px; font-weight: bold; margin: 0;"">Is there a person in this image?</p>
                    </div>
                </div>","0","main_experiment_trial","2","interview_scheme","schematic_sequence","chronological","","","","","","","",""
"","","","","","html-keyboard-response","168","591782","0.0-168.0","6856D29CC0AD487CA557F138AC7F9B4A","019d666e-964c-753f-bcbc-ddc115eaf98f","019d6630-2071-75cb-8026-6699844a2719","","null","
                <div class=""stimulus-container"">
                    <img src=""images/schematic_sequence/interview_scheme/interview_scheme_3.png"" class=""exp-image"">
                    <div class=""question-area""></div> 
                </div>","null","","","","","","","","","","","","",""
"","","","","","html-button-response","169","592615","0.0-169.0","6856D29CC0AD487CA557F138AC7F9B4A","019d666e-964c-753f-bcbc-ddc115eaf98f","019d6630-2071-75cb-8026-6699844a2719","","832","
                <div class=""stimulus-container"">
                    <img src=""images/schematic_sequence/interview_scheme/interview_scheme_3.png"" class=""exp-image"">
                    <div class=""question-area"">
                        <p style=""font-size: 20px; font-weight: bold; margin: 0;"">Is there a person in this image?</p>
                    </div>
                </div>","1","main_experiment_trial","3","interview_scheme","schematic_sequence","chronological","","","","","","","",""
"","","","","","html-keyboard-response","170","597631","0.0-170.0","6856D29CC0AD487CA557F138AC7F9B4A","019d666e-964c-753f-bcbc-ddc115eaf98f","019d6630-2071-75cb-8026-6699844a2719","","null","
                <div class=""stimulus-container"">
                    <img src=""images/schematic_sequence/interview_scheme/interview_scheme_4.png"" class=""exp-image"">
                    <div class=""question-area""></div> 
                </div>","null","","","","","","","","","","","","",""
"","","","","","html-button-response","171","599081","0.0-171.0","6856D29CC0AD487CA557F138AC7F9B4A","019d666e-964c-753f-bcbc-ddc115eaf98f","019d6630-2071-75cb-8026-6699844a2719","","1448","
                <div class=""stimulus-container"">
                    <img src=""images/schematic_sequence/interview_scheme/interview_scheme_4.png"" class=""exp-image"">
                    <div class=""question-area"">
                        <p style=""font-size: 20px; font-weight: bold; margin: 0;"">Is there a person in this image?</p>
                    </div>
                </div>","1","main_experiment_trial","4","interview_scheme","schematic_sequence","chronological","","","","","","","",""
"","","","","","html-keyboard-response","172","604096","0.0-172.0","6856D29CC0AD487CA557F138AC7F9B4A","019d666e-964c-753f-bcbc-ddc115eaf98f","019d6630-2071-75cb-8026-6699844a2719","","null","
                <div class=""stimulus-container"">
                    <img src=""images/schematic_sequence/interview_scheme/interview_scheme_5.png"" class=""exp-image"">
                    <div class=""question-area""></div> 
                </div>","null","","","","","","","","","","","","",""
"","","","","","html-button-response","173","604896","0.0-173.0","6856D29CC0AD487CA557F138AC7F9B4A","019d666e-964c-753f-bcbc-ddc115eaf98f","019d6630-2071-75cb-8026-6699844a2719","","799","
                <div class=""stimulus-container"">
                    <img src=""images/schematic_sequence/interview_scheme/interview_scheme_5.png"" class=""exp-image"">
                    <div class=""question-area"">
                        <p style=""font-size: 20px; font-weight: bold; margin: 0;"">Is there a person in this image?</p>
                    </div>
                </div>","0","main_experiment_trial","5","interview_scheme","schematic_sequence","chronological","","","","","","","",""
"","","","","","html-keyboard-response","174","609898","0.0-174.0","6856D29CC0AD487CA557F138AC7F9B4A","019d666e-964c-753f-bcbc-ddc115eaf98f","019d6630-2071-75cb-8026-6699844a2719","","null","
                <div class=""stimulus-container"">
                    <img src=""images/schematic_sequence/interview_scheme/interview_scheme_6.png"" class=""exp-image"">
                    <div class=""question-area""></div> 
                </div>","null","","","","","","","","","","","","",""
"","","","","","html-button-response","175","610815","0.0-175.0","6856D29CC0AD487CA557F138AC7F9B4A","019d666e-964c-753f-bcbc-ddc115eaf98f","019d6630-2071-75cb-8026-6699844a2719","","916","
                <div class=""stimulus-container"">
                    <img src=""images/schematic_sequence/interview_scheme/interview_scheme_6.png"" class=""exp-image"">
                    <div class=""question-area"">
                        <p style=""font-size: 20px; font-weight: bold; margin: 0;"">Is there a person in this image?</p>
                    </div>
                </div>","0","main_experiment_trial","6","interview_scheme","schematic_sequence","chronological","","","","","","","",""
"","","","","","html-keyboard-response","176","615824","0.0-176.0","6856D29CC0AD487CA557F138AC7F9B4A","019d666e-964c-753f-bcbc-ddc115eaf98f","019d6630-2071-75cb-8026-6699844a2719","","null","
                <div class=""stimulus-container"">
                    <img src=""images/schematic_sequence/interview_scheme/interview_scheme_7.png"" class=""exp-image"">
                    <div class=""question-area""></div> 
                </div>","null","","","","","","","","","","","","",""
