"success","timeout","failed_images","failed_audio","failed_video","trial_type","trial_index","time_elapsed","internal_node_id","subject_id","study_id","session_id","view_history","rt","stimulus","response","task","image_index","folder","sequence_type","presentation_order","valuable_image_index","reward_type","distance_from_x","target_X","chosen_image_index","is_x_plus_dist","correct_choice"
"true","false","[]","[]","[]","preload","0","14886","0.0-0.0","2E42C4FA95A843539EAACD36EFE41B17","019cfa85-4f75-76e0-91de-e482c9391fa7","019cfa3a-388e-72ab-ad58-bdeb258f96cd","","","","","","","","","","","","","","","",""
"","","","","","instructions","1","17640","0.0-1.0","2E42C4FA95A843539EAACD36EFE41B17","019cfa85-4f75-76e0-91de-e482c9391fa7","019cfa3a-388e-72ab-ad58-bdeb258f96cd","[{""page_index"":0,""viewing_time"":2752}]","2752","","","","","","","","","","","","","",""
"","","","","","instructions","2","21558","0.0-2.0","2E42C4FA95A843539EAACD36EFE41B17","019cfa85-4f75-76e0-91de-e482c9391fa7","019cfa3a-388e-72ab-ad58-bdeb258f96cd","[{""page_index"":0,""viewing_time"":3917}]","3917","","","","","","","","","","","","","",""
"true","","","","","fullscreen","3","24780","0.0-3.0","2E42C4FA95A843539EAACD36EFE41B17","019cfa85-4f75-76e0-91de-e482c9391fa7","019cfa3a-388e-72ab-ad58-bdeb258f96cd","","2193","","","","","","","","","","","","","",""
"","","","","","instructions","4","45285","0.0-4.0","2E42C4FA95A843539EAACD36EFE41B17","019cfa85-4f75-76e0-91de-e482c9391fa7","019cfa3a-388e-72ab-ad58-bdeb258f96cd","[{""page_index"":0,""viewing_time"":20504}]","20505","","","","","","","","","","","","","",""
"","","","","","instructions","5","57196","0.0-5.0","2E42C4FA95A843539EAACD36EFE41B17","019cfa85-4f75-76e0-91de-e482c9391fa7","019cfa3a-388e-72ab-ad58-bdeb258f96cd","[{""page_index"":0,""viewing_time"":11909}]","11909","","","","","","","","","","","","","",""
"","","","","","html-keyboard-response","6","61200","0.0-6.0","2E42C4FA95A843539EAACD36EFE41B17","019cfa85-4f75-76e0-91de-e482c9391fa7","019cfa3a-388e-72ab-ad58-bdeb258f96cd","","null","
                <div class=""stimulus-container"">
                    <img src=""images/instructions/movie_1.png"" class=""exp-image"">
                    <div class=""question-area""></div> 
                </div>","null","","","","","","","","","","","",""
"","","","","","html-button-response","7","63118","0.0-7.0","2E42C4FA95A843539EAACD36EFE41B17","019cfa85-4f75-76e0-91de-e482c9391fa7","019cfa3a-388e-72ab-ad58-bdeb258f96cd","","1915","
                <div class=""stimulus-container"">
                    <img src=""images/instructions/movie_1.png"" class=""exp-image"">
                    <div class=""question-area"">
                        <p style=""font-size: 20px; font-weight: bold; margin: 0;"">Was there a person in this image?</p>
                    </div>
                </div>","0","example_question","1","","","","","","","","","",""
"","","","","","html-keyboard-response","8","67123","0.0-8.0","2E42C4FA95A843539EAACD36EFE41B17","019cfa85-4f75-76e0-91de-e482c9391fa7","019cfa3a-388e-72ab-ad58-bdeb258f96cd","","null","
                <div class=""stimulus-container"">
                    <img src=""images/instructions/movie_2.png"" class=""exp-image"">
                    <div class=""question-area""></div> 
                </div>","null","","","","","","","","","","","",""
"","","","","","html-button-response","9","68455","0.0-9.0","2E42C4FA95A843539EAACD36EFE41B17","019cfa85-4f75-76e0-91de-e482c9391fa7","019cfa3a-388e-72ab-ad58-bdeb258f96cd","","1330","
                <div class=""stimulus-container"">
                    <img src=""images/instructions/movie_2.png"" class=""exp-image"">
                    <div class=""question-area"">
                        <p style=""font-size: 20px; font-weight: bold; margin: 0;"">Was there a person in this image?</p>
                    </div>
                </div>","0","example_question","2","","","","","","","","","",""
"","","","","","html-keyboard-response","10","72471","0.0-10.0","2E42C4FA95A843539EAACD36EFE41B17","019cfa85-4f75-76e0-91de-e482c9391fa7","019cfa3a-388e-72ab-ad58-bdeb258f96cd","","null","
                <div class=""stimulus-container"">
                    <img src=""images/instructions/movie_3.png"" class=""exp-image"">
                    <div class=""question-area""></div> 
                </div>","null","","","","","","","","","","","",""
"","","","","","html-button-response","11","73283","0.0-11.0","2E42C4FA95A843539EAACD36EFE41B17","019cfa85-4f75-76e0-91de-e482c9391fa7","019cfa3a-388e-72ab-ad58-bdeb258f96cd","","811","
                <div class=""stimulus-container"">
                    <img src=""images/instructions/movie_3.png"" class=""exp-image"">
                    <div class=""question-area"">
                        <p style=""font-size: 20px; font-weight: bold; margin: 0;"">Was there a person in this image?</p>
                    </div>
                </div>","0","example_question","3","","","","","","","","","",""
"","","","","","html-keyboard-response","12","77296","0.0-12.0","2E42C4FA95A843539EAACD36EFE41B17","019cfa85-4f75-76e0-91de-e482c9391fa7","019cfa3a-388e-72ab-ad58-bdeb258f96cd","","null","
                <div class=""stimulus-container"">
                    <img src=""images/instructions/movie_4.png"" class=""exp-image"">
                    <div class=""question-area""></div> 
                </div>","null","","","","","","","","","","","",""
"","","","","","html-button-response","13","77798","0.0-13.0","2E42C4FA95A843539EAACD36EFE41B17","019cfa85-4f75-76e0-91de-e482c9391fa7","019cfa3a-388e-72ab-ad58-bdeb258f96cd","","501","
                <div class=""stimulus-container"">
                    <img src=""images/instructions/movie_4.png"" class=""exp-image"">
                    <div class=""question-area"">
                        <p style=""font-size: 20px; font-weight: bold; margin: 0;"">Was there a person in this image?</p>
                    </div>
                </div>","0","example_question","4","","","","","","","","","",""
"","","","","","instructions","14","79449","0.0-14.0","2E42C4FA95A843539EAACD36EFE41B17","019cfa85-4f75-76e0-91de-e482c9391fa7","019cfa3a-388e-72ab-ad58-bdeb258f96cd","[{""page_index"":0,""viewing_time"":1648}]","1650","","","","","","","","","","","","","",""
"","","","","","instructions","15","85278","0.0-15.0","2E42C4FA95A843539EAACD36EFE41B17","019cfa85-4f75-76e0-91de-e482c9391fa7","019cfa3a-388e-72ab-ad58-bdeb258f96cd","[{""page_index"":0,""viewing_time"":5826}]","5827","","","","","","","","","","","","","",""
"","","","","","html-keyboard-response","16","90295","0.0-16.0","2E42C4FA95A843539EAACD36EFE41B17","019cfa85-4f75-76e0-91de-e482c9391fa7","019cfa3a-388e-72ab-ad58-bdeb258f96cd","","null","<div style=""background-color: white; width: 100vw; height: 100vh;""></div>","null","","","","","","","","","","","",""
"","","","","","html-keyboard-response","17","91309","0.0-17.0","2E42C4FA95A843539EAACD36EFE41B17","019cfa85-4f75-76e0-91de-e482c9391fa7","019cfa3a-388e-72ab-ad58-bdeb258f96cd","","null","
                <div class=""stimulus-container"">
                    <img src=""images/semantic_sequence/market_semantic/market_semantic_1.png"" class=""exp-image"">
                    <div class=""question-area""></div> 
                </div>","null","","","","","","","","","","","",""
"","","","","","html-button-response","18","92622","0.0-18.0","2E42C4FA95A843539EAACD36EFE41B17","019cfa85-4f75-76e0-91de-e482c9391fa7","019cfa3a-388e-72ab-ad58-bdeb258f96cd","","1311","
                <div class=""stimulus-container"">
                    <img src=""images/semantic_sequence/market_semantic/market_semantic_1.png"" class=""exp-image"">
                    <div class=""question-area"">
                        <p style=""font-size: 20px; font-weight: bold; margin: 0;"">Is there a person in this image?</p>
                    </div>
                </div>","1","main_experiment_trial","1","market_semantic","semantic_sequence","chronological","","","","","","",""
"","","","","","html-keyboard-response","19","93625","0.0-19.0","2E42C4FA95A843539EAACD36EFE41B17","019cfa85-4f75-76e0-91de-e482c9391fa7","019cfa3a-388e-72ab-ad58-bdeb258f96cd","","null","
                <div class=""stimulus-container"">
                    <img src=""images/semantic_sequence/market_semantic/market_semantic_2.png"" class=""exp-image"">
                    <div class=""question-area""></div> 
                </div>","null","","","","","","","","","","","",""
"","","","","","html-button-response","20","94607","0.0-20.0","2E42C4FA95A843539EAACD36EFE41B17","019cfa85-4f75-76e0-91de-e482c9391fa7","019cfa3a-388e-72ab-ad58-bdeb258f96cd","","980","
                <div class=""stimulus-container"">
                    <img src=""images/semantic_sequence/market_semantic/market_semantic_2.png"" class=""exp-image"">
                    <div class=""question-area"">
                        <p style=""font-size: 20px; font-weight: bold; margin: 0;"">Is there a person in this image?</p>
                    </div>
                </div>","1","main_experiment_trial","2","market_semantic","semantic_sequence","chronological","","","","","","",""
"","","","","","html-keyboard-response","21","95617","0.0-21.0","2E42C4FA95A843539EAACD36EFE41B17","019cfa85-4f75-76e0-91de-e482c9391fa7","019cfa3a-388e-72ab-ad58-bdeb258f96cd","","null","
                <div class=""stimulus-container"">
                    <img src=""images/semantic_sequence/market_semantic/market_semantic_3.png"" class=""exp-image"">
                    <div class=""question-area""></div> 
                </div>","null","","","","","","","","","","","",""
"","","","","","html-button-response","22","97493","0.0-22.0","2E42C4FA95A843539EAACD36EFE41B17","019cfa85-4f75-76e0-91de-e482c9391fa7","019cfa3a-388e-72ab-ad58-bdeb258f96cd","","1874","
                <div class=""stimulus-container"">
                    <img src=""images/semantic_sequence/market_semantic/market_semantic_3.png"" class=""exp-image"">
                    <div class=""question-area"">
                        <p style=""font-size: 20px; font-weight: bold; margin: 0;"">Is there a person in this image?</p>
                    </div>
                </div>","1","main_experiment_trial","3","market_semantic","semantic_sequence","chronological","","","","","","",""
"","","","","","html-keyboard-response","23","98498","0.0-23.0","2E42C4FA95A843539EAACD36EFE41B17","019cfa85-4f75-76e0-91de-e482c9391fa7","019cfa3a-388e-72ab-ad58-bdeb258f96cd","","null","
                <div class=""stimulus-container"">
                    <img src=""images/semantic_sequence/market_semantic/market_semantic_4.png"" class=""exp-image"">
                    <div class=""question-area""></div> 
                </div>","null","","","","","","","","","","","",""
"","","","","","html-button-response","24","99287","0.0-24.0","2E42C4FA95A843539EAACD36EFE41B17","019cfa85-4f75-76e0-91de-e482c9391fa7","019cfa3a-388e-72ab-ad58-bdeb258f96cd","","787","
                <div class=""stimulus-container"">
                    <img src=""images/semantic_sequence/market_semantic/market_semantic_4.png"" class=""exp-image"">
                    <div class=""question-area"">
                        <p style=""font-size: 20px; font-weight: bold; margin: 0;"">Is there a person in this image?</p>
                    </div>
                </div>","0","main_experiment_trial","4","market_semantic","semantic_sequence","chronological","","","","","","",""
"","","","","","html-keyboard-response","25","100289","0.0-25.0","2E42C4FA95A843539EAACD36EFE41B17","019cfa85-4f75-76e0-91de-e482c9391fa7","019cfa3a-388e-72ab-ad58-bdeb258f96cd","","null","
                <div class=""stimulus-container"">
                    <img src=""images/semantic_sequence/market_semantic/market_semantic_5.png"" class=""exp-image"">
                    <div class=""question-area""></div> 
                </div>","null","","","","","","","","","","","",""
"","","","","","html-button-response","26","100983","0.0-26.0","2E42C4FA95A843539EAACD36EFE41B17","019cfa85-4f75-76e0-91de-e482c9391fa7","019cfa3a-388e-72ab-ad58-bdeb258f96cd","","693","
                <div class=""stimulus-container"">
                    <img src=""images/semantic_sequence/market_semantic/market_semantic_5.png"" class=""exp-image"">
                    <div class=""question-area"">
                        <p style=""font-size: 20px; font-weight: bold; margin: 0;"">Is there a person in this image?</p>
                    </div>
                </div>","1","main_experiment_trial","5","market_semantic","semantic_sequence","chronological","","","","","","",""
"","","","","","html-keyboard-response","27","101986","0.0-27.0","2E42C4FA95A843539EAACD36EFE41B17","019cfa85-4f75-76e0-91de-e482c9391fa7","019cfa3a-388e-72ab-ad58-bdeb258f96cd","","null","
                <div class=""stimulus-container"">
                    <img src=""images/semantic_sequence/market_semantic/market_semantic_6.png"" class=""exp-image"">
                    <div class=""question-area""></div> 
                </div>","null","","","","","","","","","","","",""
"","","","","","html-button-response","28","103104","0.0-28.0","2E42C4FA95A843539EAACD36EFE41B17","019cfa85-4f75-76e0-91de-e482c9391fa7","019cfa3a-388e-72ab-ad58-bdeb258f96cd","","1115","
                <div class=""stimulus-container"">
                    <img src=""images/semantic_sequence/market_semantic/market_semantic_6.png"" class=""exp-image"">
                    <div class=""question-area"">
                        <p style=""font-size: 20px; font-weight: bold; margin: 0;"">Is there a person in this image?</p>
                    </div>
                </div>","1","main_experiment_trial","6","market_semantic","semantic_sequence","chronological","","","","","","",""
"","","","","","html-keyboard-response","29","104108","0.0-29.0","2E42C4FA95A843539EAACD36EFE41B17","019cfa85-4f75-76e0-91de-e482c9391fa7","019cfa3a-388e-72ab-ad58-bdeb258f96cd","","null","
                <div class=""stimulus-container"">
                    <img src=""images/semantic_sequence/market_semantic/market_semantic_7.png"" class=""exp-image"">
                    <div class=""question-area""></div> 
                </div>","null","","","","","","","","","","","",""
"","","","","","html-button-response","30","105206","0.0-30.0","2E42C4FA95A843539EAACD36EFE41B17","019cfa85-4f75-76e0-91de-e482c9391fa7","019cfa3a-388e-72ab-ad58-bdeb258f96cd","","1096","
                <div class=""stimulus-container"">
                    <img src=""images/semantic_sequence/market_semantic/market_semantic_7.png"" class=""exp-image"">
                    <div class=""question-area"">
                        <p style=""font-size: 20px; font-weight: bold; margin: 0;"">Is there a person in this image?</p>
                    </div>
                </div>","0","main_experiment_trial","7","market_semantic","semantic_sequence","chronological","","","","","","",""
"","","","","","html-keyboard-response","31","106212","0.0-31.0","2E42C4FA95A843539EAACD36EFE41B17","019cfa85-4f75-76e0-91de-e482c9391fa7","019cfa3a-388e-72ab-ad58-bdeb258f96cd","","null","
                <div class=""stimulus-container"">
                    <img src=""images/semantic_sequence/market_semantic/market_semantic_8.png"" class=""exp-image"">
                    <div class=""question-area""></div> 
                </div>","null","","","","","","","","","","","",""
"","","","","","html-button-response","32","107156","0.0-32.0","2E42C4FA95A843539EAACD36EFE41B17","019cfa85-4f75-76e0-91de-e482c9391fa7","019cfa3a-388e-72ab-ad58-bdeb258f96cd","","942","
                <div class=""stimulus-container"">
                    <img src=""images/semantic_sequence/market_semantic/market_semantic_8.png"" class=""exp-image"">
                    <div class=""question-area"">
                        <p style=""font-size: 20px; font-weight: bold; margin: 0;"">Is there a person in this image?</p>
                    </div>
                </div>","1","main_experiment_trial","8","market_semantic","semantic_sequence","chronological","","","","","","",""
"","","","","","html-keyboard-response","33","108160","0.0-33.0","2E42C4FA95A843539EAACD36EFE41B17","019cfa85-4f75-76e0-91de-e482c9391fa7","019cfa3a-388e-72ab-ad58-bdeb258f96cd","","null","
                <div class=""stimulus-container"">
                    <img src=""images/semantic_sequence/market_semantic/market_semantic_9.png"" class=""exp-image"">
                    <div class=""question-area""></div> 
                </div>","null","","","","","","","","","","","",""
"","","","","","html-button-response","34","111147","0.0-34.0","2E42C4FA95A843539EAACD36EFE41B17","019cfa85-4f75-76e0-91de-e482c9391fa7","019cfa3a-388e-72ab-ad58-bdeb258f96cd","","2986","
                <div class=""stimulus-container"">
                    <img src=""images/semantic_sequence/market_semantic/market_semantic_9.png"" class=""exp-image"">
                    <div class=""question-area"">
                        <p style=""font-size: 20px; font-weight: bold; margin: 0;"">Is there a person in this image?</p>
                    </div>
                </div>","0","main_experiment_trial","9","market_semantic","semantic_sequence","chronological","","","","","","",""
"","","","","","html-keyboard-response","35","112157","0.0-35.0","2E42C4FA95A843539EAACD36EFE41B17","019cfa85-4f75-76e0-91de-e482c9391fa7","019cfa3a-388e-72ab-ad58-bdeb258f96cd","","null","
                <div class=""stimulus-container"">
                    <img src=""images/semantic_sequence/market_semantic/market_semantic_ten.png"" class=""exp-image"">
                    <div class=""question-area""></div> 
                </div>","null","","","","","","","","","","","",""
"","","","","","html-button-response","36","112963","0.0-36.0","2E42C4FA95A843539EAACD36EFE41B17","019cfa85-4f75-76e0-91de-e482c9391fa7","019cfa3a-388e-72ab-ad58-bdeb258f96cd","","804","
                <div class=""stimulus-container"">
                    <img src=""images/semantic_sequence/market_semantic/market_semantic_ten.png"" class=""exp-image"">
                    <div class=""question-area"">
                        <p style=""font-size: 20px; font-weight: bold; margin: 0;"">Is there a person in this image?</p>
                    </div>
                </div>","1","main_experiment_trial","ten","market_semantic","semantic_sequence","chronological","","","","","","",""
"","","","","","html-keyboard-response","37","117975","0.0-37.0","2E42C4FA95A843539EAACD36EFE41B17","019cfa85-4f75-76e0-91de-e482c9391fa7","019cfa3a-388e-72ab-ad58-bdeb258f96cd","","null","<div style=""background-color: white; width: 100vw; height: 100vh;""></div>","null","","","","","","","","","","","",""
"","","","","","html-keyboard-response","38","118977","0.0-38.0","2E42C4FA95A843539EAACD36EFE41B17","019cfa85-4f75-76e0-91de-e482c9391fa7","019cfa3a-388e-72ab-ad58-bdeb258f96cd","","null","
                <div class=""stimulus-container"">
                    <img src=""images/causal_sequence/the_performance_causal/the_performance_causal_1.png"" class=""exp-image"">
                    <div class=""question-area""></div> 
                </div>","null","","","","","","","","","","","",""
"","","","","","html-button-response","39","121520","0.0-39.0","2E42C4FA95A843539EAACD36EFE41B17","019cfa85-4f75-76e0-91de-e482c9391fa7","019cfa3a-388e-72ab-ad58-bdeb258f96cd","","2540","
                <div class=""stimulus-container"">
                    <img src=""images/causal_sequence/the_performance_causal/the_performance_causal_1.png"" class=""exp-image"">
                    <div class=""question-area"">
                        <p style=""font-size: 20px; font-weight: bold; margin: 0;"">Is there a person in this image?</p>
                    </div>
                </div>","0","main_experiment_trial","1","the_performance_causal","causal_sequence","chronological","","","","","","",""
"","","","","","html-keyboard-response","40","122532","0.0-40.0","2E42C4FA95A843539EAACD36EFE41B17","019cfa85-4f75-76e0-91de-e482c9391fa7","019cfa3a-388e-72ab-ad58-bdeb258f96cd","","null","
                <div class=""stimulus-container"">
                    <img src=""images/causal_sequence/the_performance_causal/the_performance_causal_2.png"" class=""exp-image"">
                    <div class=""question-area""></div> 
                </div>","null","","","","","","","","","","","",""
"","","","","","html-button-response","41","124192","0.0-41.0","2E42C4FA95A843539EAACD36EFE41B17","019cfa85-4f75-76e0-91de-e482c9391fa7","019cfa3a-388e-72ab-ad58-bdeb258f96cd","","1658","
                <div class=""stimulus-container"">
                    <img src=""images/causal_sequence/the_performance_causal/the_performance_causal_2.png"" class=""exp-image"">
                    <div class=""question-area"">
                        <p style=""font-size: 20px; font-weight: bold; margin: 0;"">Is there a person in this image?</p>
                    </div>
                </div>","0","main_experiment_trial","2","the_performance_causal","causal_sequence","chronological","","","","","","",""
"","","","","","html-keyboard-response","42","125209","0.0-42.0","2E42C4FA95A843539EAACD36EFE41B17","019cfa85-4f75-76e0-91de-e482c9391fa7","019cfa3a-388e-72ab-ad58-bdeb258f96cd","","null","
                <div class=""stimulus-container"">
                    <img src=""images/causal_sequence/the_performance_causal/the_performance_causal_3.png"" class=""exp-image"">
                    <div class=""question-area""></div> 
                </div>","null","","","","","","","","","","","",""
"","","","","","html-button-response","43","126123","0.0-43.0","2E42C4FA95A843539EAACD36EFE41B17","019cfa85-4f75-76e0-91de-e482c9391fa7","019cfa3a-388e-72ab-ad58-bdeb258f96cd","","913","
                <div class=""stimulus-container"">
                    <img src=""images/causal_sequence/the_performance_causal/the_performance_causal_3.png"" class=""exp-image"">
                    <div class=""question-area"">
                        <p style=""font-size: 20px; font-weight: bold; margin: 0;"">Is there a person in this image?</p>
                    </div>
                </div>","0","main_experiment_trial","3","the_performance_causal","causal_sequence","chronological","","","","","","",""
"","","","","","html-keyboard-response","44","127128","0.0-44.0","2E42C4FA95A843539EAACD36EFE41B17","019cfa85-4f75-76e0-91de-e482c9391fa7","019cfa3a-388e-72ab-ad58-bdeb258f96cd","","null","
                <div class=""stimulus-container"">
                    <img src=""images/causal_sequence/the_performance_causal/the_performance_causal_4.png"" class=""exp-image"">
                    <div class=""question-area""></div> 
                </div>","null","","","","","","","","","","","",""
"","","","","","html-button-response","45","127980","0.0-45.0","2E42C4FA95A843539EAACD36EFE41B17","019cfa85-4f75-76e0-91de-e482c9391fa7","019cfa3a-388e-72ab-ad58-bdeb258f96cd","","850","
                <div class=""stimulus-container"">
                    <img src=""images/causal_sequence/the_performance_causal/the_performance_causal_4.png"" class=""exp-image"">
                    <div class=""question-area"">
                        <p style=""font-size: 20px; font-weight: bold; margin: 0;"">Is there a person in this image?</p>
                    </div>
                </div>","0","main_experiment_trial","4","the_performance_causal","causal_sequence","chronological","","","","","","",""
"","","","","","html-keyboard-response","46","128989","0.0-46.0","2E42C4FA95A843539EAACD36EFE41B17","019cfa85-4f75-76e0-91de-e482c9391fa7","019cfa3a-388e-72ab-ad58-bdeb258f96cd","","null","
                <div class=""stimulus-container"">
                    <img src=""images/causal_sequence/the_performance_causal/the_performance_causal_5.png"" class=""exp-image"">
                    <div class=""question-area""></div> 
                </div>","null","","","","","","","","","","","",""
"","","","","","html-button-response","47","129936","0.0-47.0","2E42C4FA95A843539EAACD36EFE41B17","019cfa85-4f75-76e0-91de-e482c9391fa7","019cfa3a-388e-72ab-ad58-bdeb258f96cd","","945","
                <div class=""stimulus-container"">
                    <img src=""images/causal_sequence/the_performance_causal/the_performance_causal_5.png"" class=""exp-image"">
                    <div class=""question-area"">
                        <p style=""font-size: 20px; font-weight: bold; margin: 0;"">Is there a person in this image?</p>
                    </div>
                </div>","0","main_experiment_trial","5","the_performance_causal","causal_sequence","chronological","","","","","","",""
"","","","","","html-keyboard-response","48","130940","0.0-48.0","2E42C4FA95A843539EAACD36EFE41B17","019cfa85-4f75-76e0-91de-e482c9391fa7","019cfa3a-388e-72ab-ad58-bdeb258f96cd","","null","
                <div class=""stimulus-container"">
                    <img src=""images/causal_sequence/the_performance_causal/the_performance_causal_6.png"" class=""exp-image"">
                    <div class=""question-area""></div> 
                </div>","null","","","","","","","","","","","",""
"","","","","","html-button-response","49","131738","0.0-49.0","2E42C4FA95A843539EAACD36EFE41B17","019cfa85-4f75-76e0-91de-e482c9391fa7","019cfa3a-388e-72ab-ad58-bdeb258f96cd","","796","
                <div class=""stimulus-container"">
                    <img src=""images/causal_sequence/the_performance_causal/the_performance_causal_6.png"" class=""exp-image"">
                    <div class=""question-area"">
                        <p style=""font-size: 20px; font-weight: bold; margin: 0;"">Is there a person in this image?</p>
                    </div>
                </div>","0","main_experiment_trial","6","the_performance_causal","causal_sequence","chronological","","","","","","",""
"","","","","","html-keyboard-response","50","132748","0.0-50.0","2E42C4FA95A843539EAACD36EFE41B17","019cfa85-4f75-76e0-91de-e482c9391fa7","019cfa3a-388e-72ab-ad58-bdeb258f96cd","","null","
                <div class=""stimulus-container"">
                    <img src=""images/causal_sequence/the_performance_causal/the_performance_causal_7.png"" class=""exp-image"">
                    <div class=""question-area""></div> 
                </div>","null","","","","","","","","","","","",""
"","","","","","html-button-response","51","133823","0.0-51.0","2E42C4FA95A843539EAACD36EFE41B17","019cfa85-4f75-76e0-91de-e482c9391fa7","019cfa3a-388e-72ab-ad58-bdeb258f96cd","","1073","
                <div class=""stimulus-container"">
                    <img src=""images/causal_sequence/the_performance_causal/the_performance_causal_7.png"" class=""exp-image"">
                    <div class=""question-area"">
                        <p style=""font-size: 20px; font-weight: bold; margin: 0;"">Is there a person in this image?</p>
                    </div>
                </div>","0","main_experiment_trial","7","the_performance_causal","causal_sequence","chronological","","","","","","",""
"","","","","","html-keyboard-response","52","134836","0.0-52.0","2E42C4FA95A843539EAACD36EFE41B17","019cfa85-4f75-76e0-91de-e482c9391fa7","019cfa3a-388e-72ab-ad58-bdeb258f96cd","","null","
                <div class=""stimulus-container"">
                    <img src=""images/causal_sequence/the_performance_causal/the_performance_causal_8.png"" class=""exp-image"">
                    <div class=""question-area""></div> 
                </div>","null","","","","","","","","","","","",""
"","","","","","html-button-response","53","135675","0.0-53.0","2E42C4FA95A843539EAACD36EFE41B17","019cfa85-4f75-76e0-91de-e482c9391fa7","019cfa3a-388e-72ab-ad58-bdeb258f96cd","","838","
                <div class=""stimulus-container"">
                    <img src=""images/causal_sequence/the_performance_causal/the_performance_causal_8.png"" class=""exp-image"">
                    <div class=""question-area"">
                        <p style=""font-size: 20px; font-weight: bold; margin: 0;"">Is there a person in this image?</p>
                    </div>
                </div>","0","main_experiment_trial","8","the_performance_causal","causal_sequence","chronological","","","","","","",""
"","","","","","html-keyboard-response","54","136683","0.0-54.0","2E42C4FA95A843539EAACD36EFE41B17","019cfa85-4f75-76e0-91de-e482c9391fa7","019cfa3a-388e-72ab-ad58-bdeb258f96cd","","null","
                <div class=""stimulus-container"">
                    <img src=""images/causal_sequence/the_performance_causal/the_performance_causal_9.png"" class=""exp-image"">
                    <div class=""question-area""></div> 
                </div>","null","","","","","","","","","","","",""
"","","","","","html-button-response","55","138816","0.0-55.0","2E42C4FA95A843539EAACD36EFE41B17","019cfa85-4f75-76e0-91de-e482c9391fa7","019cfa3a-388e-72ab-ad58-bdeb258f96cd","","2131","
                <div class=""stimulus-container"">
                    <img src=""images/causal_sequence/the_performance_causal/the_performance_causal_9.png"" class=""exp-image"">
                    <div class=""question-area"">
                        <p style=""font-size: 20px; font-weight: bold; margin: 0;"">Is there a person in this image?</p>
                    </div>
                </div>","0","main_experiment_trial","9","the_performance_causal","causal_sequence","chronological","","","","","","",""
"","","","","","html-keyboard-response","56","139826","0.0-56.0","2E42C4FA95A843539EAACD36EFE41B17","019cfa85-4f75-76e0-91de-e482c9391fa7","019cfa3a-388e-72ab-ad58-bdeb258f96cd","","null","
                <div class=""stimulus-container"">
                    <img src=""images/causal_sequence/the_performance_causal/the_performance_causal_ten.png"" class=""exp-image"">
                    <div class=""question-area""></div> 
                </div>","null","","","","","","","","","","","",""
"","","","","","html-button-response","57","140493","0.0-57.0","2E42C4FA95A843539EAACD36EFE41B17","019cfa85-4f75-76e0-91de-e482c9391fa7","019cfa3a-388e-72ab-ad58-bdeb258f96cd","","665","
                <div class=""stimulus-container"">
                    <img src=""images/causal_sequence/the_performance_causal/the_performance_causal_ten.png"" class=""exp-image"">
                    <div class=""question-area"">
                        <p style=""font-size: 20px; font-weight: bold; margin: 0;"">Is there a person in this image?</p>
                    </div>
                </div>","0","main_experiment_trial","ten","the_performance_causal","causal_sequence","chronological","","","","","","",""
"","","","","","html-keyboard-response","58","145499","0.0-58.0","2E42C4FA95A843539EAACD36EFE41B17","019cfa85-4f75-76e0-91de-e482c9391fa7","019cfa3a-388e-72ab-ad58-bdeb258f96cd","","null","<div style=""background-color: white; width: 100vw; height: 100vh;""></div>","null","","","","","","","","","","","",""
"","","","","","html-keyboard-response","59","146507","0.0-59.0","2E42C4FA95A843539EAACD36EFE41B17","019cfa85-4f75-76e0-91de-e482c9391fa7","019cfa3a-388e-72ab-ad58-bdeb258f96cd","","null","
                <div class=""stimulus-container"">
                    <img src=""images/semantic_sequence/visiting_cities_semantic/visiting_cities_semantic_1.png"" class=""exp-image"">
                    <div class=""question-area""></div> 
                </div>","null","","","","","","","","","","","",""
"","","","","","html-button-response","60","148425","0.0-60.0","2E42C4FA95A843539EAACD36EFE41B17","019cfa85-4f75-76e0-91de-e482c9391fa7","019cfa3a-388e-72ab-ad58-bdeb258f96cd","","1917","
                <div class=""stimulus-container"">
                    <img src=""images/semantic_sequence/visiting_cities_semantic/visiting_cities_semantic_1.png"" class=""exp-image"">
                    <div class=""question-area"">
                        <p style=""font-size: 20px; font-weight: bold; margin: 0;"">Is there a person in this image?</p>
                    </div>
                </div>","0","main_experiment_trial","1","visiting_cities_semantic","semantic_sequence","chronological","","","","","","",""
"","","","","","html-keyboard-response","61","149430","0.0-61.0","2E42C4FA95A843539EAACD36EFE41B17","019cfa85-4f75-76e0-91de-e482c9391fa7","019cfa3a-388e-72ab-ad58-bdeb258f96cd","","null","
                <div class=""stimulus-container"">
                    <img src=""images/semantic_sequence/visiting_cities_semantic/visiting_cities_semantic_2.png"" class=""exp-image"">
                    <div class=""question-area""></div> 
                </div>","null","","","","","","","","","","","",""
"","","","","","html-button-response","62","149974","0.0-62.0","2E42C4FA95A843539EAACD36EFE41B17","019cfa85-4f75-76e0-91de-e482c9391fa7","019cfa3a-388e-72ab-ad58-bdeb258f96cd","","543","
                <div class=""stimulus-container"">
                    <img src=""images/semantic_sequence/visiting_cities_semantic/visiting_cities_semantic_2.png"" class=""exp-image"">
                    <div class=""question-area"">
                        <p style=""font-size: 20px; font-weight: bold; margin: 0;"">Is there a person in this image?</p>
                    </div>
                </div>","1","main_experiment_trial","2","visiting_cities_semantic","semantic_sequence","chronological","","","","","","",""
"","","","","","html-keyboard-response","63","150985","0.0-63.0","2E42C4FA95A843539EAACD36EFE41B17","019cfa85-4f75-76e0-91de-e482c9391fa7","019cfa3a-388e-72ab-ad58-bdeb258f96cd","","null","
                <div class=""stimulus-container"">
                    <img src=""images/semantic_sequence/visiting_cities_semantic/visiting_cities_semantic_3.png"" class=""exp-image"">
                    <div class=""question-area""></div> 
                </div>","null","","","","","","","","","","","",""
"","","","","","html-button-response","64","151504","0.0-64.0","2E42C4FA95A843539EAACD36EFE41B17","019cfa85-4f75-76e0-91de-e482c9391fa7","019cfa3a-388e-72ab-ad58-bdeb258f96cd","","517","
                <div class=""stimulus-container"">
                    <img src=""images/semantic_sequence/visiting_cities_semantic/visiting_cities_semantic_3.png"" class=""exp-image"">
                    <div class=""question-area"">
                        <p style=""font-size: 20px; font-weight: bold; margin: 0;"">Is there a person in this image?</p>
                    </div>
                </div>","1","main_experiment_trial","3","visiting_cities_semantic","semantic_sequence","chronological","","","","","","",""
"","","","","","html-keyboard-response","65","152520","0.0-65.0","2E42C4FA95A843539EAACD36EFE41B17","019cfa85-4f75-76e0-91de-e482c9391fa7","019cfa3a-388e-72ab-ad58-bdeb258f96cd","","null","
                <div class=""stimulus-container"">
                    <img src=""images/semantic_sequence/visiting_cities_semantic/visiting_cities_semantic_4.png"" class=""exp-image"">
                    <div class=""question-area""></div> 
                </div>","null","","","","","","","","","","","",""
"","","","","","html-button-response","66","153010","0.0-66.0","2E42C4FA95A843539EAACD36EFE41B17","019cfa85-4f75-76e0-91de-e482c9391fa7","019cfa3a-388e-72ab-ad58-bdeb258f96cd","","488","
                <div class=""stimulus-container"">
                    <img src=""images/semantic_sequence/visiting_cities_semantic/visiting_cities_semantic_4.png"" class=""exp-image"">
                    <div class=""question-area"">
                        <p style=""font-size: 20px; font-weight: bold; margin: 0;"">Is there a person in this image?</p>
                    </div>
                </div>","1","main_experiment_trial","4","visiting_cities_semantic","semantic_sequence","chronological","","","","","","",""
"","","","","","html-keyboard-response","67","154015","0.0-67.0","2E42C4FA95A843539EAACD36EFE41B17","019cfa85-4f75-76e0-91de-e482c9391fa7","019cfa3a-388e-72ab-ad58-bdeb258f96cd","","null","
                <div class=""stimulus-container"">
                    <img src=""images/semantic_sequence/visiting_cities_semantic/visiting_cities_semantic_5.png"" class=""exp-image"">
                    <div class=""question-area""></div> 
                </div>","null","","","","","","","","","","","",""
"","","","","","html-button-response","68","154551","0.0-68.0","2E42C4FA95A843539EAACD36EFE41B17","019cfa85-4f75-76e0-91de-e482c9391fa7","019cfa3a-388e-72ab-ad58-bdeb258f96cd","","535","
                <div class=""stimulus-container"">
                    <img src=""images/semantic_sequence/visiting_cities_semantic/visiting_cities_semantic_5.png"" class=""exp-image"">
                    <div class=""question-area"">
                        <p style=""font-size: 20px; font-weight: bold; margin: 0;"">Is there a person in this image?</p>
                    </div>
                </div>","1","main_experiment_trial","5","visiting_cities_semantic","semantic_sequence","chronological","","","","","","",""
"","","","","","html-keyboard-response","69","155555","0.0-69.0","2E42C4FA95A843539EAACD36EFE41B17","019cfa85-4f75-76e0-91de-e482c9391fa7","019cfa3a-388e-72ab-ad58-bdeb258f96cd","","null","
                <div class=""stimulus-container"">
                    <img src=""images/semantic_sequence/visiting_cities_semantic/visiting_cities_semantic_6.png"" class=""exp-image"">
                    <div class=""question-area""></div> 
                </div>","null","","","","","","","","","","","",""
"","","","","","html-button-response","70","156075","0.0-70.0","2E42C4FA95A843539EAACD36EFE41B17","019cfa85-4f75-76e0-91de-e482c9391fa7","019cfa3a-388e-72ab-ad58-bdeb258f96cd","","516","
                <div class=""stimulus-container"">
                    <img src=""images/semantic_sequence/visiting_cities_semantic/visiting_cities_semantic_6.png"" class=""exp-image"">
                    <div class=""question-area"">
                        <p style=""font-size: 20px; font-weight: bold; margin: 0;"">Is there a person in this image?</p>
                    </div>
                </div>","1","main_experiment_trial","6","visiting_cities_semantic","semantic_sequence","chronological","","","","","","",""
"","","","","","html-keyboard-response","71","157081","0.0-71.0","2E42C4FA95A843539EAACD36EFE41B17","019cfa85-4f75-76e0-91de-e482c9391fa7","019cfa3a-388e-72ab-ad58-bdeb258f96cd","","null","
                <div class=""stimulus-container"">
                    <img src=""images/semantic_sequence/visiting_cities_semantic/visiting_cities_semantic_7.png"" class=""exp-image"">
                    <div class=""question-area""></div> 
                </div>","null","","","","","","","","","","","",""
"","","","","","html-button-response","72","157737","0.0-72.0","2E42C4FA95A843539EAACD36EFE41B17","019cfa85-4f75-76e0-91de-e482c9391fa7","019cfa3a-388e-72ab-ad58-bdeb258f96cd","","654","
                <div class=""stimulus-container"">
                    <img src=""images/semantic_sequence/visiting_cities_semantic/visiting_cities_semantic_7.png"" class=""exp-image"">
                    <div class=""question-area"">
                        <p style=""font-size: 20px; font-weight: bold; margin: 0;"">Is there a person in this image?</p>
                    </div>
                </div>","0","main_experiment_trial","7","visiting_cities_semantic","semantic_sequence","chronological","","","","","","",""
"","","","","","html-keyboard-response","73","158743","0.0-73.0","2E42C4FA95A843539EAACD36EFE41B17","019cfa85-4f75-76e0-91de-e482c9391fa7","019cfa3a-388e-72ab-ad58-bdeb258f96cd","","null","
                <div class=""stimulus-container"">
                    <img src=""images/semantic_sequence/visiting_cities_semantic/visiting_cities_semantic_8.png"" class=""exp-image"">
                    <div class=""question-area""></div> 
                </div>","null","","","","","","","","","","","",""
"","","","","","html-button-response","74","161245","0.0-74.0","2E42C4FA95A843539EAACD36EFE41B17","019cfa85-4f75-76e0-91de-e482c9391fa7","019cfa3a-388e-72ab-ad58-bdeb258f96cd","","2500","
                <div class=""stimulus-container"">
                    <img src=""images/semantic_sequence/visiting_cities_semantic/visiting_cities_semantic_8.png"" class=""exp-image"">
                    <div class=""question-area"">
                        <p style=""font-size: 20px; font-weight: bold; margin: 0;"">Is there a person in this image?</p>
                    </div>
                </div>","1","main_experiment_trial","8","visiting_cities_semantic","semantic_sequence","chronological","","","","","","",""
"","","","","","html-keyboard-response","75","162255","0.0-75.0","2E42C4FA95A843539EAACD36EFE41B17","019cfa85-4f75-76e0-91de-e482c9391fa7","019cfa3a-388e-72ab-ad58-bdeb258f96cd","","null","
                <div class=""stimulus-container"">
                    <img src=""images/semantic_sequence/visiting_cities_semantic/visiting_cities_semantic_9.png"" class=""exp-image"">
                    <div class=""question-area""></div> 
                </div>","null","","","","","","","","","","","",""
"","","","","","html-button-response","76","162759","0.0-76.0","2E42C4FA95A843539EAACD36EFE41B17","019cfa85-4f75-76e0-91de-e482c9391fa7","019cfa3a-388e-72ab-ad58-bdeb258f96cd","","502","
                <div class=""stimulus-container"">
                    <img src=""images/semantic_sequence/visiting_cities_semantic/visiting_cities_semantic_9.png"" class=""exp-image"">
                    <div class=""question-area"">
                        <p style=""font-size: 20px; font-weight: bold; margin: 0;"">Is there a person in this image?</p>
                    </div>
                </div>","1","main_experiment_trial","9","visiting_cities_semantic","semantic_sequence","chronological","","","","","","",""
"","","","","","html-keyboard-response","77","163769","0.0-77.0","2E42C4FA95A843539EAACD36EFE41B17","019cfa85-4f75-76e0-91de-e482c9391fa7","019cfa3a-388e-72ab-ad58-bdeb258f96cd","","null","
                <div class=""stimulus-container"">
                    <img src=""images/semantic_sequence/visiting_cities_semantic/visiting_cities_semantic_ten.png"" class=""exp-image"">
                    <div class=""question-area""></div> 
                </div>","null","","","","","","","","","","","",""
"","","","","","html-button-response","78","165331","0.0-78.0","2E42C4FA95A843539EAACD36EFE41B17","019cfa85-4f75-76e0-91de-e482c9391fa7","019cfa3a-388e-72ab-ad58-bdeb258f96cd","","1560","
                <div class=""stimulus-container"">
                    <img src=""images/semantic_sequence/visiting_cities_semantic/visiting_cities_semantic_ten.png"" class=""exp-image"">
                    <div class=""question-area"">
                        <p style=""font-size: 20px; font-weight: bold; margin: 0;"">Is there a person in this image?</p>
                    </div>
                </div>","1","main_experiment_trial","ten","visiting_cities_semantic","semantic_sequence","chronological","","","","","","",""
"","","","","","html-keyboard-response","79","170348","0.0-79.0","2E42C4FA95A843539EAACD36EFE41B17","019cfa85-4f75-76e0-91de-e482c9391fa7","019cfa3a-388e-72ab-ad58-bdeb258f96cd","","null","<div style=""background-color: white; width: 100vw; height: 100vh;""></div>","null","","","","","","","","","","","",""
"","","","","","html-keyboard-response","80","171354","0.0-80.0","2E42C4FA95A843539EAACD36EFE41B17","019cfa85-4f75-76e0-91de-e482c9391fa7","019cfa3a-388e-72ab-ad58-bdeb258f96cd","","null","
                <div class=""stimulus-container"">
                    <img src=""images/causal_sequence/dog_causal/dog_causal_1.png"" class=""exp-image"">
                    <div class=""question-area""></div> 
                </div>","null","","","","","","","","","","","",""
"","","","","","html-button-response","81","172413","0.0-81.0","2E42C4FA95A843539EAACD36EFE41B17","019cfa85-4f75-76e0-91de-e482c9391fa7","019cfa3a-388e-72ab-ad58-bdeb258f96cd","","1058","
                <div class=""stimulus-container"">
                    <img src=""images/causal_sequence/dog_causal/dog_causal_1.png"" class=""exp-image"">
                    <div class=""question-area"">
                        <p style=""font-size: 20px; font-weight: bold; margin: 0;"">Is there a person in this image?</p>
                    </div>
                </div>","0","main_experiment_trial","1","dog_causal","causal_sequence","chronological","","","","","","",""
"","","","","","html-keyboard-response","82","173423","0.0-82.0","2E42C4FA95A843539EAACD36EFE41B17","019cfa85-4f75-76e0-91de-e482c9391fa7","019cfa3a-388e-72ab-ad58-bdeb258f96cd","","null","
                <div class=""stimulus-container"">
                    <img src=""images/causal_sequence/dog_causal/dog_causal_2.png"" class=""exp-image"">
                    <div class=""question-area""></div> 
                </div>","null","","","","","","","","","","","",""
"","","","","","html-button-response","83","173940","0.0-83.0","2E42C4FA95A843539EAACD36EFE41B17","019cfa85-4f75-76e0-91de-e482c9391fa7","019cfa3a-388e-72ab-ad58-bdeb258f96cd","","516","
                <div class=""stimulus-container"">
                    <img src=""images/causal_sequence/dog_causal/dog_causal_2.png"" class=""exp-image"">
                    <div class=""question-area"">
                        <p style=""font-size: 20px; font-weight: bold; margin: 0;"">Is there a person in this image?</p>
                    </div>
                </div>","0","main_experiment_trial","2","dog_causal","causal_sequence","chronological","","","","","","",""
"","","","","","html-keyboard-response","84","174945","0.0-84.0","2E42C4FA95A843539EAACD36EFE41B17","019cfa85-4f75-76e0-91de-e482c9391fa7","019cfa3a-388e-72ab-ad58-bdeb258f96cd","","null","
                <div class=""stimulus-container"">
                    <img src=""images/causal_sequence/dog_causal/dog_causal_3.png"" class=""exp-image"">
                    <div class=""question-area""></div> 
                </div>","null","","","","","","","","","","","",""
"","","","","","html-button-response","85","175476","0.0-85.0","2E42C4FA95A843539EAACD36EFE41B17","019cfa85-4f75-76e0-91de-e482c9391fa7","019cfa3a-388e-72ab-ad58-bdeb258f96cd","","529","
                <div class=""stimulus-container"">
                    <img src=""images/causal_sequence/dog_causal/dog_causal_3.png"" class=""exp-image"">
                    <div class=""question-area"">
                        <p style=""font-size: 20px; font-weight: bold; margin: 0;"">Is there a person in this image?</p>
                    </div>
                </div>","0","main_experiment_trial","3","dog_causal","causal_sequence","chronological","","","","","","",""
"","","","","","html-keyboard-response","86","176491","0.0-86.0","2E42C4FA95A843539EAACD36EFE41B17","019cfa85-4f75-76e0-91de-e482c9391fa7","019cfa3a-388e-72ab-ad58-bdeb258f96cd","","null","
                <div class=""stimulus-container"">
                    <img src=""images/causal_sequence/dog_causal/dog_causal_4.png"" class=""exp-image"">
                    <div class=""question-area""></div> 
                </div>","null","","","","","","","","","","","",""
"","","","","","html-button-response","87","176951","0.0-87.0","2E42C4FA95A843539EAACD36EFE41B17","019cfa85-4f75-76e0-91de-e482c9391fa7","019cfa3a-388e-72ab-ad58-bdeb258f96cd","","457","
                <div class=""stimulus-container"">
                    <img src=""images/causal_sequence/dog_causal/dog_causal_4.png"" class=""exp-image"">
                    <div class=""question-area"">
                        <p style=""font-size: 20px; font-weight: bold; margin: 0;"">Is there a person in this image?</p>
                    </div>
                </div>","0","main_experiment_trial","4","dog_causal","causal_sequence","chronological","","","","","","",""
"","","","","","html-keyboard-response","88","177959","0.0-88.0","2E42C4FA95A843539EAACD36EFE41B17","019cfa85-4f75-76e0-91de-e482c9391fa7","019cfa3a-388e-72ab-ad58-bdeb258f96cd","","null","
                <div class=""stimulus-container"">
                    <img src=""images/causal_sequence/dog_causal/dog_causal_5.png"" class=""exp-image"">
                    <div class=""question-area""></div> 
                </div>","null","","","","","","","","","","","",""
"","","","","","html-button-response","89","178538","0.0-89.0","2E42C4FA95A843539EAACD36EFE41B17","019cfa85-4f75-76e0-91de-e482c9391fa7","019cfa3a-388e-72ab-ad58-bdeb258f96cd","","578","
                <div class=""stimulus-container"">
                    <img src=""images/causal_sequence/dog_causal/dog_causal_5.png"" class=""exp-image"">
                    <div class=""question-area"">
                        <p style=""font-size: 20px; font-weight: bold; margin: 0;"">Is there a person in this image?</p>
                    </div>
                </div>","0","main_experiment_trial","5","dog_causal","causal_sequence","chronological","","","","","","",""
"","","","","","html-keyboard-response","90","179546","0.0-90.0","2E42C4FA95A843539EAACD36EFE41B17","019cfa85-4f75-76e0-91de-e482c9391fa7","019cfa3a-388e-72ab-ad58-bdeb258f96cd","","null","
                <div class=""stimulus-container"">
                    <img src=""images/causal_sequence/dog_causal/dog_causal_6.png"" class=""exp-image"">
                    <div class=""question-area""></div> 
                </div>","null","","","","","","","","","","","",""
"","","","","","html-button-response","91","180135","0.0-91.0","2E42C4FA95A843539EAACD36EFE41B17","019cfa85-4f75-76e0-91de-e482c9391fa7","019cfa3a-388e-72ab-ad58-bdeb258f96cd","","588","
                <div class=""stimulus-container"">
                    <img src=""images/causal_sequence/dog_causal/dog_causal_6.png"" class=""exp-image"">
                    <div class=""question-area"">
                        <p style=""font-size: 20px; font-weight: bold; margin: 0;"">Is there a person in this image?</p>
                    </div>
                </div>","0","main_experiment_trial","6","dog_causal","causal_sequence","chronological","","","","","","",""
"","","","","","html-keyboard-response","92","181140","0.0-92.0","2E42C4FA95A843539EAACD36EFE41B17","019cfa85-4f75-76e0-91de-e482c9391fa7","019cfa3a-388e-72ab-ad58-bdeb258f96cd","","null","
                <div class=""stimulus-container"">
                    <img src=""images/causal_sequence/dog_causal/dog_causal_7.png"" class=""exp-image"">
                    <div class=""question-area""></div> 
                </div>","null","","","","","","","","","","","",""
"","","","","","html-button-response","93","181753","0.0-93.0","2E42C4FA95A843539EAACD36EFE41B17","019cfa85-4f75-76e0-91de-e482c9391fa7","019cfa3a-388e-72ab-ad58-bdeb258f96cd","","612","
                <div class=""stimulus-container"">
                    <img src=""images/causal_sequence/dog_causal/dog_causal_7.png"" class=""exp-image"">
                    <div class=""question-area"">
                        <p style=""font-size: 20px; font-weight: bold; margin: 0;"">Is there a person in this image?</p>
                    </div>
                </div>","0","main_experiment_trial","7","dog_causal","causal_sequence","chronological","","","","","","",""
"","","","","","html-keyboard-response","94","182763","0.0-94.0","2E42C4FA95A843539EAACD36EFE41B17","019cfa85-4f75-76e0-91de-e482c9391fa7","019cfa3a-388e-72ab-ad58-bdeb258f96cd","","null","
                <div class=""stimulus-container"">
                    <img src=""images/causal_sequence/dog_causal/dog_causal_8.png"" class=""exp-image"">
                    <div class=""question-area""></div> 
                </div>","null","","","","","","","","","","","",""
"","","","","","html-button-response","95","184608","0.0-95.0","2E42C4FA95A843539EAACD36EFE41B17","019cfa85-4f75-76e0-91de-e482c9391fa7","019cfa3a-388e-72ab-ad58-bdeb258f96cd","","1844","
                <div class=""stimulus-container"">
                    <img src=""images/causal_sequence/dog_causal/dog_causal_8.png"" class=""exp-image"">
                    <div class=""question-area"">
                        <p style=""font-size: 20px; font-weight: bold; margin: 0;"">Is there a person in this image?</p>
                    </div>
                </div>","0","main_experiment_trial","8","dog_causal","causal_sequence","chronological","","","","","","",""
"","","","","","html-keyboard-response","96","185621","0.0-96.0","2E42C4FA95A843539EAACD36EFE41B17","019cfa85-4f75-76e0-91de-e482c9391fa7","019cfa3a-388e-72ab-ad58-bdeb258f96cd","","null","
                <div class=""stimulus-container"">
                    <img src=""images/causal_sequence/dog_causal/dog_causal_9.png"" class=""exp-image"">
                    <div class=""question-area""></div> 
                </div>","null","","","","","","","","","","","",""
"","","","","","html-button-response","97","186227","0.0-97.0","2E42C4FA95A843539EAACD36EFE41B17","019cfa85-4f75-76e0-91de-e482c9391fa7","019cfa3a-388e-72ab-ad58-bdeb258f96cd","","604","
                <div class=""stimulus-container"">
                    <img src=""images/causal_sequence/dog_causal/dog_causal_9.png"" class=""exp-image"">
                    <div class=""question-area"">
                        <p style=""font-size: 20px; font-weight: bold; margin: 0;"">Is there a person in this image?</p>
                    </div>
                </div>","0","main_experiment_trial","9","dog_causal","causal_sequence","chronological","","","","","","",""
"","","","","","html-keyboard-response","98","187236","0.0-98.0","2E42C4FA95A843539EAACD36EFE41B17","019cfa85-4f75-76e0-91de-e482c9391fa7","019cfa3a-388e-72ab-ad58-bdeb258f96cd","","null","
                <div class=""stimulus-container"">
                    <img src=""images/causal_sequence/dog_causal/dog_causal_ten.png"" class=""exp-image"">
                    <div class=""question-area""></div> 
                </div>","null","","","","","","","","","","","",""
"","","","","","html-button-response","99","188660","0.0-99.0","2E42C4FA95A843539EAACD36EFE41B17","019cfa85-4f75-76e0-91de-e482c9391fa7","019cfa3a-388e-72ab-ad58-bdeb258f96cd","","1423","
                <div class=""stimulus-container"">
                    <img src=""images/causal_sequence/dog_causal/dog_causal_ten.png"" class=""exp-image"">
                    <div class=""question-area"">
                        <p style=""font-size: 20px; font-weight: bold; margin: 0;"">Is there a person in this image?</p>
                    </div>
                </div>","0","main_experiment_trial","ten","dog_causal","causal_sequence","chronological","","","","","","",""
"","","","","","html-keyboard-response","100","193671","0.0-100.0","2E42C4FA95A843539EAACD36EFE41B17","019cfa85-4f75-76e0-91de-e482c9391fa7","019cfa3a-388e-72ab-ad58-bdeb258f96cd","","null","<div style=""background-color: white; width: 100vw; height: 100vh;""></div>","null","","","","","","","","","","","",""
"","","","","","html-keyboard-response","101","194680","0.0-101.0","2E42C4FA95A843539EAACD36EFE41B17","019cfa85-4f75-76e0-91de-e482c9391fa7","019cfa3a-388e-72ab-ad58-bdeb258f96cd","","null","
                <div class=""stimulus-container"">
                    <img src=""images/causal_sequence/coin_causal/coin_causal_1.png"" class=""exp-image"">
                    <div class=""question-area""></div> 
                </div>","null","","","","","","","","","","","",""
"","","","","","html-button-response","102","195580","0.0-102.0","2E42C4FA95A843539EAACD36EFE41B17","019cfa85-4f75-76e0-91de-e482c9391fa7","019cfa3a-388e-72ab-ad58-bdeb258f96cd","","897","
                <div class=""stimulus-container"">
                    <img src=""images/causal_sequence/coin_causal/coin_causal_1.png"" class=""exp-image"">
                    <div class=""question-area"">
                        <p style=""font-size: 20px; font-weight: bold; margin: 0;"">Is there a person in this image?</p>
                    </div>
                </div>","0","main_experiment_trial","1","coin_causal","causal_sequence","chronological","","","","","","",""
"","","","","","html-keyboard-response","103","196590","0.0-103.0","2E42C4FA95A843539EAACD36EFE41B17","019cfa85-4f75-76e0-91de-e482c9391fa7","019cfa3a-388e-72ab-ad58-bdeb258f96cd","","null","
                <div class=""stimulus-container"">
                    <img src=""images/causal_sequence/coin_causal/coin_causal_2.png"" class=""exp-image"">
                    <div class=""question-area""></div> 
                </div>","null","","","","","","","","","","","",""
"","","","","","html-button-response","104","197183","0.0-104.0","2E42C4FA95A843539EAACD36EFE41B17","019cfa85-4f75-76e0-91de-e482c9391fa7","019cfa3a-388e-72ab-ad58-bdeb258f96cd","","591","
                <div class=""stimulus-container"">
                    <img src=""images/causal_sequence/coin_causal/coin_causal_2.png"" class=""exp-image"">
                    <div class=""question-area"">
                        <p style=""font-size: 20px; font-weight: bold; margin: 0;"">Is there a person in this image?</p>
                    </div>
                </div>","0","main_experiment_trial","2","coin_causal","causal_sequence","chronological","","","","","","",""
"","","","","","html-keyboard-response","105","198191","0.0-105.0","2E42C4FA95A843539EAACD36EFE41B17","019cfa85-4f75-76e0-91de-e482c9391fa7","019cfa3a-388e-72ab-ad58-bdeb258f96cd","","null","
                <div class=""stimulus-container"">
                    <img src=""images/causal_sequence/coin_causal/coin_causal_3.png"" class=""exp-image"">
                    <div class=""question-area""></div> 
                </div>","null","","","","","","","","","","","",""
"","","","","","html-button-response","106","199050","0.0-106.0","2E42C4FA95A843539EAACD36EFE41B17","019cfa85-4f75-76e0-91de-e482c9391fa7","019cfa3a-388e-72ab-ad58-bdeb258f96cd","","856","
                <div class=""stimulus-container"">
                    <img src=""images/causal_sequence/coin_causal/coin_causal_3.png"" class=""exp-image"">
                    <div class=""question-area"">
                        <p style=""font-size: 20px; font-weight: bold; margin: 0;"">Is there a person in this image?</p>
                    </div>
                </div>","0","main_experiment_trial","3","coin_causal","causal_sequence","chronological","","","","","","",""
"","","","","","html-keyboard-response","107","200057","0.0-107.0","2E42C4FA95A843539EAACD36EFE41B17","019cfa85-4f75-76e0-91de-e482c9391fa7","019cfa3a-388e-72ab-ad58-bdeb258f96cd","","null","
                <div class=""stimulus-container"">
                    <img src=""images/causal_sequence/coin_causal/coin_causal_4.png"" class=""exp-image"">
                    <div class=""question-area""></div> 
                </div>","null","","","","","","","","","","","",""
"","","","","","html-button-response","108","200659","0.0-108.0","2E42C4FA95A843539EAACD36EFE41B17","019cfa85-4f75-76e0-91de-e482c9391fa7","019cfa3a-388e-72ab-ad58-bdeb258f96cd","","600","
                <div class=""stimulus-container"">
                    <img src=""images/causal_sequence/coin_causal/coin_causal_4.png"" class=""exp-image"">
                    <div class=""question-area"">
                        <p style=""font-size: 20px; font-weight: bold; margin: 0;"">Is there a person in this image?</p>
                    </div>
                </div>","0","main_experiment_trial","4","coin_causal","causal_sequence","chronological","","","","","","",""
"","","","","","html-keyboard-response","109","201669","0.0-109.0","2E42C4FA95A843539EAACD36EFE41B17","019cfa85-4f75-76e0-91de-e482c9391fa7","019cfa3a-388e-72ab-ad58-bdeb258f96cd","","null","
                <div class=""stimulus-container"">
                    <img src=""images/causal_sequence/coin_causal/coin_causal_5.png"" class=""exp-image"">
                    <div class=""question-area""></div> 
                </div>","null","","","","","","","","","","","",""
"","","","","","html-button-response","110","202557","0.0-110.0","2E42C4FA95A843539EAACD36EFE41B17","019cfa85-4f75-76e0-91de-e482c9391fa7","019cfa3a-388e-72ab-ad58-bdeb258f96cd","","885","
                <div class=""stimulus-container"">
                    <img src=""images/causal_sequence/coin_causal/coin_causal_5.png"" class=""exp-image"">
                    <div class=""question-area"">
                        <p style=""font-size: 20px; font-weight: bold; margin: 0;"">Is there a person in this image?</p>
                    </div>
                </div>","0","main_experiment_trial","5","coin_causal","causal_sequence","chronological","","","","","","",""
"","","","","","html-keyboard-response","111","203567","0.0-111.0","2E42C4FA95A843539EAACD36EFE41B17","019cfa85-4f75-76e0-91de-e482c9391fa7","019cfa3a-388e-72ab-ad58-bdeb258f96cd","","null","
                <div class=""stimulus-container"">
                    <img src=""images/causal_sequence/coin_causal/coin_causal_6.png"" class=""exp-image"">
                    <div class=""question-area""></div> 
                </div>","null","","","","","","","","","","","",""
"","","","","","html-button-response","112","204745","0.0-112.0","2E42C4FA95A843539EAACD36EFE41B17","019cfa85-4f75-76e0-91de-e482c9391fa7","019cfa3a-388e-72ab-ad58-bdeb258f96cd","","1177","
                <div class=""stimulus-container"">
                    <img src=""images/causal_sequence/coin_causal/coin_causal_6.png"" class=""exp-image"">
                    <div class=""question-area"">
                        <p style=""font-size: 20px; font-weight: bold; margin: 0;"">Is there a person in this image?</p>
                    </div>
                </div>","0","main_experiment_trial","6","coin_causal","causal_sequence","chronological","","","","","","",""
"","","","","","html-keyboard-response","113","205749","0.0-113.0","2E42C4FA95A843539EAACD36EFE41B17","019cfa85-4f75-76e0-91de-e482c9391fa7","019cfa3a-388e-72ab-ad58-bdeb258f96cd","","null","
                <div class=""stimulus-container"">
                    <img src=""images/causal_sequence/coin_causal/coin_causal_7.png"" class=""exp-image"">
                    <div class=""question-area""></div> 
                </div>","null","","","","","","","","","","","",""
"","","","","","html-button-response","114","206720","0.0-114.0","2E42C4FA95A843539EAACD36EFE41B17","019cfa85-4f75-76e0-91de-e482c9391fa7","019cfa3a-388e-72ab-ad58-bdeb258f96cd","","969","
                <div class=""stimulus-container"">
                    <img src=""images/causal_sequence/coin_causal/coin_causal_7.png"" class=""exp-image"">
                    <div class=""question-area"">
                        <p style=""font-size: 20px; font-weight: bold; margin: 0;"">Is there a person in this image?</p>
                    </div>
                </div>","1","main_experiment_trial","7","coin_causal","causal_sequence","chronological","","","","","","",""
"","","","","","html-keyboard-response","115","207722","0.0-115.0","2E42C4FA95A843539EAACD36EFE41B17","019cfa85-4f75-76e0-91de-e482c9391fa7","019cfa3a-388e-72ab-ad58-bdeb258f96cd","","null","
                <div class=""stimulus-container"">
                    <img src=""images/causal_sequence/coin_causal/coin_causal_8.png"" class=""exp-image"">
                    <div class=""question-area""></div> 
                </div>","null","","","","","","","","","","","",""
"","","","","","html-button-response","116","208344","0.0-116.0","2E42C4FA95A843539EAACD36EFE41B17","019cfa85-4f75-76e0-91de-e482c9391fa7","019cfa3a-388e-72ab-ad58-bdeb258f96cd","","621","
                <div class=""stimulus-container"">
                    <img src=""images/causal_sequence/coin_causal/coin_causal_8.png"" class=""exp-image"">
                    <div class=""question-area"">
                        <p style=""font-size: 20px; font-weight: bold; margin: 0;"">Is there a person in this image?</p>
                    </div>
                </div>","0","main_experiment_trial","8","coin_causal","causal_sequence","chronological","","","","","","",""
"","","","","","html-keyboard-response","117","209350","0.0-117.0","2E42C4FA95A843539EAACD36EFE41B17","019cfa85-4f75-76e0-91de-e482c9391fa7","019cfa3a-388e-72ab-ad58-bdeb258f96cd","","null","
                <div class=""stimulus-container"">
                    <img src=""images/causal_sequence/coin_causal/coin_causal_9.png"" class=""exp-image"">
                    <div class=""question-area""></div> 
                </div>","null","","","","","","","","","","","",""
"","","","","","html-button-response","118","209929","0.0-118.0","2E42C4FA95A843539EAACD36EFE41B17","019cfa85-4f75-76e0-91de-e482c9391fa7","019cfa3a-388e-72ab-ad58-bdeb258f96cd","","578","
                <div class=""stimulus-container"">
                    <img src=""images/causal_sequence/coin_causal/coin_causal_9.png"" class=""exp-image"">
                    <div class=""question-area"">
                        <p style=""font-size: 20px; font-weight: bold; margin: 0;"">Is there a person in this image?</p>
                    </div>
                </div>","0","main_experiment_trial","9","coin_causal","causal_sequence","chronological","","","","","","",""
"","","","","","html-keyboard-response","119","210949","0.0-119.0","2E42C4FA95A843539EAACD36EFE41B17","019cfa85-4f75-76e0-91de-e482c9391fa7","019cfa3a-388e-72ab-ad58-bdeb258f96cd","","null","
                <div class=""stimulus-container"">
                    <img src=""images/causal_sequence/coin_causal/coin_causal_ten.png"" class=""exp-image"">
                    <div class=""question-area""></div> 
                </div>","null","","","","","","","","","","","",""
"","","","","","html-button-response","120","211573","0.0-120.0","2E42C4FA95A843539EAACD36EFE41B17","019cfa85-4f75-76e0-91de-e482c9391fa7","019cfa3a-388e-72ab-ad58-bdeb258f96cd","","622","
                <div class=""stimulus-container"">
                    <img src=""images/causal_sequence/coin_causal/coin_causal_ten.png"" class=""exp-image"">
                    <div class=""question-area"">
                        <p style=""font-size: 20px; font-weight: bold; margin: 0;"">Is there a person in this image?</p>
                    </div>
                </div>","0","main_experiment_trial","ten","coin_causal","causal_sequence","chronological","","","","","","",""
"","","","","","html-keyboard-response","121","216585","0.0-121.0","2E42C4FA95A843539EAACD36EFE41B17","019cfa85-4f75-76e0-91de-e482c9391fa7","019cfa3a-388e-72ab-ad58-bdeb258f96cd","","null","<div style=""background-color: white; width: 100vw; height: 100vh;""></div>","null","","","","","","","","","","","",""
"","","","","","html-keyboard-response","122","217590","0.0-122.0","2E42C4FA95A843539EAACD36EFE41B17","019cfa85-4f75-76e0-91de-e482c9391fa7","019cfa3a-388e-72ab-ad58-bdeb258f96cd","","null","
                <div class=""stimulus-container"">
                    <img src=""images/semantic_sequence/housework_semantic/housework_semantic_1.png"" class=""exp-image"">
                    <div class=""question-area""></div> 
                </div>","null","","","","","","","","","","","",""
"","","","","","html-button-response","123","220596","0.0-123.0","2E42C4FA95A843539EAACD36EFE41B17","019cfa85-4f75-76e0-91de-e482c9391fa7","019cfa3a-388e-72ab-ad58-bdeb258f96cd","","null","
                <div class=""stimulus-container"">
                    <img src=""images/semantic_sequence/housework_semantic/housework_semantic_1.png"" class=""exp-image"">
                    <div class=""question-area"">
                        <p style=""font-size: 20px; font-weight: bold; margin: 0;"">Is there a person in this image?</p>
                    </div>
                </div>","null","main_experiment_trial","1","housework_semantic","semantic_sequence","chronological","","","","","","",""
"","","","","","html-keyboard-response","124","221614","0.0-124.0","2E42C4FA95A843539EAACD36EFE41B17","019cfa85-4f75-76e0-91de-e482c9391fa7","019cfa3a-388e-72ab-ad58-bdeb258f96cd","","null","
                <div class=""stimulus-container"">
                    <img src=""images/semantic_sequence/housework_semantic/housework_semantic_2.png"" class=""exp-image"">
                    <div class=""question-area""></div> 
                </div>","null","","","","","","","","","","","",""
"","","","","","html-button-response","125","222834","0.0-125.0","2E42C4FA95A843539EAACD36EFE41B17","019cfa85-4f75-76e0-91de-e482c9391fa7","019cfa3a-388e-72ab-ad58-bdeb258f96cd","","1219","
                <div class=""stimulus-container"">
                    <img src=""images/semantic_sequence/housework_semantic/housework_semantic_2.png"" class=""exp-image"">
                    <div class=""question-area"">
                        <p style=""font-size: 20px; font-weight: bold; margin: 0;"">Is there a person in this image?</p>
                    </div>
                </div>","0","main_experiment_trial","2","housework_semantic","semantic_sequence","chronological","","","","","","",""
"","","","","","html-keyboard-response","126","223846","0.0-126.0","2E42C4FA95A843539EAACD36EFE41B17","019cfa85-4f75-76e0-91de-e482c9391fa7","019cfa3a-388e-72ab-ad58-bdeb258f96cd","","null","
                <div class=""stimulus-container"">
                    <img src=""images/semantic_sequence/housework_semantic/housework_semantic_3.png"" class=""exp-image"">
                    <div class=""question-area""></div> 
                </div>","null","","","","","","","","","","","",""
"","","","","","html-button-response","127","224328","0.0-127.0","2E42C4FA95A843539EAACD36EFE41B17","019cfa85-4f75-76e0-91de-e482c9391fa7","019cfa3a-388e-72ab-ad58-bdeb258f96cd","","480","
                <div class=""stimulus-container"">
                    <img src=""images/semantic_sequence/housework_semantic/housework_semantic_3.png"" class=""exp-image"">
                    <div class=""question-area"">
                        <p style=""font-size: 20px; font-weight: bold; margin: 0;"">Is there a person in this image?</p>
                    </div>
                </div>","0","main_experiment_trial","3","housework_semantic","semantic_sequence","chronological","","","","","","",""
"","","","","","html-keyboard-response","128","225330","0.0-128.0","2E42C4FA95A843539EAACD36EFE41B17","019cfa85-4f75-76e0-91de-e482c9391fa7","019cfa3a-388e-72ab-ad58-bdeb258f96cd","","null","
                <div class=""stimulus-container"">
                    <img src=""images/semantic_sequence/housework_semantic/housework_semantic_4.png"" class=""exp-image"">
                    <div class=""question-area""></div> 
                </div>","null","","","","","","","","","","","",""
"","","","","","html-button-response","129","225799","0.0-129.0","2E42C4FA95A843539EAACD36EFE41B17","019cfa85-4f75-76e0-91de-e482c9391fa7","019cfa3a-388e-72ab-ad58-bdeb258f96cd","","467","
                <div class=""stimulus-container"">
                    <img src=""images/semantic_sequence/housework_semantic/housework_semantic_4.png"" class=""exp-image"">
                    <div class=""question-area"">
                        <p style=""font-size: 20px; font-weight: bold; margin: 0;"">Is there a person in this image?</p>
                    </div>
                </div>","0","main_experiment_trial","4","housework_semantic","semantic_sequence","chronological","","","","","","",""
"","","","","","html-keyboard-response","130","226814","0.0-130.0","2E42C4FA95A843539EAACD36EFE41B17","019cfa85-4f75-76e0-91de-e482c9391fa7","019cfa3a-388e-72ab-ad58-bdeb258f96cd","","null","
                <div class=""stimulus-container"">
                    <img src=""images/semantic_sequence/housework_semantic/housework_semantic_5.png"" class=""exp-image"">
                    <div class=""question-area""></div> 
                </div>","null","","","","","","","","","","","",""
"","","","","","html-button-response","131","227260","0.0-131.0","2E42C4FA95A843539EAACD36EFE41B17","019cfa85-4f75-76e0-91de-e482c9391fa7","019cfa3a-388e-72ab-ad58-bdeb258f96cd","","444","
                <div class=""stimulus-container"">
                    <img src=""images/semantic_sequence/housework_semantic/housework_semantic_5.png"" class=""exp-image"">
                    <div class=""question-area"">
                        <p style=""font-size: 20px; font-weight: bold; margin: 0;"">Is there a person in this image?</p>
                    </div>
                </div>","0","main_experiment_trial","5","housework_semantic","semantic_sequence","chronological","","","","","","",""
"","","","","","html-keyboard-response","132","228265","0.0-132.0","2E42C4FA95A843539EAACD36EFE41B17","019cfa85-4f75-76e0-91de-e482c9391fa7","019cfa3a-388e-72ab-ad58-bdeb258f96cd","","null","
                <div class=""stimulus-container"">
                    <img src=""images/semantic_sequence/housework_semantic/housework_semantic_6.png"" class=""exp-image"">
                    <div class=""question-area""></div> 
                </div>","null","","","","","","","","","","","",""
"","","","","","html-button-response","133","228786","0.0-133.0","2E42C4FA95A843539EAACD36EFE41B17","019cfa85-4f75-76e0-91de-e482c9391fa7","019cfa3a-388e-72ab-ad58-bdeb258f96cd","","520","
                <div class=""stimulus-container"">
                    <img src=""images/semantic_sequence/housework_semantic/housework_semantic_6.png"" class=""exp-image"">
                    <div class=""question-area"">
                        <p style=""font-size: 20px; font-weight: bold; margin: 0;"">Is there a person in this image?</p>
                    </div>
                </div>","0","main_experiment_trial","6","housework_semantic","semantic_sequence","chronological","","","","","","",""
"","","","","","html-keyboard-response","134","229792","0.0-134.0","2E42C4FA95A843539EAACD36EFE41B17","019cfa85-4f75-76e0-91de-e482c9391fa7","019cfa3a-388e-72ab-ad58-bdeb258f96cd","","null","
                <div class=""stimulus-container"">
                    <img src=""images/semantic_sequence/housework_semantic/housework_semantic_7.png"" class=""exp-image"">
                    <div class=""question-area""></div> 
                </div>","null","","","","","","","","","","","",""
"","","","","","html-button-response","135","230499","0.0-135.0","2E42C4FA95A843539EAACD36EFE41B17","019cfa85-4f75-76e0-91de-e482c9391fa7","019cfa3a-388e-72ab-ad58-bdeb258f96cd","","706","
                <div class=""stimulus-container"">
                    <img src=""images/semantic_sequence/housework_semantic/housework_semantic_7.png"" class=""exp-image"">
                    <div class=""question-area"">
                        <p style=""font-size: 20px; font-weight: bold; margin: 0;"">Is there a person in this image?</p>
                    </div>
                </div>","0","main_experiment_trial","7","housework_semantic","semantic_sequence","chronological","","","","","","",""
"","","","","","html-keyboard-response","136","231507","0.0-136.0","2E42C4FA95A843539EAACD36EFE41B17","019cfa85-4f75-76e0-91de-e482c9391fa7","019cfa3a-388e-72ab-ad58-bdeb258f96cd","","null","
                <div class=""stimulus-container"">
                    <img src=""images/semantic_sequence/housework_semantic/housework_semantic_8.png"" class=""exp-image"">
                    <div class=""question-area""></div> 
                </div>","null","","","","","","","","","","","",""
"","","","","","html-button-response","137","231958","0.0-137.0","2E42C4FA95A843539EAACD36EFE41B17","019cfa85-4f75-76e0-91de-e482c9391fa7","019cfa3a-388e-72ab-ad58-bdeb258f96cd","","450","
                <div class=""stimulus-container"">
                    <img src=""images/semantic_sequence/housework_semantic/housework_semantic_8.png"" class=""exp-image"">
                    <div class=""question-area"">
                        <p style=""font-size: 20px; font-weight: bold; margin: 0;"">Is there a person in this image?</p>
                    </div>
                </div>","0","main_experiment_trial","8","housework_semantic","semantic_sequence","chronological","","","","","","",""
"","","","","","html-keyboard-response","138","232974","0.0-138.0","2E42C4FA95A843539EAACD36EFE41B17","019cfa85-4f75-76e0-91de-e482c9391fa7","019cfa3a-388e-72ab-ad58-bdeb258f96cd","","null","
                <div class=""stimulus-container"">
                    <img src=""images/semantic_sequence/housework_semantic/housework_semantic_9.png"" class=""exp-image"">
                    <div class=""question-area""></div> 
                </div>","null","","","","","","","","","","","",""
"","","","","","html-button-response","139","233402","0.0-139.0","2E42C4FA95A843539EAACD36EFE41B17","019cfa85-4f75-76e0-91de-e482c9391fa7","019cfa3a-388e-72ab-ad58-bdeb258f96cd","","426","
                <div class=""stimulus-container"">
                    <img src=""images/semantic_sequence/housework_semantic/housework_semantic_9.png"" class=""exp-image"">
                    <div class=""question-area"">
                        <p style=""font-size: 20px; font-weight: bold; margin: 0;"">Is there a person in this image?</p>
                    </div>
                </div>","0","main_experiment_trial","9","housework_semantic","semantic_sequence","chronological","","","","","","",""
"","","","","","html-keyboard-response","140","234404","0.0-140.0","2E42C4FA95A843539EAACD36EFE41B17","019cfa85-4f75-76e0-91de-e482c9391fa7","019cfa3a-388e-72ab-ad58-bdeb258f96cd","","null","
                <div class=""stimulus-container"">
                    <img src=""images/semantic_sequence/housework_semantic/housework_semantic_ten.png"" class=""exp-image"">
                    <div class=""question-area""></div> 
                </div>","null","","","","","","","","","","","",""
"","","","","","html-button-response","141","234875","0.0-141.0","2E42C4FA95A843539EAACD36EFE41B17","019cfa85-4f75-76e0-91de-e482c9391fa7","019cfa3a-388e-72ab-ad58-bdeb258f96cd","","467","
                <div class=""stimulus-container"">
                    <img src=""images/semantic_sequence/housework_semantic/housework_semantic_ten.png"" class=""exp-image"">
                    <div class=""question-area"">
                        <p style=""font-size: 20px; font-weight: bold; margin: 0;"">Is there a person in this image?</p>
                    </div>
                </div>","0","main_experiment_trial","ten","housework_semantic","semantic_sequence","chronological","","","","","","",""
"","","","","","html-keyboard-response","142","239885","0.0-142.0","2E42C4FA95A843539EAACD36EFE41B17","019cfa85-4f75-76e0-91de-e482c9391fa7","019cfa3a-388e-72ab-ad58-bdeb258f96cd","","null","<div style=""background-color: white; width: 100vw; height: 100vh;""></div>","null","","","","","","","","","","","",""
"","","","","","html-keyboard-response","143","240896","0.0-143.0","2E42C4FA95A843539EAACD36EFE41B17","019cfa85-4f75-76e0-91de-e482c9391fa7","019cfa3a-388e-72ab-ad58-bdeb258f96cd","","null","
                <div class=""stimulus-container"">
                    <img src=""images/semantic_sequence/using_technology_semantic/using_technology_semantic_1.png"" class=""exp-image"">
                    <div class=""question-area""></div> 
                </div>","null","","","","","","","","","","","",""
"","","","","","html-button-response","144","241661","0.0-144.0","2E42C4FA95A843539EAACD36EFE41B17","019cfa85-4f75-76e0-91de-e482c9391fa7","019cfa3a-388e-72ab-ad58-bdeb258f96cd","","763","
                <div class=""stimulus-container"">
                    <img src=""images/semantic_sequence/using_technology_semantic/using_technology_semantic_1.png"" class=""exp-image"">
                    <div class=""question-area"">
                        <p style=""font-size: 20px; font-weight: bold; margin: 0;"">Is there a person in this image?</p>
                    </div>
                </div>","0","main_experiment_trial","1","using_technology_semantic","semantic_sequence","chronological","","","","","","",""
"","","","","","html-keyboard-response","145","242664","0.0-145.0","2E42C4FA95A843539EAACD36EFE41B17","019cfa85-4f75-76e0-91de-e482c9391fa7","019cfa3a-388e-72ab-ad58-bdeb258f96cd","","null","
                <div class=""stimulus-container"">
                    <img src=""images/semantic_sequence/using_technology_semantic/using_technology_semantic_2.png"" class=""exp-image"">
                    <div class=""question-area""></div> 
                </div>","null","","","","","","","","","","","",""
"","","","","","html-button-response","146","243260","0.0-146.0","2E42C4FA95A843539EAACD36EFE41B17","019cfa85-4f75-76e0-91de-e482c9391fa7","019cfa3a-388e-72ab-ad58-bdeb258f96cd","","594","
                <div class=""stimulus-container"">
                    <img src=""images/semantic_sequence/using_technology_semantic/using_technology_semantic_2.png"" class=""exp-image"">
                    <div class=""question-area"">
                        <p style=""font-size: 20px; font-weight: bold; margin: 0;"">Is there a person in this image?</p>
                    </div>
                </div>","0","main_experiment_trial","2","using_technology_semantic","semantic_sequence","chronological","","","","","","",""
"","","","","","html-keyboard-response","147","244263","0.0-147.0","2E42C4FA95A843539EAACD36EFE41B17","019cfa85-4f75-76e0-91de-e482c9391fa7","019cfa3a-388e-72ab-ad58-bdeb258f96cd","","null","
                <div class=""stimulus-container"">
                    <img src=""images/semantic_sequence/using_technology_semantic/using_technology_semantic_3.png"" class=""exp-image"">
                    <div class=""question-area""></div> 
                </div>","null","","","","","","","","","","","",""
"","","","","","html-button-response","148","244747","0.0-148.0","2E42C4FA95A843539EAACD36EFE41B17","019cfa85-4f75-76e0-91de-e482c9391fa7","019cfa3a-388e-72ab-ad58-bdeb258f96cd","","482","
                <div class=""stimulus-container"">
                    <img src=""images/semantic_sequence/using_technology_semantic/using_technology_semantic_3.png"" class=""exp-image"">
                    <div class=""question-area"">
                        <p style=""font-size: 20px; font-weight: bold; margin: 0;"">Is there a person in this image?</p>
                    </div>
                </div>","0","main_experiment_trial","3","using_technology_semantic","semantic_sequence","chronological","","","","","","",""
"","","","","","html-keyboard-response","149","245761","0.0-149.0","2E42C4FA95A843539EAACD36EFE41B17","019cfa85-4f75-76e0-91de-e482c9391fa7","019cfa3a-388e-72ab-ad58-bdeb258f96cd","","null","
                <div class=""stimulus-container"">
                    <img src=""images/semantic_sequence/using_technology_semantic/using_technology_semantic_4.png"" class=""exp-image"">
                    <div class=""question-area""></div> 
                </div>","null","","","","","","","","","","","",""
"","","","","","html-button-response","150","246204","0.0-150.0","2E42C4FA95A843539EAACD36EFE41B17","019cfa85-4f75-76e0-91de-e482c9391fa7","019cfa3a-388e-72ab-ad58-bdeb258f96cd","","439","
                <div class=""stimulus-container"">
                    <img src=""images/semantic_sequence/using_technology_semantic/using_technology_semantic_4.png"" class=""exp-image"">
                    <div class=""question-area"">
                        <p style=""font-size: 20px; font-weight: bold; margin: 0;"">Is there a person in this image?</p>
                    </div>
                </div>","0","main_experiment_trial","4","using_technology_semantic","semantic_sequence","chronological","","","","","","",""
"","","","","","html-keyboard-response","151","247216","0.0-151.0","2E42C4FA95A843539EAACD36EFE41B17","019cfa85-4f75-76e0-91de-e482c9391fa7","019cfa3a-388e-72ab-ad58-bdeb258f96cd","","null","
                <div class=""stimulus-container"">
                    <img src=""images/semantic_sequence/using_technology_semantic/using_technology_semantic_5.png"" class=""exp-image"">
                    <div class=""question-area""></div> 
                </div>","null","","","","","","","","","","","",""
"","","","","","html-button-response","152","247615","0.0-152.0","2E42C4FA95A843539EAACD36EFE41B17","019cfa85-4f75-76e0-91de-e482c9391fa7","019cfa3a-388e-72ab-ad58-bdeb258f96cd","","397","
                <div class=""stimulus-container"">
                    <img src=""images/semantic_sequence/using_technology_semantic/using_technology_semantic_5.png"" class=""exp-image"">
                    <div class=""question-area"">
                        <p style=""font-size: 20px; font-weight: bold; margin: 0;"">Is there a person in this image?</p>
                    </div>
                </div>","0","main_experiment_trial","5","using_technology_semantic","semantic_sequence","chronological","","","","","","",""
"","","","","","html-keyboard-response","153","248624","0.0-153.0","2E42C4FA95A843539EAACD36EFE41B17","019cfa85-4f75-76e0-91de-e482c9391fa7","019cfa3a-388e-72ab-ad58-bdeb258f96cd","","null","
                <div class=""stimulus-container"">
                    <img src=""images/semantic_sequence/using_technology_semantic/using_technology_semantic_6.png"" class=""exp-image"">
                    <div class=""question-area""></div> 
                </div>","null","","","","","","","","","","","",""
"","","","","","html-button-response","154","249045","0.0-154.0","2E42C4FA95A843539EAACD36EFE41B17","019cfa85-4f75-76e0-91de-e482c9391fa7","019cfa3a-388e-72ab-ad58-bdeb258f96cd","","418","
                <div class=""stimulus-container"">
                    <img src=""images/semantic_sequence/using_technology_semantic/using_technology_semantic_6.png"" class=""exp-image"">
                    <div class=""question-area"">
                        <p style=""font-size: 20px; font-weight: bold; margin: 0;"">Is there a person in this image?</p>
                    </div>
                </div>","0","main_experiment_trial","6","using_technology_semantic","semantic_sequence","chronological","","","","","","",""
"","","","","","html-keyboard-response","155","250056","0.0-155.0","2E42C4FA95A843539EAACD36EFE41B17","019cfa85-4f75-76e0-91de-e482c9391fa7","019cfa3a-388e-72ab-ad58-bdeb258f96cd","","null","
                <div class=""stimulus-container"">
                    <img src=""images/semantic_sequence/using_technology_semantic/using_technology_semantic_7.png"" class=""exp-image"">
                    <div class=""question-area""></div> 
                </div>","null","","","","","","","","","","","",""
"","","","","","html-button-response","156","250593","0.0-156.0","2E42C4FA95A843539EAACD36EFE41B17","019cfa85-4f75-76e0-91de-e482c9391fa7","019cfa3a-388e-72ab-ad58-bdeb258f96cd","","534","
                <div class=""stimulus-container"">
                    <img src=""images/semantic_sequence/using_technology_semantic/using_technology_semantic_7.png"" class=""exp-image"">
                    <div class=""question-area"">
                        <p style=""font-size: 20px; font-weight: bold; margin: 0;"">Is there a person in this image?</p>
                    </div>
                </div>","0","main_experiment_trial","7","using_technology_semantic","semantic_sequence","chronological","","","","","","",""
"","","","","","html-keyboard-response","157","251608","0.0-157.0","2E42C4FA95A843539EAACD36EFE41B17","019cfa85-4f75-76e0-91de-e482c9391fa7","019cfa3a-388e-72ab-ad58-bdeb258f96cd","","null","
                <div class=""stimulus-container"">
                    <img src=""images/semantic_sequence/using_technology_semantic/using_technology_semantic_8.png"" class=""exp-image"">
                    <div class=""question-area""></div> 
                </div>","null","","","","","","","","","","","",""
"","","","","","html-button-response","158","252020","0.0-158.0","2E42C4FA95A843539EAACD36EFE41B17","019cfa85-4f75-76e0-91de-e482c9391fa7","019cfa3a-388e-72ab-ad58-bdeb258f96cd","","409","
                <div class=""stimulus-container"">
                    <img src=""images/semantic_sequence/using_technology_semantic/using_technology_semantic_8.png"" class=""exp-image"">
                    <div class=""question-area"">
                        <p style=""font-size: 20px; font-weight: bold; margin: 0;"">Is there a person in this image?</p>
                    </div>
                </div>","0","main_experiment_trial","8","using_technology_semantic","semantic_sequence","chronological","","","","","","",""
"","","","","","html-keyboard-response","159","253034","0.0-159.0","2E42C4FA95A843539EAACD36EFE41B17","019cfa85-4f75-76e0-91de-e482c9391fa7","019cfa3a-388e-72ab-ad58-bdeb258f96cd","","null","
                <div class=""stimulus-container"">
                    <img src=""images/semantic_sequence/using_technology_semantic/using_technology_semantic_9.png"" class=""exp-image"">
                    <div class=""question-area""></div> 
                </div>","null","","","","","","","","","","","",""
"","","","","","html-button-response","160","253490","0.0-160.0","2E42C4FA95A843539EAACD36EFE41B17","019cfa85-4f75-76e0-91de-e482c9391fa7","019cfa3a-388e-72ab-ad58-bdeb258f96cd","","453","
                <div class=""stimulus-container"">
                    <img src=""images/semantic_sequence/using_technology_semantic/using_technology_semantic_9.png"" class=""exp-image"">
                    <div class=""question-area"">
                        <p style=""font-size: 20px; font-weight: bold; margin: 0;"">Is there a person in this image?</p>
                    </div>
                </div>","0","main_experiment_trial","9","using_technology_semantic","semantic_sequence","chronological","","","","","","",""
"","","","","","html-keyboard-response","161","254502","0.0-161.0","2E42C4FA95A843539EAACD36EFE41B17","019cfa85-4f75-76e0-91de-e482c9391fa7","019cfa3a-388e-72ab-ad58-bdeb258f96cd","","null","
                <div class=""stimulus-container"">
                    <img src=""images/semantic_sequence/using_technology_semantic/using_technology_semantic_ten.png"" class=""exp-image"">
                    <div class=""question-area""></div> 
                </div>","null","","","","","","","","","","","",""
"","","","","","html-button-response","162","254985","0.0-162.0","2E42C4FA95A843539EAACD36EFE41B17","019cfa85-4f75-76e0-91de-e482c9391fa7","019cfa3a-388e-72ab-ad58-bdeb258f96cd","","480","
                <div class=""stimulus-container"">
                    <img src=""images/semantic_sequence/using_technology_semantic/using_technology_semantic_ten.png"" class=""exp-image"">
                    <div class=""question-area"">
                        <p style=""font-size: 20px; font-weight: bold; margin: 0;"">Is there a person in this image?</p>
                    </div>
                </div>","0","main_experiment_trial","ten","using_technology_semantic","semantic_sequence","chronological","","","","","","",""
"","","","","","html-keyboard-response","163","259994","0.0-163.0","2E42C4FA95A843539EAACD36EFE41B17","019cfa85-4f75-76e0-91de-e482c9391fa7","019cfa3a-388e-72ab-ad58-bdeb258f96cd","","null","<div style=""background-color: white; width: 100vw; height: 100vh;""></div>","null","","","","","","","","","","","",""
"","","","","","html-keyboard-response","164","261000","0.0-164.0","2E42C4FA95A843539EAACD36EFE41B17","019cfa85-4f75-76e0-91de-e482c9391fa7","019cfa3a-388e-72ab-ad58-bdeb258f96cd","","null","
                <div class=""stimulus-container"">
                    <img src=""images/causal_sequence/museum_causal/museum_causal_1.png"" class=""exp-image"">
                    <div class=""question-area""></div> 
                </div>","null","","","","","","","","","","","",""
"","","","","","html-button-response","165","261619","0.0-165.0","2E42C4FA95A843539EAACD36EFE41B17","019cfa85-4f75-76e0-91de-e482c9391fa7","019cfa3a-388e-72ab-ad58-bdeb258f96cd","","617","
                <div class=""stimulus-container"">
                    <img src=""images/causal_sequence/museum_causal/museum_causal_1.png"" class=""exp-image"">
                    <div class=""question-area"">
                        <p style=""font-size: 20px; font-weight: bold; margin: 0;"">Is there a person in this image?</p>
                    </div>
                </div>","0","main_experiment_trial","1","museum_causal","causal_sequence","chronological","","","","","","",""
"","","","","","html-keyboard-response","166","262627","0.0-166.0","2E42C4FA95A843539EAACD36EFE41B17","019cfa85-4f75-76e0-91de-e482c9391fa7","019cfa3a-388e-72ab-ad58-bdeb258f96cd","","null","
                <div class=""stimulus-container"">
                    <img src=""images/causal_sequence/museum_causal/museum_causal_2.png"" class=""exp-image"">
                    <div class=""question-area""></div> 
                </div>","null","","","","","","","","","","","",""
"","","","","","html-button-response","167","264670","0.0-167.0","2E42C4FA95A843539EAACD36EFE41B17","019cfa85-4f75-76e0-91de-e482c9391fa7","019cfa3a-388e-72ab-ad58-bdeb258f96cd","","2041","
                <div class=""stimulus-container"">
                    <img src=""images/causal_sequence/museum_causal/museum_causal_2.png"" class=""exp-image"">
                    <div class=""question-area"">
                        <p style=""font-size: 20px; font-weight: bold; margin: 0;"">Is there a person in this image?</p>
                    </div>
                </div>","1","main_experiment_trial","2","museum_causal","causal_sequence","chronological","","","","","","",""
"","","","","","html-keyboard-response","168","265676","0.0-168.0","2E42C4FA95A843539EAACD36EFE41B17","019cfa85-4f75-76e0-91de-e482c9391fa7","019cfa3a-388e-72ab-ad58-bdeb258f96cd","","null","
                <div class=""stimulus-container"">
                    <img src=""images/causal_sequence/museum_causal/museum_causal_3.png"" class=""exp-image"">
                    <div class=""question-area""></div> 
                </div>","null","","","","","","","","","","","",""
"","","","","","html-button-response","169","267303","0.0-169.0","2E42C4FA95A843539EAACD36EFE41B17","019cfa85-4f75-76e0-91de-e482c9391fa7","019cfa3a-388e-72ab-ad58-bdeb258f96cd","","1625","
                <div class=""stimulus-container"">
                    <img src=""images/causal_sequence/museum_causal/museum_causal_3.png"" class=""exp-image"">
                    <div class=""question-area"">
                        <p style=""font-size: 20px; font-weight: bold; margin: 0;"">Is there a person in this image?</p>
                    </div>
                </div>","0","main_experiment_trial","3","museum_causal","causal_sequence","chronological","","","","","","",""
"","","","","","html-keyboard-response","170","268308","0.0-170.0","2E42C4FA95A843539EAACD36EFE41B17","019cfa85-4f75-76e0-91de-e482c9391fa7","019cfa3a-388e-72ab-ad58-bdeb258f96cd","","null","
                <div class=""stimulus-container"">
                    <img src=""images/causal_sequence/museum_causal/museum_causal_4.png"" class=""exp-image"">
                    <div class=""question-area""></div> 
                </div>","null","","","","","","","","","","","",""
"","","","","","html-button-response","171","268894","0.0-171.0","2E42C4FA95A843539EAACD36EFE41B17","019cfa85-4f75-76e0-91de-e482c9391fa7","019cfa3a-388e-72ab-ad58-bdeb258f96cd","","585","
                <div class=""stimulus-container"">
                    <img src=""images/causal_sequence/museum_causal/museum_causal_4.png"" class=""exp-image"">
                    <div class=""question-area"">
                        <p style=""font-size: 20px; font-weight: bold; margin: 0;"">Is there a person in this image?</p>
                    </div>
                </div>","1","main_experiment_trial","4","museum_causal","causal_sequence","chronological","","","","","","",""
"","","","","","html-keyboard-response","172","269906","0.0-172.0","2E42C4FA95A843539EAACD36EFE41B17","019cfa85-4f75-76e0-91de-e482c9391fa7","019cfa3a-388e-72ab-ad58-bdeb258f96cd","","null","
                <div class=""stimulus-container"">
                    <img src=""images/causal_sequence/museum_causal/museum_causal_5.png"" class=""exp-image"">
                    <div class=""question-area""></div> 
                </div>","null","","","","","","","","","","","",""
"","","","","","html-button-response","173","270511","0.0-173.0","2E42C4FA95A843539EAACD36EFE41B17","019cfa85-4f75-76e0-91de-e482c9391fa7","019cfa3a-388e-72ab-ad58-bdeb258f96cd","","603","
                <div class=""stimulus-container"">
                    <img src=""images/causal_sequence/museum_causal/museum_causal_5.png"" class=""exp-image"">
                    <div class=""question-area"">
                        <p style=""font-size: 20px; font-weight: bold; margin: 0;"">Is there a person in this image?</p>
                    </div>
                </div>","0","main_experiment_trial","5","museum_causal","causal_sequence","chronological","","","","","","",""
"","","","","","html-keyboard-response","174","271516","0.0-174.0","2E42C4FA95A843539EAACD36EFE41B17","019cfa85-4f75-76e0-91de-e482c9391fa7","019cfa3a-388e-72ab-ad58-bdeb258f96cd","","null","
                <div class=""stimulus-container"">
                    <img src=""images/causal_sequence/museum_causal/museum_causal_6.png"" class=""exp-image"">
                    <div class=""question-area""></div> 
                </div>","null","","","","","","","","","","","",""
"","","","","","html-button-response","175","271980","0.0-175.0","2E42C4FA95A843539EAACD36EFE41B17","019cfa85-4f75-76e0-91de-e482c9391fa7","019cfa3a-388e-72ab-ad58-bdeb258f96cd","","463","
                <div class=""stimulus-container"">
                    <img src=""images/causal_sequence/museum_causal/museum_causal_6.png"" class=""exp-image"">
                    <div class=""question-area"">
                        <p style=""font-size: 20px; font-weight: bold; margin: 0;"">Is there a person in this image?</p>
                    </div>
                </div>","0","main_experiment_trial","6","museum_causal","causal_sequence","chronological","","","","","","",""
"","","","","","html-keyboard-response","176","272986","0.0-176.0","2E42C4FA95A843539EAACD36EFE41B17","019cfa85-4f75-76e0-91de-e482c9391fa7","019cfa3a-388e-72ab-ad58-bdeb258f96cd","","null","
                <div class=""stimulus-container"">
                    <img src=""images/causal_sequence/museum_causal/museum_causal_7.png"" class=""exp-image"">
                    <div class=""question-area""></div> 
                </div>","null","","","","","","","","","","","",""
"","","","","","html-button-response","177","273791","0.0-177.0","2E42C4FA95A843539EAACD36EFE41B17","019cfa85-4f75-76e0-91de-e482c9391fa7","019cfa3a-388e-72ab-ad58-bdeb258f96cd","","803","
                <div class=""stimulus-container"">
                    <img src=""images/causal_sequence/museum_causal/museum_causal_7.png"" class=""exp-image"">
                    <div class=""question-area"">
                        <p style=""font-size: 20px; font-weight: bold; margin: 0;"">Is there a person in this image?</p>
                    </div>
                </div>","1","main_experiment_trial","7","museum_causal","causal_sequence","chronological","","","","","","",""
