"success","timeout","failed_images","failed_audio","failed_video","trial_type","trial_index","time_elapsed","internal_node_id","subject_id","study_id","session_id","view_history","rt","stimulus","response","task","image_index","folder","sequence_type","valuable_image_index","reward_type","chosen_image_index","target_X","correct_choice"
"true","false","[]","[]","[]","preload","0","7138","0.0-0.0","2B3234EB99B442E29C1E1FB9B926460F","019cf794-0c9f-760a-bbfc-414a6bf61b29","019cf78c-cfcf-769c-9016-9b96552b5e33","","","","","","","","","","","","",""
"","","","","","instructions","1","1608759","0.0-1.0","2B3234EB99B442E29C1E1FB9B926460F","019cf794-0c9f-760a-bbfc-414a6bf61b29","019cf78c-cfcf-769c-9016-9b96552b5e33","[{""page_index"":0,""viewing_time"":1601582}]","1601582","","","","","","","","","","",""
"","","","","","instructions","2","1612317","0.0-2.0","2B3234EB99B442E29C1E1FB9B926460F","019cf794-0c9f-760a-bbfc-414a6bf61b29","019cf78c-cfcf-769c-9016-9b96552b5e33","[{""page_index"":0,""viewing_time"":3558}]","3558","","","","","","","","","","",""
"true","","","","","fullscreen","3","1614628","0.0-3.0","2B3234EB99B442E29C1E1FB9B926460F","019cf794-0c9f-760a-bbfc-414a6bf61b29","019cf78c-cfcf-769c-9016-9b96552b5e33","","1304","","","","","","","","","","",""
"","","","","","instructions","4","1616686","0.0-4.0","2B3234EB99B442E29C1E1FB9B926460F","019cf794-0c9f-760a-bbfc-414a6bf61b29","019cf78c-cfcf-769c-9016-9b96552b5e33","[{""page_index"":0,""viewing_time"":2055}]","2055","","","","","","","","","","",""
"","","","","","instructions","5","1617990","0.0-5.0","2B3234EB99B442E29C1E1FB9B926460F","019cf794-0c9f-760a-bbfc-414a6bf61b29","019cf78c-cfcf-769c-9016-9b96552b5e33","[{""page_index"":0,""viewing_time"":1304}]","1304","","","","","","","","","","",""
"","","","","","html-keyboard-response","6","1622001","0.0-6.0","2B3234EB99B442E29C1E1FB9B926460F","019cf794-0c9f-760a-bbfc-414a6bf61b29","019cf78c-cfcf-769c-9016-9b96552b5e33","","null","
                <div class=""stimulus-container"">
                    <img src=""images/instructions/movie_1.png"" class=""exp-image"">
                    <div class=""question-area""></div> 
                </div>","null","","","","","","","","",""
"","","","","","html-button-response","7","1623438","0.0-7.0","2B3234EB99B442E29C1E1FB9B926460F","019cf794-0c9f-760a-bbfc-414a6bf61b29","019cf78c-cfcf-769c-9016-9b96552b5e33","","1437","
                <div class=""stimulus-container"">
                    <img src=""images/instructions/movie_1.png"" class=""exp-image"">
                    <div class=""question-area"">
                        <p style=""font-size: 20px; font-weight: bold; margin: 0;"">Was there a person in this image?</p>
                    </div>
                </div>","1","example_question","1","","","","","","",""
"","","","","","html-keyboard-response","8","1627440","0.0-8.0","2B3234EB99B442E29C1E1FB9B926460F","019cf794-0c9f-760a-bbfc-414a6bf61b29","019cf78c-cfcf-769c-9016-9b96552b5e33","","null","
                <div class=""stimulus-container"">
                    <img src=""images/instructions/movie_2.png"" class=""exp-image"">
                    <div class=""question-area""></div> 
                </div>","null","","","","","","","","",""
"","","","","","html-button-response","9","1628582","0.0-9.0","2B3234EB99B442E29C1E1FB9B926460F","019cf794-0c9f-760a-bbfc-414a6bf61b29","019cf78c-cfcf-769c-9016-9b96552b5e33","","1141","
                <div class=""stimulus-container"">
                    <img src=""images/instructions/movie_2.png"" class=""exp-image"">
                    <div class=""question-area"">
                        <p style=""font-size: 20px; font-weight: bold; margin: 0;"">Was there a person in this image?</p>
                    </div>
                </div>","0","example_question","2","","","","","","",""
"","","","","","html-keyboard-response","10","1632583","0.0-10.0","2B3234EB99B442E29C1E1FB9B926460F","019cf794-0c9f-760a-bbfc-414a6bf61b29","019cf78c-cfcf-769c-9016-9b96552b5e33","","null","
                <div class=""stimulus-container"">
                    <img src=""images/instructions/movie_3.png"" class=""exp-image"">
                    <div class=""question-area""></div> 
                </div>","null","","","","","","","","",""
"","","","","","html-button-response","11","1633773","0.0-11.0","2B3234EB99B442E29C1E1FB9B926460F","019cf794-0c9f-760a-bbfc-414a6bf61b29","019cf78c-cfcf-769c-9016-9b96552b5e33","","1189","
                <div class=""stimulus-container"">
                    <img src=""images/instructions/movie_3.png"" class=""exp-image"">
                    <div class=""question-area"">
                        <p style=""font-size: 20px; font-weight: bold; margin: 0;"">Was there a person in this image?</p>
                    </div>
                </div>","0","example_question","3","","","","","","",""
"","","","","","html-keyboard-response","12","1637782","0.0-12.0","2B3234EB99B442E29C1E1FB9B926460F","019cf794-0c9f-760a-bbfc-414a6bf61b29","019cf78c-cfcf-769c-9016-9b96552b5e33","","null","
                <div class=""stimulus-container"">
                    <img src=""images/instructions/movie_4.png"" class=""exp-image"">
                    <div class=""question-area""></div> 
                </div>","null","","","","","","","","",""
"","","","","","html-button-response","13","1639910","0.0-13.0","2B3234EB99B442E29C1E1FB9B926460F","019cf794-0c9f-760a-bbfc-414a6bf61b29","019cf78c-cfcf-769c-9016-9b96552b5e33","","2128","
                <div class=""stimulus-container"">
                    <img src=""images/instructions/movie_4.png"" class=""exp-image"">
                    <div class=""question-area"">
                        <p style=""font-size: 20px; font-weight: bold; margin: 0;"">Was there a person in this image?</p>
                    </div>
                </div>","0","example_question","4","","","","","","",""
"","","","","","instructions","14","1641637","0.0-14.0","2B3234EB99B442E29C1E1FB9B926460F","019cf794-0c9f-760a-bbfc-414a6bf61b29","019cf78c-cfcf-769c-9016-9b96552b5e33","[{""page_index"":0,""viewing_time"":1726}]","1726","","","","","","","","","","",""
"","","","","","instructions","15","1642933","0.0-15.0","2B3234EB99B442E29C1E1FB9B926460F","019cf794-0c9f-760a-bbfc-414a6bf61b29","019cf78c-cfcf-769c-9016-9b96552b5e33","[{""page_index"":0,""viewing_time"":1295}]","1295","","","","","","","","","","",""
"","","","","","html-keyboard-response","16","1643937","0.0-16.0","2B3234EB99B442E29C1E1FB9B926460F","019cf794-0c9f-760a-bbfc-414a6bf61b29","019cf78c-cfcf-769c-9016-9b96552b5e33","","null","<div style=""background-color: white; width: 100vw; height: 100vh;""></div>","null","","","","","","","","",""
"","","","","","html-keyboard-response","17","1648941","0.0-17.0","2B3234EB99B442E29C1E1FB9B926460F","019cf794-0c9f-760a-bbfc-414a6bf61b29","019cf78c-cfcf-769c-9016-9b96552b5e33","","null","
                <div class=""stimulus-container"">
                    <img src=""images/schematic_sequence/interview_scheme/interview_scheme_1.png"" class=""exp-image"">
                    <div class=""question-area""></div> 
                </div>","null","","","","","","","","",""
"","","","","","html-button-response","18","1650308","0.0-18.0","2B3234EB99B442E29C1E1FB9B926460F","019cf794-0c9f-760a-bbfc-414a6bf61b29","019cf78c-cfcf-769c-9016-9b96552b5e33","","1367","
                <div class=""stimulus-container"">
                    <img src=""images/schematic_sequence/interview_scheme/interview_scheme_1.png"" class=""exp-image"">
                    <div class=""question-area"">
                        <p style=""font-size: 20px; font-weight: bold; margin: 0;"">Is there a person in this image?</p>
                    </div>
                </div>","0","main_experiment_trial","1","interview_scheme","schematic_sequence","","","","",""
"","","","","","html-keyboard-response","19","1655310","0.0-19.0","2B3234EB99B442E29C1E1FB9B926460F","019cf794-0c9f-760a-bbfc-414a6bf61b29","019cf78c-cfcf-769c-9016-9b96552b5e33","","null","
                <div class=""stimulus-container"">
                    <img src=""images/schematic_sequence/interview_scheme/interview_scheme_2.png"" class=""exp-image"">
                    <div class=""question-area""></div> 
                </div>","null","","","","","","","","",""
"","","","","","html-button-response","20","1656716","0.0-20.0","2B3234EB99B442E29C1E1FB9B926460F","019cf794-0c9f-760a-bbfc-414a6bf61b29","019cf78c-cfcf-769c-9016-9b96552b5e33","","1406","
                <div class=""stimulus-container"">
                    <img src=""images/schematic_sequence/interview_scheme/interview_scheme_2.png"" class=""exp-image"">
                    <div class=""question-area"">
                        <p style=""font-size: 20px; font-weight: bold; margin: 0;"">Is there a person in this image?</p>
                    </div>
                </div>","0","main_experiment_trial","2","interview_scheme","schematic_sequence","","","","",""
"","","","","","html-keyboard-response","21","1661723","0.0-21.0","2B3234EB99B442E29C1E1FB9B926460F","019cf794-0c9f-760a-bbfc-414a6bf61b29","019cf78c-cfcf-769c-9016-9b96552b5e33","","null","
                <div class=""stimulus-container"">
                    <img src=""images/schematic_sequence/interview_scheme/interview_scheme_3.png"" class=""exp-image"">
                    <div class=""question-area""></div> 
                </div>","null","","","","","","","","",""
"","","","","","html-button-response","22","1663013","0.0-22.0","2B3234EB99B442E29C1E1FB9B926460F","019cf794-0c9f-760a-bbfc-414a6bf61b29","019cf78c-cfcf-769c-9016-9b96552b5e33","","1289","
                <div class=""stimulus-container"">
                    <img src=""images/schematic_sequence/interview_scheme/interview_scheme_3.png"" class=""exp-image"">
                    <div class=""question-area"">
                        <p style=""font-size: 20px; font-weight: bold; margin: 0;"">Is there a person in this image?</p>
                    </div>
                </div>","0","main_experiment_trial","3","interview_scheme","schematic_sequence","","","","",""
"","","","","","html-keyboard-response","23","1668021","0.0-23.0","2B3234EB99B442E29C1E1FB9B926460F","019cf794-0c9f-760a-bbfc-414a6bf61b29","019cf78c-cfcf-769c-9016-9b96552b5e33","","null","
                <div class=""stimulus-container"">
                    <img src=""images/schematic_sequence/interview_scheme/interview_scheme_4.png"" class=""exp-image"">
                    <div class=""question-area""></div> 
                </div>","null","","","","","","","","",""
"","","","","","html-button-response","24","1669342","0.0-24.0","2B3234EB99B442E29C1E1FB9B926460F","019cf794-0c9f-760a-bbfc-414a6bf61b29","019cf78c-cfcf-769c-9016-9b96552b5e33","","1320","
                <div class=""stimulus-container"">
                    <img src=""images/schematic_sequence/interview_scheme/interview_scheme_4.png"" class=""exp-image"">
                    <div class=""question-area"">
                        <p style=""font-size: 20px; font-weight: bold; margin: 0;"">Is there a person in this image?</p>
                    </div>
                </div>","0","main_experiment_trial","4","interview_scheme","schematic_sequence","","","","",""
"","","","","","html-keyboard-response","25","1674354","0.0-25.0","2B3234EB99B442E29C1E1FB9B926460F","019cf794-0c9f-760a-bbfc-414a6bf61b29","019cf78c-cfcf-769c-9016-9b96552b5e33","","null","
                <div class=""stimulus-container"">
                    <img src=""images/schematic_sequence/interview_scheme/interview_scheme_5.png"" class=""exp-image"">
                    <div class=""question-area""></div> 
                </div>","null","","","","","","","","",""
"","","","","","html-button-response","26","1675591","0.0-26.0","2B3234EB99B442E29C1E1FB9B926460F","019cf794-0c9f-760a-bbfc-414a6bf61b29","019cf78c-cfcf-769c-9016-9b96552b5e33","","1236","
                <div class=""stimulus-container"">
                    <img src=""images/schematic_sequence/interview_scheme/interview_scheme_5.png"" class=""exp-image"">
                    <div class=""question-area"">
                        <p style=""font-size: 20px; font-weight: bold; margin: 0;"">Is there a person in this image?</p>
                    </div>
                </div>","0","main_experiment_trial","5","interview_scheme","schematic_sequence","","","","",""
"","","","","","html-keyboard-response","27","1680594","0.0-27.0","2B3234EB99B442E29C1E1FB9B926460F","019cf794-0c9f-760a-bbfc-414a6bf61b29","019cf78c-cfcf-769c-9016-9b96552b5e33","","null","
                <div class=""stimulus-container"">
                    <img src=""images/schematic_sequence/interview_scheme/interview_scheme_6.png"" class=""exp-image"">
                    <div class=""question-area""></div> 
                </div>","null","","","","","","","","",""
"","","","","","html-button-response","28","1681901","0.0-28.0","2B3234EB99B442E29C1E1FB9B926460F","019cf794-0c9f-760a-bbfc-414a6bf61b29","019cf78c-cfcf-769c-9016-9b96552b5e33","","1307","
                <div class=""stimulus-container"">
                    <img src=""images/schematic_sequence/interview_scheme/interview_scheme_6.png"" class=""exp-image"">
                    <div class=""question-area"">
                        <p style=""font-size: 20px; font-weight: bold; margin: 0;"">Is there a person in this image?</p>
                    </div>
                </div>","1","main_experiment_trial","6","interview_scheme","schematic_sequence","","","","",""
"","","","","","html-keyboard-response","29","1686903","0.0-29.0","2B3234EB99B442E29C1E1FB9B926460F","019cf794-0c9f-760a-bbfc-414a6bf61b29","019cf78c-cfcf-769c-9016-9b96552b5e33","","null","
                <div class=""stimulus-container"">
                    <img src=""images/schematic_sequence/interview_scheme/interview_scheme_7.png"" class=""exp-image"">
                    <div class=""question-area""></div> 
                </div>","null","","","","","","","","",""
"","","","","","html-button-response","30","1688614","0.0-30.0","2B3234EB99B442E29C1E1FB9B926460F","019cf794-0c9f-760a-bbfc-414a6bf61b29","019cf78c-cfcf-769c-9016-9b96552b5e33","","1711","
                <div class=""stimulus-container"">
                    <img src=""images/schematic_sequence/interview_scheme/interview_scheme_7.png"" class=""exp-image"">
                    <div class=""question-area"">
                        <p style=""font-size: 20px; font-weight: bold; margin: 0;"">Is there a person in this image?</p>
                    </div>
                </div>","0","main_experiment_trial","7","interview_scheme","schematic_sequence","","","","",""
"","","","","","html-keyboard-response","31","1693615","0.0-31.0","2B3234EB99B442E29C1E1FB9B926460F","019cf794-0c9f-760a-bbfc-414a6bf61b29","019cf78c-cfcf-769c-9016-9b96552b5e33","","null","
                <div class=""stimulus-container"">
                    <img src=""images/schematic_sequence/interview_scheme/interview_scheme_8.png"" class=""exp-image"">
                    <div class=""question-area""></div> 
                </div>","null","","","","","","","","",""
"","","","","","html-button-response","32","1694957","0.0-32.0","2B3234EB99B442E29C1E1FB9B926460F","019cf794-0c9f-760a-bbfc-414a6bf61b29","019cf78c-cfcf-769c-9016-9b96552b5e33","","1342","
                <div class=""stimulus-container"">
                    <img src=""images/schematic_sequence/interview_scheme/interview_scheme_8.png"" class=""exp-image"">
                    <div class=""question-area"">
                        <p style=""font-size: 20px; font-weight: bold; margin: 0;"">Is there a person in this image?</p>
                    </div>
                </div>","0","main_experiment_trial","8","interview_scheme","schematic_sequence","","","","",""
"","","","","","html-keyboard-response","33","1699972","0.0-33.0","2B3234EB99B442E29C1E1FB9B926460F","019cf794-0c9f-760a-bbfc-414a6bf61b29","019cf78c-cfcf-769c-9016-9b96552b5e33","","null","
                <div class=""stimulus-container"">
                    <img src=""images/schematic_sequence/interview_scheme/interview_scheme_9.png"" class=""exp-image"">
                    <div class=""question-area""></div> 
                </div>","null","","","","","","","","",""
"","","","","","html-button-response","34","1701181","0.0-34.0","2B3234EB99B442E29C1E1FB9B926460F","019cf794-0c9f-760a-bbfc-414a6bf61b29","019cf78c-cfcf-769c-9016-9b96552b5e33","","1208","
                <div class=""stimulus-container"">
                    <img src=""images/schematic_sequence/interview_scheme/interview_scheme_9.png"" class=""exp-image"">
                    <div class=""question-area"">
                        <p style=""font-size: 20px; font-weight: bold; margin: 0;"">Is there a person in this image?</p>
                    </div>
                </div>","1","main_experiment_trial","9","interview_scheme","schematic_sequence","","","","",""
"","","","","","html-keyboard-response","35","1706194","0.0-35.0","2B3234EB99B442E29C1E1FB9B926460F","019cf794-0c9f-760a-bbfc-414a6bf61b29","019cf78c-cfcf-769c-9016-9b96552b5e33","","null","
                <div class=""stimulus-container"">
                    <img src=""images/schematic_sequence/interview_scheme/interview_scheme_ten.png"" class=""exp-image"">
                    <div class=""question-area""></div> 
                </div>","null","","","","","","","","",""
"","","","","","html-button-response","36","1707532","0.0-36.0","2B3234EB99B442E29C1E1FB9B926460F","019cf794-0c9f-760a-bbfc-414a6bf61b29","019cf78c-cfcf-769c-9016-9b96552b5e33","","1338","
                <div class=""stimulus-container"">
                    <img src=""images/schematic_sequence/interview_scheme/interview_scheme_ten.png"" class=""exp-image"">
                    <div class=""question-area"">
                        <p style=""font-size: 20px; font-weight: bold; margin: 0;"">Is there a person in this image?</p>
                    </div>
                </div>","0","main_experiment_trial","ten","interview_scheme","schematic_sequence","","","","",""
"","","","","","html-keyboard-response","37","1708534","0.0-37.0","2B3234EB99B442E29C1E1FB9B926460F","019cf794-0c9f-760a-bbfc-414a6bf61b29","019cf78c-cfcf-769c-9016-9b96552b5e33","","null","<div style=""background-color: white; width: 100vw; height: 100vh;""></div>","null","","","","","","","","",""
"","","","","","html-keyboard-response","38","1713550","0.0-38.0","2B3234EB99B442E29C1E1FB9B926460F","019cf794-0c9f-760a-bbfc-414a6bf61b29","019cf78c-cfcf-769c-9016-9b96552b5e33","","null","
                <div class=""stimulus-container"">
                    <img src=""images/schematic_sequence/restaurant_scheme/restaurant_scheme_1.png"" class=""exp-image"">
                    <div class=""question-area""></div> 
                </div>","null","","","","","","","","",""
"","","","","","html-button-response","39","1716555","0.0-39.0","2B3234EB99B442E29C1E1FB9B926460F","019cf794-0c9f-760a-bbfc-414a6bf61b29","019cf78c-cfcf-769c-9016-9b96552b5e33","","null","
                <div class=""stimulus-container"">
                    <img src=""images/schematic_sequence/restaurant_scheme/restaurant_scheme_1.png"" class=""exp-image"">
                    <div class=""question-area"">
                        <p style=""font-size: 20px; font-weight: bold; margin: 0;"">Is there a person in this image?</p>
                    </div>
                </div>","null","main_experiment_trial","1","restaurant_scheme","schematic_sequence","","","","",""
"","","","","","html-keyboard-response","40","1721568","0.0-40.0","2B3234EB99B442E29C1E1FB9B926460F","019cf794-0c9f-760a-bbfc-414a6bf61b29","019cf78c-cfcf-769c-9016-9b96552b5e33","","null","
                <div class=""stimulus-container"">
                    <img src=""images/schematic_sequence/restaurant_scheme/restaurant_scheme_2.png"" class=""exp-image"">
                    <div class=""question-area""></div> 
                </div>","null","","","","","","","","",""
"","","","","","html-button-response","41","1724579","0.0-41.0","2B3234EB99B442E29C1E1FB9B926460F","019cf794-0c9f-760a-bbfc-414a6bf61b29","019cf78c-cfcf-769c-9016-9b96552b5e33","","null","
                <div class=""stimulus-container"">
                    <img src=""images/schematic_sequence/restaurant_scheme/restaurant_scheme_2.png"" class=""exp-image"">
                    <div class=""question-area"">
                        <p style=""font-size: 20px; font-weight: bold; margin: 0;"">Is there a person in this image?</p>
                    </div>
                </div>","null","main_experiment_trial","2","restaurant_scheme","schematic_sequence","","","","",""
"","","","","","html-keyboard-response","42","1729588","0.0-42.0","2B3234EB99B442E29C1E1FB9B926460F","019cf794-0c9f-760a-bbfc-414a6bf61b29","019cf78c-cfcf-769c-9016-9b96552b5e33","","null","
                <div class=""stimulus-container"">
                    <img src=""images/schematic_sequence/restaurant_scheme/restaurant_scheme_3.png"" class=""exp-image"">
                    <div class=""question-area""></div> 
                </div>","null","","","","","","","","",""
"","","","","","html-button-response","43","1732589","0.0-43.0","2B3234EB99B442E29C1E1FB9B926460F","019cf794-0c9f-760a-bbfc-414a6bf61b29","019cf78c-cfcf-769c-9016-9b96552b5e33","","null","
                <div class=""stimulus-container"">
                    <img src=""images/schematic_sequence/restaurant_scheme/restaurant_scheme_3.png"" class=""exp-image"">
                    <div class=""question-area"">
                        <p style=""font-size: 20px; font-weight: bold; margin: 0;"">Is there a person in this image?</p>
                    </div>
                </div>","null","main_experiment_trial","3","restaurant_scheme","schematic_sequence","","","","",""
"","","","","","html-keyboard-response","44","1737594","0.0-44.0","2B3234EB99B442E29C1E1FB9B926460F","019cf794-0c9f-760a-bbfc-414a6bf61b29","019cf78c-cfcf-769c-9016-9b96552b5e33","","null","
                <div class=""stimulus-container"">
                    <img src=""images/schematic_sequence/restaurant_scheme/restaurant_scheme_4.png"" class=""exp-image"">
                    <div class=""question-area""></div> 
                </div>","null","","","","","","","","",""
"","","","","","html-button-response","45","1740608","0.0-45.0","2B3234EB99B442E29C1E1FB9B926460F","019cf794-0c9f-760a-bbfc-414a6bf61b29","019cf78c-cfcf-769c-9016-9b96552b5e33","","null","
                <div class=""stimulus-container"">
                    <img src=""images/schematic_sequence/restaurant_scheme/restaurant_scheme_4.png"" class=""exp-image"">
                    <div class=""question-area"">
                        <p style=""font-size: 20px; font-weight: bold; margin: 0;"">Is there a person in this image?</p>
                    </div>
                </div>","null","main_experiment_trial","4","restaurant_scheme","schematic_sequence","","","","",""
"","","","","","html-keyboard-response","46","1745620","0.0-46.0","2B3234EB99B442E29C1E1FB9B926460F","019cf794-0c9f-760a-bbfc-414a6bf61b29","019cf78c-cfcf-769c-9016-9b96552b5e33","","null","
                <div class=""stimulus-container"">
                    <img src=""images/schematic_sequence/restaurant_scheme/restaurant_scheme_5.png"" class=""exp-image"">
                    <div class=""question-area""></div> 
                </div>","null","","","","","","","","",""
"","","","","","html-button-response","47","1748620","0.0-47.0","2B3234EB99B442E29C1E1FB9B926460F","019cf794-0c9f-760a-bbfc-414a6bf61b29","019cf78c-cfcf-769c-9016-9b96552b5e33","","null","
                <div class=""stimulus-container"">
                    <img src=""images/schematic_sequence/restaurant_scheme/restaurant_scheme_5.png"" class=""exp-image"">
                    <div class=""question-area"">
                        <p style=""font-size: 20px; font-weight: bold; margin: 0;"">Is there a person in this image?</p>
                    </div>
                </div>","null","main_experiment_trial","5","restaurant_scheme","schematic_sequence","","","","",""
"","","","","","html-keyboard-response","48","1753632","0.0-48.0","2B3234EB99B442E29C1E1FB9B926460F","019cf794-0c9f-760a-bbfc-414a6bf61b29","019cf78c-cfcf-769c-9016-9b96552b5e33","","null","
                <div class=""stimulus-container"">
                    <img src=""images/schematic_sequence/restaurant_scheme/restaurant_scheme_6.png"" class=""exp-image"">
                    <div class=""question-area""></div> 
                </div>","null","","","","","","","","",""
"","","","","","html-button-response","49","1754789","0.0-49.0","2B3234EB99B442E29C1E1FB9B926460F","019cf794-0c9f-760a-bbfc-414a6bf61b29","019cf78c-cfcf-769c-9016-9b96552b5e33","","1156","
                <div class=""stimulus-container"">
                    <img src=""images/schematic_sequence/restaurant_scheme/restaurant_scheme_6.png"" class=""exp-image"">
                    <div class=""question-area"">
                        <p style=""font-size: 20px; font-weight: bold; margin: 0;"">Is there a person in this image?</p>
                    </div>
                </div>","0","main_experiment_trial","6","restaurant_scheme","schematic_sequence","","","","",""
"","","","","","html-keyboard-response","50","1759791","0.0-50.0","2B3234EB99B442E29C1E1FB9B926460F","019cf794-0c9f-760a-bbfc-414a6bf61b29","019cf78c-cfcf-769c-9016-9b96552b5e33","","null","
                <div class=""stimulus-container"">
                    <img src=""images/schematic_sequence/restaurant_scheme/restaurant_scheme_7.png"" class=""exp-image"">
                    <div class=""question-area""></div> 
                </div>","null","","","","","","","","",""
"","","","","","html-button-response","51","1761205","0.0-51.0","2B3234EB99B442E29C1E1FB9B926460F","019cf794-0c9f-760a-bbfc-414a6bf61b29","019cf78c-cfcf-769c-9016-9b96552b5e33","","1413","
                <div class=""stimulus-container"">
                    <img src=""images/schematic_sequence/restaurant_scheme/restaurant_scheme_7.png"" class=""exp-image"">
                    <div class=""question-area"">
                        <p style=""font-size: 20px; font-weight: bold; margin: 0;"">Is there a person in this image?</p>
                    </div>
                </div>","0","main_experiment_trial","7","restaurant_scheme","schematic_sequence","","","","",""
"","","","","","html-keyboard-response","52","1766220","0.0-52.0","2B3234EB99B442E29C1E1FB9B926460F","019cf794-0c9f-760a-bbfc-414a6bf61b29","019cf78c-cfcf-769c-9016-9b96552b5e33","","null","
                <div class=""stimulus-container"">
                    <img src=""images/schematic_sequence/restaurant_scheme/restaurant_scheme_8.png"" class=""exp-image"">
                    <div class=""question-area""></div> 
                </div>","null","","","","","","","","",""
"","","","","","html-button-response","53","1767244","0.0-53.0","2B3234EB99B442E29C1E1FB9B926460F","019cf794-0c9f-760a-bbfc-414a6bf61b29","019cf78c-cfcf-769c-9016-9b96552b5e33","","1023","
                <div class=""stimulus-container"">
                    <img src=""images/schematic_sequence/restaurant_scheme/restaurant_scheme_8.png"" class=""exp-image"">
                    <div class=""question-area"">
                        <p style=""font-size: 20px; font-weight: bold; margin: 0;"">Is there a person in this image?</p>
                    </div>
                </div>","0","main_experiment_trial","8","restaurant_scheme","schematic_sequence","","","","",""
"","","","","","html-keyboard-response","54","1772245","0.0-54.0","2B3234EB99B442E29C1E1FB9B926460F","019cf794-0c9f-760a-bbfc-414a6bf61b29","019cf78c-cfcf-769c-9016-9b96552b5e33","","null","
                <div class=""stimulus-container"">
                    <img src=""images/schematic_sequence/restaurant_scheme/restaurant_scheme_9.png"" class=""exp-image"">
                    <div class=""question-area""></div> 
                </div>","null","","","","","","","","",""
"","","","","","html-button-response","55","1773364","0.0-55.0","2B3234EB99B442E29C1E1FB9B926460F","019cf794-0c9f-760a-bbfc-414a6bf61b29","019cf78c-cfcf-769c-9016-9b96552b5e33","","1119","
                <div class=""stimulus-container"">
                    <img src=""images/schematic_sequence/restaurant_scheme/restaurant_scheme_9.png"" class=""exp-image"">
                    <div class=""question-area"">
                        <p style=""font-size: 20px; font-weight: bold; margin: 0;"">Is there a person in this image?</p>
                    </div>
                </div>","0","main_experiment_trial","9","restaurant_scheme","schematic_sequence","","","","",""
"","","","","","html-keyboard-response","56","1778371","0.0-56.0","2B3234EB99B442E29C1E1FB9B926460F","019cf794-0c9f-760a-bbfc-414a6bf61b29","019cf78c-cfcf-769c-9016-9b96552b5e33","","null","
                <div class=""stimulus-container"">
                    <img src=""images/schematic_sequence/restaurant_scheme/restaurant_scheme_ten.png"" class=""exp-image"">
                    <div class=""question-area""></div> 
                </div>","null","","","","","","","","",""
"","","","","","html-button-response","57","1779876","0.0-57.0","2B3234EB99B442E29C1E1FB9B926460F","019cf794-0c9f-760a-bbfc-414a6bf61b29","019cf78c-cfcf-769c-9016-9b96552b5e33","","1504","
                <div class=""stimulus-container"">
                    <img src=""images/schematic_sequence/restaurant_scheme/restaurant_scheme_ten.png"" class=""exp-image"">
                    <div class=""question-area"">
                        <p style=""font-size: 20px; font-weight: bold; margin: 0;"">Is there a person in this image?</p>
                    </div>
                </div>","0","main_experiment_trial","ten","restaurant_scheme","schematic_sequence","","","","",""
"","","","","","html-keyboard-response","58","1780889","0.0-58.0","2B3234EB99B442E29C1E1FB9B926460F","019cf794-0c9f-760a-bbfc-414a6bf61b29","019cf78c-cfcf-769c-9016-9b96552b5e33","","null","<div style=""background-color: white; width: 100vw; height: 100vh;""></div>","null","","","","","","","","",""
"","","","","","html-keyboard-response","59","1785901","0.0-59.0","2B3234EB99B442E29C1E1FB9B926460F","019cf794-0c9f-760a-bbfc-414a6bf61b29","019cf78c-cfcf-769c-9016-9b96552b5e33","","null","
                <div class=""stimulus-container"">
                    <img src=""images/semantic_sequence/creative_activities_semantic/creative_activities_semantic_1.png"" class=""exp-image"">
                    <div class=""question-area""></div> 
                </div>","null","","","","","","","","",""
"","","","","","html-button-response","60","1787252","0.0-60.0","2B3234EB99B442E29C1E1FB9B926460F","019cf794-0c9f-760a-bbfc-414a6bf61b29","019cf78c-cfcf-769c-9016-9b96552b5e33","","1351","
                <div class=""stimulus-container"">
                    <img src=""images/semantic_sequence/creative_activities_semantic/creative_activities_semantic_1.png"" class=""exp-image"">
                    <div class=""question-area"">
                        <p style=""font-size: 20px; font-weight: bold; margin: 0;"">Is there a person in this image?</p>
                    </div>
                </div>","1","main_experiment_trial","1","creative_activities_semantic","semantic_sequence","","","","",""
"","","","","","html-keyboard-response","61","1792261","0.0-61.0","2B3234EB99B442E29C1E1FB9B926460F","019cf794-0c9f-760a-bbfc-414a6bf61b29","019cf78c-cfcf-769c-9016-9b96552b5e33","","null","
                <div class=""stimulus-container"">
                    <img src=""images/semantic_sequence/creative_activities_semantic/creative_activities_semantic_2.png"" class=""exp-image"">
                    <div class=""question-area""></div> 
                </div>","null","","","","","","","","",""
"","","","","","html-button-response","62","1793621","0.0-62.0","2B3234EB99B442E29C1E1FB9B926460F","019cf794-0c9f-760a-bbfc-414a6bf61b29","019cf78c-cfcf-769c-9016-9b96552b5e33","","1360","
                <div class=""stimulus-container"">
                    <img src=""images/semantic_sequence/creative_activities_semantic/creative_activities_semantic_2.png"" class=""exp-image"">
                    <div class=""question-area"">
                        <p style=""font-size: 20px; font-weight: bold; margin: 0;"">Is there a person in this image?</p>
                    </div>
                </div>","0","main_experiment_trial","2","creative_activities_semantic","semantic_sequence","","","","",""
"","","","","","html-keyboard-response","63","1798633","0.0-63.0","2B3234EB99B442E29C1E1FB9B926460F","019cf794-0c9f-760a-bbfc-414a6bf61b29","019cf78c-cfcf-769c-9016-9b96552b5e33","","null","
                <div class=""stimulus-container"">
                    <img src=""images/semantic_sequence/creative_activities_semantic/creative_activities_semantic_3.png"" class=""exp-image"">
                    <div class=""question-area""></div> 
                </div>","null","","","","","","","","",""
"","","","","","html-button-response","64","1799837","0.0-64.0","2B3234EB99B442E29C1E1FB9B926460F","019cf794-0c9f-760a-bbfc-414a6bf61b29","019cf78c-cfcf-769c-9016-9b96552b5e33","","1203","
                <div class=""stimulus-container"">
                    <img src=""images/semantic_sequence/creative_activities_semantic/creative_activities_semantic_3.png"" class=""exp-image"">
                    <div class=""question-area"">
                        <p style=""font-size: 20px; font-weight: bold; margin: 0;"">Is there a person in this image?</p>
                    </div>
                </div>","0","main_experiment_trial","3","creative_activities_semantic","semantic_sequence","","","","",""
"","","","","","html-keyboard-response","65","1804840","0.0-65.0","2B3234EB99B442E29C1E1FB9B926460F","019cf794-0c9f-760a-bbfc-414a6bf61b29","019cf78c-cfcf-769c-9016-9b96552b5e33","","null","
                <div class=""stimulus-container"">
                    <img src=""images/semantic_sequence/creative_activities_semantic/creative_activities_semantic_4.png"" class=""exp-image"">
                    <div class=""question-area""></div> 
                </div>","null","","","","","","","","",""
"","","","","","html-button-response","66","1806708","0.0-66.0","2B3234EB99B442E29C1E1FB9B926460F","019cf794-0c9f-760a-bbfc-414a6bf61b29","019cf78c-cfcf-769c-9016-9b96552b5e33","","1867","
                <div class=""stimulus-container"">
                    <img src=""images/semantic_sequence/creative_activities_semantic/creative_activities_semantic_4.png"" class=""exp-image"">
                    <div class=""question-area"">
                        <p style=""font-size: 20px; font-weight: bold; margin: 0;"">Is there a person in this image?</p>
                    </div>
                </div>","0","main_experiment_trial","4","creative_activities_semantic","semantic_sequence","","","","",""
"","","","","","html-keyboard-response","67","1811709","0.0-67.0","2B3234EB99B442E29C1E1FB9B926460F","019cf794-0c9f-760a-bbfc-414a6bf61b29","019cf78c-cfcf-769c-9016-9b96552b5e33","","null","
                <div class=""stimulus-container"">
                    <img src=""images/semantic_sequence/creative_activities_semantic/creative_activities_semantic_5.png"" class=""exp-image"">
                    <div class=""question-area""></div> 
                </div>","null","","","","","","","","",""
"","","","","","html-button-response","68","1813117","0.0-68.0","2B3234EB99B442E29C1E1FB9B926460F","019cf794-0c9f-760a-bbfc-414a6bf61b29","019cf78c-cfcf-769c-9016-9b96552b5e33","","1407","
                <div class=""stimulus-container"">
                    <img src=""images/semantic_sequence/creative_activities_semantic/creative_activities_semantic_5.png"" class=""exp-image"">
                    <div class=""question-area"">
                        <p style=""font-size: 20px; font-weight: bold; margin: 0;"">Is there a person in this image?</p>
                    </div>
                </div>","0","main_experiment_trial","5","creative_activities_semantic","semantic_sequence","","","","",""
"","","","","","html-keyboard-response","69","1818124","0.0-69.0","2B3234EB99B442E29C1E1FB9B926460F","019cf794-0c9f-760a-bbfc-414a6bf61b29","019cf78c-cfcf-769c-9016-9b96552b5e33","","null","
                <div class=""stimulus-container"">
                    <img src=""images/semantic_sequence/creative_activities_semantic/creative_activities_semantic_6.png"" class=""exp-image"">
                    <div class=""question-area""></div> 
                </div>","null","","","","","","","","",""
"","","","","","html-button-response","70","1819852","0.0-70.0","2B3234EB99B442E29C1E1FB9B926460F","019cf794-0c9f-760a-bbfc-414a6bf61b29","019cf78c-cfcf-769c-9016-9b96552b5e33","","1727","
                <div class=""stimulus-container"">
                    <img src=""images/semantic_sequence/creative_activities_semantic/creative_activities_semantic_6.png"" class=""exp-image"">
                    <div class=""question-area"">
                        <p style=""font-size: 20px; font-weight: bold; margin: 0;"">Is there a person in this image?</p>
                    </div>
                </div>","0","main_experiment_trial","6","creative_activities_semantic","semantic_sequence","","","","",""
"","","","","","html-keyboard-response","71","1824853","0.0-71.0","2B3234EB99B442E29C1E1FB9B926460F","019cf794-0c9f-760a-bbfc-414a6bf61b29","019cf78c-cfcf-769c-9016-9b96552b5e33","","null","
                <div class=""stimulus-container"">
                    <img src=""images/semantic_sequence/creative_activities_semantic/creative_activities_semantic_7.png"" class=""exp-image"">
                    <div class=""question-area""></div> 
                </div>","null","","","","","","","","",""
"","","","","","html-button-response","72","1825996","0.0-72.0","2B3234EB99B442E29C1E1FB9B926460F","019cf794-0c9f-760a-bbfc-414a6bf61b29","019cf78c-cfcf-769c-9016-9b96552b5e33","","1143","
                <div class=""stimulus-container"">
                    <img src=""images/semantic_sequence/creative_activities_semantic/creative_activities_semantic_7.png"" class=""exp-image"">
                    <div class=""question-area"">
                        <p style=""font-size: 20px; font-weight: bold; margin: 0;"">Is there a person in this image?</p>
                    </div>
                </div>","0","main_experiment_trial","7","creative_activities_semantic","semantic_sequence","","","","",""
"","","","","","html-keyboard-response","73","1830997","0.0-73.0","2B3234EB99B442E29C1E1FB9B926460F","019cf794-0c9f-760a-bbfc-414a6bf61b29","019cf78c-cfcf-769c-9016-9b96552b5e33","","null","
                <div class=""stimulus-container"">
                    <img src=""images/semantic_sequence/creative_activities_semantic/creative_activities_semantic_8.png"" class=""exp-image"">
                    <div class=""question-area""></div> 
                </div>","null","","","","","","","","",""
"","","","","","html-button-response","74","1832508","0.0-74.0","2B3234EB99B442E29C1E1FB9B926460F","019cf794-0c9f-760a-bbfc-414a6bf61b29","019cf78c-cfcf-769c-9016-9b96552b5e33","","1511","
                <div class=""stimulus-container"">
                    <img src=""images/semantic_sequence/creative_activities_semantic/creative_activities_semantic_8.png"" class=""exp-image"">
                    <div class=""question-area"">
                        <p style=""font-size: 20px; font-weight: bold; margin: 0;"">Is there a person in this image?</p>
                    </div>
                </div>","0","main_experiment_trial","8","creative_activities_semantic","semantic_sequence","","","","",""
"","","","","","html-keyboard-response","75","1837513","0.0-75.0","2B3234EB99B442E29C1E1FB9B926460F","019cf794-0c9f-760a-bbfc-414a6bf61b29","019cf78c-cfcf-769c-9016-9b96552b5e33","","null","
                <div class=""stimulus-container"">
                    <img src=""images/semantic_sequence/creative_activities_semantic/creative_activities_semantic_9.png"" class=""exp-image"">
                    <div class=""question-area""></div> 
                </div>","null","","","","","","","","",""
"","","","","","html-button-response","76","1839483","0.0-76.0","2B3234EB99B442E29C1E1FB9B926460F","019cf794-0c9f-760a-bbfc-414a6bf61b29","019cf78c-cfcf-769c-9016-9b96552b5e33","","1969","
                <div class=""stimulus-container"">
                    <img src=""images/semantic_sequence/creative_activities_semantic/creative_activities_semantic_9.png"" class=""exp-image"">
                    <div class=""question-area"">
                        <p style=""font-size: 20px; font-weight: bold; margin: 0;"">Is there a person in this image?</p>
                    </div>
                </div>","0","main_experiment_trial","9","creative_activities_semantic","semantic_sequence","","","","",""
"","","","","","html-keyboard-response","77","1844484","0.0-77.0","2B3234EB99B442E29C1E1FB9B926460F","019cf794-0c9f-760a-bbfc-414a6bf61b29","019cf78c-cfcf-769c-9016-9b96552b5e33","","null","
                <div class=""stimulus-container"">
                    <img src=""images/semantic_sequence/creative_activities_semantic/creative_activities_semantic_ten.png"" class=""exp-image"">
                    <div class=""question-area""></div> 
                </div>","null","","","","","","","","",""
"","","","","","html-button-response","78","1845692","0.0-78.0","2B3234EB99B442E29C1E1FB9B926460F","019cf794-0c9f-760a-bbfc-414a6bf61b29","019cf78c-cfcf-769c-9016-9b96552b5e33","","1207","
                <div class=""stimulus-container"">
                    <img src=""images/semantic_sequence/creative_activities_semantic/creative_activities_semantic_ten.png"" class=""exp-image"">
                    <div class=""question-area"">
                        <p style=""font-size: 20px; font-weight: bold; margin: 0;"">Is there a person in this image?</p>
                    </div>
                </div>","0","main_experiment_trial","ten","creative_activities_semantic","semantic_sequence","","","","",""
"","","","","","html-keyboard-response","79","1846693","0.0-79.0","2B3234EB99B442E29C1E1FB9B926460F","019cf794-0c9f-760a-bbfc-414a6bf61b29","019cf78c-cfcf-769c-9016-9b96552b5e33","","null","<div style=""background-color: white; width: 100vw; height: 100vh;""></div>","null","","","","","","","","",""
"","","","","","html-keyboard-response","80","1851696","0.0-80.0","2B3234EB99B442E29C1E1FB9B926460F","019cf794-0c9f-760a-bbfc-414a6bf61b29","019cf78c-cfcf-769c-9016-9b96552b5e33","","null","
                <div class=""stimulus-container"">
                    <img src=""images/semantic_sequence/exploring_nature_semantic/exploring_nature_semantic_1.png"" class=""exp-image"">
                    <div class=""question-area""></div> 
                </div>","null","","","","","","","","",""
"","","","","","html-button-response","81","1853333","0.0-81.0","2B3234EB99B442E29C1E1FB9B926460F","019cf794-0c9f-760a-bbfc-414a6bf61b29","019cf78c-cfcf-769c-9016-9b96552b5e33","","1635","
                <div class=""stimulus-container"">
                    <img src=""images/semantic_sequence/exploring_nature_semantic/exploring_nature_semantic_1.png"" class=""exp-image"">
                    <div class=""question-area"">
                        <p style=""font-size: 20px; font-weight: bold; margin: 0;"">Is there a person in this image?</p>
                    </div>
                </div>","0","main_experiment_trial","1","exploring_nature_semantic","semantic_sequence","","","","",""
"","","","","","html-keyboard-response","82","1858336","0.0-82.0","2B3234EB99B442E29C1E1FB9B926460F","019cf794-0c9f-760a-bbfc-414a6bf61b29","019cf78c-cfcf-769c-9016-9b96552b5e33","","null","
                <div class=""stimulus-container"">
                    <img src=""images/semantic_sequence/exploring_nature_semantic/exploring_nature_semantic_2.png"" class=""exp-image"">
                    <div class=""question-area""></div> 
                </div>","null","","","","","","","","",""
"","","","","","html-button-response","83","1859581","0.0-83.0","2B3234EB99B442E29C1E1FB9B926460F","019cf794-0c9f-760a-bbfc-414a6bf61b29","019cf78c-cfcf-769c-9016-9b96552b5e33","","1245","
                <div class=""stimulus-container"">
                    <img src=""images/semantic_sequence/exploring_nature_semantic/exploring_nature_semantic_2.png"" class=""exp-image"">
                    <div class=""question-area"">
                        <p style=""font-size: 20px; font-weight: bold; margin: 0;"">Is there a person in this image?</p>
                    </div>
                </div>","1","main_experiment_trial","2","exploring_nature_semantic","semantic_sequence","","","","",""
"","","","","","html-keyboard-response","84","1864591","0.0-84.0","2B3234EB99B442E29C1E1FB9B926460F","019cf794-0c9f-760a-bbfc-414a6bf61b29","019cf78c-cfcf-769c-9016-9b96552b5e33","","null","
                <div class=""stimulus-container"">
                    <img src=""images/semantic_sequence/exploring_nature_semantic/exploring_nature_semantic_3.png"" class=""exp-image"">
                    <div class=""question-area""></div> 
                </div>","null","","","","","","","","",""
"","","","","","html-button-response","85","1865845","0.0-85.0","2B3234EB99B442E29C1E1FB9B926460F","019cf794-0c9f-760a-bbfc-414a6bf61b29","019cf78c-cfcf-769c-9016-9b96552b5e33","","1253","
                <div class=""stimulus-container"">
                    <img src=""images/semantic_sequence/exploring_nature_semantic/exploring_nature_semantic_3.png"" class=""exp-image"">
                    <div class=""question-area"">
                        <p style=""font-size: 20px; font-weight: bold; margin: 0;"">Is there a person in this image?</p>
                    </div>
                </div>","0","main_experiment_trial","3","exploring_nature_semantic","semantic_sequence","","","","",""
"","","","","","html-keyboard-response","86","1870857","0.0-86.0","2B3234EB99B442E29C1E1FB9B926460F","019cf794-0c9f-760a-bbfc-414a6bf61b29","019cf78c-cfcf-769c-9016-9b96552b5e33","","null","
                <div class=""stimulus-container"">
                    <img src=""images/semantic_sequence/exploring_nature_semantic/exploring_nature_semantic_4.png"" class=""exp-image"">
                    <div class=""question-area""></div> 
                </div>","null","","","","","","","","",""
"","","","","","html-button-response","87","1872151","0.0-87.0","2B3234EB99B442E29C1E1FB9B926460F","019cf794-0c9f-760a-bbfc-414a6bf61b29","019cf78c-cfcf-769c-9016-9b96552b5e33","","1294","
                <div class=""stimulus-container"">
                    <img src=""images/semantic_sequence/exploring_nature_semantic/exploring_nature_semantic_4.png"" class=""exp-image"">
                    <div class=""question-area"">
                        <p style=""font-size: 20px; font-weight: bold; margin: 0;"">Is there a person in this image?</p>
                    </div>
                </div>","0","main_experiment_trial","4","exploring_nature_semantic","semantic_sequence","","","","",""
"","","","","","html-keyboard-response","88","1877159","0.0-88.0","2B3234EB99B442E29C1E1FB9B926460F","019cf794-0c9f-760a-bbfc-414a6bf61b29","019cf78c-cfcf-769c-9016-9b96552b5e33","","null","
                <div class=""stimulus-container"">
                    <img src=""images/semantic_sequence/exploring_nature_semantic/exploring_nature_semantic_5.png"" class=""exp-image"">
                    <div class=""question-area""></div> 
                </div>","null","","","","","","","","",""
"","","","","","html-button-response","89","1878573","0.0-89.0","2B3234EB99B442E29C1E1FB9B926460F","019cf794-0c9f-760a-bbfc-414a6bf61b29","019cf78c-cfcf-769c-9016-9b96552b5e33","","1412","
                <div class=""stimulus-container"">
                    <img src=""images/semantic_sequence/exploring_nature_semantic/exploring_nature_semantic_5.png"" class=""exp-image"">
                    <div class=""question-area"">
                        <p style=""font-size: 20px; font-weight: bold; margin: 0;"">Is there a person in this image?</p>
                    </div>
                </div>","0","main_experiment_trial","5","exploring_nature_semantic","semantic_sequence","","","","",""
"","","","","","html-keyboard-response","90","1883573","0.0-90.0","2B3234EB99B442E29C1E1FB9B926460F","019cf794-0c9f-760a-bbfc-414a6bf61b29","019cf78c-cfcf-769c-9016-9b96552b5e33","","null","
                <div class=""stimulus-container"">
                    <img src=""images/semantic_sequence/exploring_nature_semantic/exploring_nature_semantic_6.png"" class=""exp-image"">
                    <div class=""question-area""></div> 
                </div>","null","","","","","","","","",""
"","","","","","html-button-response","91","1884989","0.0-91.0","2B3234EB99B442E29C1E1FB9B926460F","019cf794-0c9f-760a-bbfc-414a6bf61b29","019cf78c-cfcf-769c-9016-9b96552b5e33","","1415","
                <div class=""stimulus-container"">
                    <img src=""images/semantic_sequence/exploring_nature_semantic/exploring_nature_semantic_6.png"" class=""exp-image"">
                    <div class=""question-area"">
                        <p style=""font-size: 20px; font-weight: bold; margin: 0;"">Is there a person in this image?</p>
                    </div>
                </div>","0","main_experiment_trial","6","exploring_nature_semantic","semantic_sequence","","","","",""
"","","","","","html-keyboard-response","92","1890002","0.0-92.0","2B3234EB99B442E29C1E1FB9B926460F","019cf794-0c9f-760a-bbfc-414a6bf61b29","019cf78c-cfcf-769c-9016-9b96552b5e33","","null","
                <div class=""stimulus-container"">
                    <img src=""images/semantic_sequence/exploring_nature_semantic/exploring_nature_semantic_7.png"" class=""exp-image"">
                    <div class=""question-area""></div> 
                </div>","null","","","","","","","","",""
"","","","","","html-button-response","93","1891001","0.0-93.0","2B3234EB99B442E29C1E1FB9B926460F","019cf794-0c9f-760a-bbfc-414a6bf61b29","019cf78c-cfcf-769c-9016-9b96552b5e33","","998","
                <div class=""stimulus-container"">
                    <img src=""images/semantic_sequence/exploring_nature_semantic/exploring_nature_semantic_7.png"" class=""exp-image"">
                    <div class=""question-area"">
                        <p style=""font-size: 20px; font-weight: bold; margin: 0;"">Is there a person in this image?</p>
                    </div>
                </div>","0","main_experiment_trial","7","exploring_nature_semantic","semantic_sequence","","","","",""
"","","","","","html-keyboard-response","94","1896003","0.0-94.0","2B3234EB99B442E29C1E1FB9B926460F","019cf794-0c9f-760a-bbfc-414a6bf61b29","019cf78c-cfcf-769c-9016-9b96552b5e33","","null","
                <div class=""stimulus-container"">
                    <img src=""images/semantic_sequence/exploring_nature_semantic/exploring_nature_semantic_8.png"" class=""exp-image"">
                    <div class=""question-area""></div> 
                </div>","null","","","","","","","","",""
"","","","","","html-button-response","95","1897613","0.0-95.0","2B3234EB99B442E29C1E1FB9B926460F","019cf794-0c9f-760a-bbfc-414a6bf61b29","019cf78c-cfcf-769c-9016-9b96552b5e33","","1609","
                <div class=""stimulus-container"">
                    <img src=""images/semantic_sequence/exploring_nature_semantic/exploring_nature_semantic_8.png"" class=""exp-image"">
                    <div class=""question-area"">
                        <p style=""font-size: 20px; font-weight: bold; margin: 0;"">Is there a person in this image?</p>
                    </div>
                </div>","0","main_experiment_trial","8","exploring_nature_semantic","semantic_sequence","","","","",""
"","","","","","html-keyboard-response","96","1902627","0.0-96.0","2B3234EB99B442E29C1E1FB9B926460F","019cf794-0c9f-760a-bbfc-414a6bf61b29","019cf78c-cfcf-769c-9016-9b96552b5e33","","null","
                <div class=""stimulus-container"">
                    <img src=""images/semantic_sequence/exploring_nature_semantic/exploring_nature_semantic_9.png"" class=""exp-image"">
                    <div class=""question-area""></div> 
                </div>","null","","","","","","","","",""
"","","","","","html-button-response","97","1903699","0.0-97.0","2B3234EB99B442E29C1E1FB9B926460F","019cf794-0c9f-760a-bbfc-414a6bf61b29","019cf78c-cfcf-769c-9016-9b96552b5e33","","1071","
                <div class=""stimulus-container"">
                    <img src=""images/semantic_sequence/exploring_nature_semantic/exploring_nature_semantic_9.png"" class=""exp-image"">
                    <div class=""question-area"">
                        <p style=""font-size: 20px; font-weight: bold; margin: 0;"">Is there a person in this image?</p>
                    </div>
                </div>","0","main_experiment_trial","9","exploring_nature_semantic","semantic_sequence","","","","",""
"","","","","","html-keyboard-response","98","1908700","0.0-98.0","2B3234EB99B442E29C1E1FB9B926460F","019cf794-0c9f-760a-bbfc-414a6bf61b29","019cf78c-cfcf-769c-9016-9b96552b5e33","","null","
                <div class=""stimulus-container"">
                    <img src=""images/semantic_sequence/exploring_nature_semantic/exploring_nature_semantic_ten.png"" class=""exp-image"">
                    <div class=""question-area""></div> 
                </div>","null","","","","","","","","",""
"","","","","","html-button-response","99","1909747","0.0-99.0","2B3234EB99B442E29C1E1FB9B926460F","019cf794-0c9f-760a-bbfc-414a6bf61b29","019cf78c-cfcf-769c-9016-9b96552b5e33","","1047","
                <div class=""stimulus-container"">
                    <img src=""images/semantic_sequence/exploring_nature_semantic/exploring_nature_semantic_ten.png"" class=""exp-image"">
                    <div class=""question-area"">
                        <p style=""font-size: 20px; font-weight: bold; margin: 0;"">Is there a person in this image?</p>
                    </div>
                </div>","0","main_experiment_trial","ten","exploring_nature_semantic","semantic_sequence","","","","",""
"","","","","","html-keyboard-response","100","1910759","0.0-100.0","2B3234EB99B442E29C1E1FB9B926460F","019cf794-0c9f-760a-bbfc-414a6bf61b29","019cf78c-cfcf-769c-9016-9b96552b5e33","","null","<div style=""background-color: white; width: 100vw; height: 100vh;""></div>","null","","","","","","","","",""
"","","","","","html-keyboard-response","101","1915767","0.0-101.0","2B3234EB99B442E29C1E1FB9B926460F","019cf794-0c9f-760a-bbfc-414a6bf61b29","019cf78c-cfcf-769c-9016-9b96552b5e33","","null","
                <div class=""stimulus-container"">
                    <img src=""images/semantic_sequence/maintaining_a_car_semantic/maintaining_a_car_semantic_1.png"" class=""exp-image"">
                    <div class=""question-area""></div> 
                </div>","null","","","","","","","","",""
"","","","","","html-button-response","102","1918005","0.0-102.0","2B3234EB99B442E29C1E1FB9B926460F","019cf794-0c9f-760a-bbfc-414a6bf61b29","019cf78c-cfcf-769c-9016-9b96552b5e33","","2238","
                <div class=""stimulus-container"">
                    <img src=""images/semantic_sequence/maintaining_a_car_semantic/maintaining_a_car_semantic_1.png"" class=""exp-image"">
                    <div class=""question-area"">
                        <p style=""font-size: 20px; font-weight: bold; margin: 0;"">Is there a person in this image?</p>
                    </div>
                </div>","1","main_experiment_trial","1","maintaining_a_car_semantic","semantic_sequence","","","","",""
"","","","","","html-keyboard-response","103","1923006","0.0-103.0","2B3234EB99B442E29C1E1FB9B926460F","019cf794-0c9f-760a-bbfc-414a6bf61b29","019cf78c-cfcf-769c-9016-9b96552b5e33","","null","
                <div class=""stimulus-container"">
                    <img src=""images/semantic_sequence/maintaining_a_car_semantic/maintaining_a_car_semantic_2.png"" class=""exp-image"">
                    <div class=""question-area""></div> 
                </div>","null","","","","","","","","",""
"","","","","","html-button-response","104","1924148","0.0-104.0","2B3234EB99B442E29C1E1FB9B926460F","019cf794-0c9f-760a-bbfc-414a6bf61b29","019cf78c-cfcf-769c-9016-9b96552b5e33","","1142","
                <div class=""stimulus-container"">
                    <img src=""images/semantic_sequence/maintaining_a_car_semantic/maintaining_a_car_semantic_2.png"" class=""exp-image"">
                    <div class=""question-area"">
                        <p style=""font-size: 20px; font-weight: bold; margin: 0;"">Is there a person in this image?</p>
                    </div>
                </div>","0","main_experiment_trial","2","maintaining_a_car_semantic","semantic_sequence","","","","",""
"","","","","","html-keyboard-response","105","1929154","0.0-105.0","2B3234EB99B442E29C1E1FB9B926460F","019cf794-0c9f-760a-bbfc-414a6bf61b29","019cf78c-cfcf-769c-9016-9b96552b5e33","","null","
                <div class=""stimulus-container"">
                    <img src=""images/semantic_sequence/maintaining_a_car_semantic/maintaining_a_car_semantic_3.png"" class=""exp-image"">
                    <div class=""question-area""></div> 
                </div>","null","","","","","","","","",""
"","","","","","html-button-response","106","1930509","0.0-106.0","2B3234EB99B442E29C1E1FB9B926460F","019cf794-0c9f-760a-bbfc-414a6bf61b29","019cf78c-cfcf-769c-9016-9b96552b5e33","","1354","
                <div class=""stimulus-container"">
                    <img src=""images/semantic_sequence/maintaining_a_car_semantic/maintaining_a_car_semantic_3.png"" class=""exp-image"">
                    <div class=""question-area"">
                        <p style=""font-size: 20px; font-weight: bold; margin: 0;"">Is there a person in this image?</p>
                    </div>
                </div>","0","main_experiment_trial","3","maintaining_a_car_semantic","semantic_sequence","","","","",""
"","","","","","html-keyboard-response","107","1935512","0.0-107.0","2B3234EB99B442E29C1E1FB9B926460F","019cf794-0c9f-760a-bbfc-414a6bf61b29","019cf78c-cfcf-769c-9016-9b96552b5e33","","null","
                <div class=""stimulus-container"">
                    <img src=""images/semantic_sequence/maintaining_a_car_semantic/maintaining_a_car_semantic_4.png"" class=""exp-image"">
                    <div class=""question-area""></div> 
                </div>","null","","","","","","","","",""
"","","","","","html-button-response","108","1936598","0.0-108.0","2B3234EB99B442E29C1E1FB9B926460F","019cf794-0c9f-760a-bbfc-414a6bf61b29","019cf78c-cfcf-769c-9016-9b96552b5e33","","1085","
                <div class=""stimulus-container"">
                    <img src=""images/semantic_sequence/maintaining_a_car_semantic/maintaining_a_car_semantic_4.png"" class=""exp-image"">
                    <div class=""question-area"">
                        <p style=""font-size: 20px; font-weight: bold; margin: 0;"">Is there a person in this image?</p>
                    </div>
                </div>","0","main_experiment_trial","4","maintaining_a_car_semantic","semantic_sequence","","","","",""
"","","","","","html-keyboard-response","109","1941608","0.0-109.0","2B3234EB99B442E29C1E1FB9B926460F","019cf794-0c9f-760a-bbfc-414a6bf61b29","019cf78c-cfcf-769c-9016-9b96552b5e33","","null","
                <div class=""stimulus-container"">
                    <img src=""images/semantic_sequence/maintaining_a_car_semantic/maintaining_a_car_semantic_5.png"" class=""exp-image"">
                    <div class=""question-area""></div> 
                </div>","null","","","","","","","","",""
"","","","","","html-button-response","110","1942780","0.0-110.0","2B3234EB99B442E29C1E1FB9B926460F","019cf794-0c9f-760a-bbfc-414a6bf61b29","019cf78c-cfcf-769c-9016-9b96552b5e33","","1172","
                <div class=""stimulus-container"">
                    <img src=""images/semantic_sequence/maintaining_a_car_semantic/maintaining_a_car_semantic_5.png"" class=""exp-image"">
                    <div class=""question-area"">
                        <p style=""font-size: 20px; font-weight: bold; margin: 0;"">Is there a person in this image?</p>
                    </div>
                </div>","0","main_experiment_trial","5","maintaining_a_car_semantic","semantic_sequence","","","","",""
"","","","","","html-keyboard-response","111","1947781","0.0-111.0","2B3234EB99B442E29C1E1FB9B926460F","019cf794-0c9f-760a-bbfc-414a6bf61b29","019cf78c-cfcf-769c-9016-9b96552b5e33","","null","
                <div class=""stimulus-container"">
                    <img src=""images/semantic_sequence/maintaining_a_car_semantic/maintaining_a_car_semantic_6.png"" class=""exp-image"">
                    <div class=""question-area""></div> 
                </div>","null","","","","","","","","",""
"","","","","","html-button-response","112","1948996","0.0-112.0","2B3234EB99B442E29C1E1FB9B926460F","019cf794-0c9f-760a-bbfc-414a6bf61b29","019cf78c-cfcf-769c-9016-9b96552b5e33","","1215","
                <div class=""stimulus-container"">
                    <img src=""images/semantic_sequence/maintaining_a_car_semantic/maintaining_a_car_semantic_6.png"" class=""exp-image"">
                    <div class=""question-area"">
                        <p style=""font-size: 20px; font-weight: bold; margin: 0;"">Is there a person in this image?</p>
                    </div>
                </div>","0","main_experiment_trial","6","maintaining_a_car_semantic","semantic_sequence","","","","",""
"","","","","","html-keyboard-response","113","1954001","0.0-113.0","2B3234EB99B442E29C1E1FB9B926460F","019cf794-0c9f-760a-bbfc-414a6bf61b29","019cf78c-cfcf-769c-9016-9b96552b5e33","","null","
                <div class=""stimulus-container"">
                    <img src=""images/semantic_sequence/maintaining_a_car_semantic/maintaining_a_car_semantic_7.png"" class=""exp-image"">
                    <div class=""question-area""></div> 
                </div>","null","","","","","","","","",""
"","","","","","html-button-response","114","1956147","0.0-114.0","2B3234EB99B442E29C1E1FB9B926460F","019cf794-0c9f-760a-bbfc-414a6bf61b29","019cf78c-cfcf-769c-9016-9b96552b5e33","","2146","
                <div class=""stimulus-container"">
                    <img src=""images/semantic_sequence/maintaining_a_car_semantic/maintaining_a_car_semantic_7.png"" class=""exp-image"">
                    <div class=""question-area"">
                        <p style=""font-size: 20px; font-weight: bold; margin: 0;"">Is there a person in this image?</p>
                    </div>
                </div>","0","main_experiment_trial","7","maintaining_a_car_semantic","semantic_sequence","","","","",""
"","","","","","html-keyboard-response","115","1961149","0.0-115.0","2B3234EB99B442E29C1E1FB9B926460F","019cf794-0c9f-760a-bbfc-414a6bf61b29","019cf78c-cfcf-769c-9016-9b96552b5e33","","null","
                <div class=""stimulus-container"">
                    <img src=""images/semantic_sequence/maintaining_a_car_semantic/maintaining_a_car_semantic_8.png"" class=""exp-image"">
                    <div class=""question-area""></div> 
                </div>","null","","","","","","","","",""
"","","","","","html-button-response","116","1962987","0.0-116.0","2B3234EB99B442E29C1E1FB9B926460F","019cf794-0c9f-760a-bbfc-414a6bf61b29","019cf78c-cfcf-769c-9016-9b96552b5e33","","1838","
                <div class=""stimulus-container"">
                    <img src=""images/semantic_sequence/maintaining_a_car_semantic/maintaining_a_car_semantic_8.png"" class=""exp-image"">
                    <div class=""question-area"">
                        <p style=""font-size: 20px; font-weight: bold; margin: 0;"">Is there a person in this image?</p>
                    </div>
                </div>","1","main_experiment_trial","8","maintaining_a_car_semantic","semantic_sequence","","","","",""
"","","","","","html-keyboard-response","117","1967989","0.0-117.0","2B3234EB99B442E29C1E1FB9B926460F","019cf794-0c9f-760a-bbfc-414a6bf61b29","019cf78c-cfcf-769c-9016-9b96552b5e33","","null","
                <div class=""stimulus-container"">
                    <img src=""images/semantic_sequence/maintaining_a_car_semantic/maintaining_a_car_semantic_9.png"" class=""exp-image"">
                    <div class=""question-area""></div> 
                </div>","null","","","","","","","","",""
"","","","","","html-button-response","118","1969261","0.0-118.0","2B3234EB99B442E29C1E1FB9B926460F","019cf794-0c9f-760a-bbfc-414a6bf61b29","019cf78c-cfcf-769c-9016-9b96552b5e33","","1271","
                <div class=""stimulus-container"">
                    <img src=""images/semantic_sequence/maintaining_a_car_semantic/maintaining_a_car_semantic_9.png"" class=""exp-image"">
                    <div class=""question-area"">
                        <p style=""font-size: 20px; font-weight: bold; margin: 0;"">Is there a person in this image?</p>
                    </div>
                </div>","0","main_experiment_trial","9","maintaining_a_car_semantic","semantic_sequence","","","","",""
"","","","","","html-keyboard-response","119","1974275","0.0-119.0","2B3234EB99B442E29C1E1FB9B926460F","019cf794-0c9f-760a-bbfc-414a6bf61b29","019cf78c-cfcf-769c-9016-9b96552b5e33","","null","
                <div class=""stimulus-container"">
                    <img src=""images/semantic_sequence/maintaining_a_car_semantic/maintaining_a_car_semantic_ten.png"" class=""exp-image"">
                    <div class=""question-area""></div> 
                </div>","null","","","","","","","","",""
"","","","","","html-button-response","120","1975636","0.0-120.0","2B3234EB99B442E29C1E1FB9B926460F","019cf794-0c9f-760a-bbfc-414a6bf61b29","019cf78c-cfcf-769c-9016-9b96552b5e33","","1360","
                <div class=""stimulus-container"">
                    <img src=""images/semantic_sequence/maintaining_a_car_semantic/maintaining_a_car_semantic_ten.png"" class=""exp-image"">
                    <div class=""question-area"">
                        <p style=""font-size: 20px; font-weight: bold; margin: 0;"">Is there a person in this image?</p>
                    </div>
                </div>","0","main_experiment_trial","ten","maintaining_a_car_semantic","semantic_sequence","","","","",""
"","","","","","html-keyboard-response","121","1976636","0.0-121.0","2B3234EB99B442E29C1E1FB9B926460F","019cf794-0c9f-760a-bbfc-414a6bf61b29","019cf78c-cfcf-769c-9016-9b96552b5e33","","null","<div style=""background-color: white; width: 100vw; height: 100vh;""></div>","null","","","","","","","","",""
"","","","","","html-keyboard-response","122","1981637","0.0-122.0","2B3234EB99B442E29C1E1FB9B926460F","019cf794-0c9f-760a-bbfc-414a6bf61b29","019cf78c-cfcf-769c-9016-9b96552b5e33","","null","
                <div class=""stimulus-container"">
                    <img src=""images/semantic_sequence/self_care_activities_semantic/self_care_activities_semantic_1.png"" class=""exp-image"">
                    <div class=""question-area""></div> 
                </div>","null","","","","","","","","",""
"","","","","","html-button-response","123","1984300","0.0-123.0","2B3234EB99B442E29C1E1FB9B926460F","019cf794-0c9f-760a-bbfc-414a6bf61b29","019cf78c-cfcf-769c-9016-9b96552b5e33","","2662","
                <div class=""stimulus-container"">
                    <img src=""images/semantic_sequence/self_care_activities_semantic/self_care_activities_semantic_1.png"" class=""exp-image"">
                    <div class=""question-area"">
                        <p style=""font-size: 20px; font-weight: bold; margin: 0;"">Is there a person in this image?</p>
                    </div>
                </div>","0","main_experiment_trial","1","self_care_activities_semantic","semantic_sequence","","","","",""
"","","","","","html-keyboard-response","124","1989312","0.0-124.0","2B3234EB99B442E29C1E1FB9B926460F","019cf794-0c9f-760a-bbfc-414a6bf61b29","019cf78c-cfcf-769c-9016-9b96552b5e33","","null","
                <div class=""stimulus-container"">
                    <img src=""images/semantic_sequence/self_care_activities_semantic/self_care_activities_semantic_2.png"" class=""exp-image"">
                    <div class=""question-area""></div> 
                </div>","null","","","","","","","","",""
"","","","","","html-button-response","125","1991068","0.0-125.0","2B3234EB99B442E29C1E1FB9B926460F","019cf794-0c9f-760a-bbfc-414a6bf61b29","019cf78c-cfcf-769c-9016-9b96552b5e33","","1756","
                <div class=""stimulus-container"">
                    <img src=""images/semantic_sequence/self_care_activities_semantic/self_care_activities_semantic_2.png"" class=""exp-image"">
                    <div class=""question-area"">
                        <p style=""font-size: 20px; font-weight: bold; margin: 0;"">Is there a person in this image?</p>
                    </div>
                </div>","0","main_experiment_trial","2","self_care_activities_semantic","semantic_sequence","","","","",""
"","","","","","html-keyboard-response","126","1996074","0.0-126.0","2B3234EB99B442E29C1E1FB9B926460F","019cf794-0c9f-760a-bbfc-414a6bf61b29","019cf78c-cfcf-769c-9016-9b96552b5e33","","null","
                <div class=""stimulus-container"">
                    <img src=""images/semantic_sequence/self_care_activities_semantic/self_care_activities_semantic_3.png"" class=""exp-image"">
                    <div class=""question-area""></div> 
                </div>","null","","","","","","","","",""
"","","","","","html-button-response","127","1998069","0.0-127.0","2B3234EB99B442E29C1E1FB9B926460F","019cf794-0c9f-760a-bbfc-414a6bf61b29","019cf78c-cfcf-769c-9016-9b96552b5e33","","1995","
                <div class=""stimulus-container"">
                    <img src=""images/semantic_sequence/self_care_activities_semantic/self_care_activities_semantic_3.png"" class=""exp-image"">
                    <div class=""question-area"">
                        <p style=""font-size: 20px; font-weight: bold; margin: 0;"">Is there a person in this image?</p>
                    </div>
                </div>","0","main_experiment_trial","3","self_care_activities_semantic","semantic_sequence","","","","",""
"","","","","","html-keyboard-response","128","2003073","0.0-128.0","2B3234EB99B442E29C1E1FB9B926460F","019cf794-0c9f-760a-bbfc-414a6bf61b29","019cf78c-cfcf-769c-9016-9b96552b5e33","","null","
                <div class=""stimulus-container"">
                    <img src=""images/semantic_sequence/self_care_activities_semantic/self_care_activities_semantic_4.png"" class=""exp-image"">
                    <div class=""question-area""></div> 
                </div>","null","","","","","","","","",""
"","","","","","html-button-response","129","2004516","0.0-129.0","2B3234EB99B442E29C1E1FB9B926460F","019cf794-0c9f-760a-bbfc-414a6bf61b29","019cf78c-cfcf-769c-9016-9b96552b5e33","","1442","
                <div class=""stimulus-container"">
                    <img src=""images/semantic_sequence/self_care_activities_semantic/self_care_activities_semantic_4.png"" class=""exp-image"">
                    <div class=""question-area"">
                        <p style=""font-size: 20px; font-weight: bold; margin: 0;"">Is there a person in this image?</p>
                    </div>
                </div>","0","main_experiment_trial","4","self_care_activities_semantic","semantic_sequence","","","","",""
"","","","","","html-keyboard-response","130","2009527","0.0-130.0","2B3234EB99B442E29C1E1FB9B926460F","019cf794-0c9f-760a-bbfc-414a6bf61b29","019cf78c-cfcf-769c-9016-9b96552b5e33","","null","
                <div class=""stimulus-container"">
                    <img src=""images/semantic_sequence/self_care_activities_semantic/self_care_activities_semantic_5.png"" class=""exp-image"">
                    <div class=""question-area""></div> 
                </div>","null","","","","","","","","",""
"","","","","","html-button-response","131","2011386","0.0-131.0","2B3234EB99B442E29C1E1FB9B926460F","019cf794-0c9f-760a-bbfc-414a6bf61b29","019cf78c-cfcf-769c-9016-9b96552b5e33","","1859","
                <div class=""stimulus-container"">
                    <img src=""images/semantic_sequence/self_care_activities_semantic/self_care_activities_semantic_5.png"" class=""exp-image"">
                    <div class=""question-area"">
                        <p style=""font-size: 20px; font-weight: bold; margin: 0;"">Is there a person in this image?</p>
                    </div>
                </div>","1","main_experiment_trial","5","self_care_activities_semantic","semantic_sequence","","","","",""
"","","","","","html-keyboard-response","132","2016396","0.0-132.0","2B3234EB99B442E29C1E1FB9B926460F","019cf794-0c9f-760a-bbfc-414a6bf61b29","019cf78c-cfcf-769c-9016-9b96552b5e33","","null","
                <div class=""stimulus-container"">
                    <img src=""images/semantic_sequence/self_care_activities_semantic/self_care_activities_semantic_6.png"" class=""exp-image"">
                    <div class=""question-area""></div> 
                </div>","null","","","","","","","","",""
"","","","","","html-button-response","133","2017723","0.0-133.0","2B3234EB99B442E29C1E1FB9B926460F","019cf794-0c9f-760a-bbfc-414a6bf61b29","019cf78c-cfcf-769c-9016-9b96552b5e33","","1326","
                <div class=""stimulus-container"">
                    <img src=""images/semantic_sequence/self_care_activities_semantic/self_care_activities_semantic_6.png"" class=""exp-image"">
                    <div class=""question-area"">
                        <p style=""font-size: 20px; font-weight: bold; margin: 0;"">Is there a person in this image?</p>
                    </div>
                </div>","0","main_experiment_trial","6","self_care_activities_semantic","semantic_sequence","","","","",""
"","","","","","html-keyboard-response","134","2022724","0.0-134.0","2B3234EB99B442E29C1E1FB9B926460F","019cf794-0c9f-760a-bbfc-414a6bf61b29","019cf78c-cfcf-769c-9016-9b96552b5e33","","null","
                <div class=""stimulus-container"">
                    <img src=""images/semantic_sequence/self_care_activities_semantic/self_care_activities_semantic_7.png"" class=""exp-image"">
                    <div class=""question-area""></div> 
                </div>","null","","","","","","","","",""
"","","","","","html-button-response","135","2024212","0.0-135.0","2B3234EB99B442E29C1E1FB9B926460F","019cf794-0c9f-760a-bbfc-414a6bf61b29","019cf78c-cfcf-769c-9016-9b96552b5e33","","1488","
                <div class=""stimulus-container"">
                    <img src=""images/semantic_sequence/self_care_activities_semantic/self_care_activities_semantic_7.png"" class=""exp-image"">
                    <div class=""question-area"">
                        <p style=""font-size: 20px; font-weight: bold; margin: 0;"">Is there a person in this image?</p>
                    </div>
                </div>","0","main_experiment_trial","7","self_care_activities_semantic","semantic_sequence","","","","",""
"","","","","","html-keyboard-response","136","2029214","0.0-136.0","2B3234EB99B442E29C1E1FB9B926460F","019cf794-0c9f-760a-bbfc-414a6bf61b29","019cf78c-cfcf-769c-9016-9b96552b5e33","","null","
                <div class=""stimulus-container"">
                    <img src=""images/semantic_sequence/self_care_activities_semantic/self_care_activities_semantic_8.png"" class=""exp-image"">
                    <div class=""question-area""></div> 
                </div>","null","","","","","","","","",""
"","","","","","html-button-response","137","2030571","0.0-137.0","2B3234EB99B442E29C1E1FB9B926460F","019cf794-0c9f-760a-bbfc-414a6bf61b29","019cf78c-cfcf-769c-9016-9b96552b5e33","","1357","
                <div class=""stimulus-container"">
                    <img src=""images/semantic_sequence/self_care_activities_semantic/self_care_activities_semantic_8.png"" class=""exp-image"">
                    <div class=""question-area"">
                        <p style=""font-size: 20px; font-weight: bold; margin: 0;"">Is there a person in this image?</p>
                    </div>
                </div>","0","main_experiment_trial","8","self_care_activities_semantic","semantic_sequence","","","","",""
"","","","","","html-keyboard-response","138","2035586","0.0-138.0","2B3234EB99B442E29C1E1FB9B926460F","019cf794-0c9f-760a-bbfc-414a6bf61b29","019cf78c-cfcf-769c-9016-9b96552b5e33","","null","
                <div class=""stimulus-container"">
                    <img src=""images/semantic_sequence/self_care_activities_semantic/self_care_activities_semantic_9.png"" class=""exp-image"">
                    <div class=""question-area""></div> 
                </div>","null","","","","","","","","",""
"","","","","","html-button-response","139","2036900","0.0-139.0","2B3234EB99B442E29C1E1FB9B926460F","019cf794-0c9f-760a-bbfc-414a6bf61b29","019cf78c-cfcf-769c-9016-9b96552b5e33","","1314","
                <div class=""stimulus-container"">
                    <img src=""images/semantic_sequence/self_care_activities_semantic/self_care_activities_semantic_9.png"" class=""exp-image"">
                    <div class=""question-area"">
                        <p style=""font-size: 20px; font-weight: bold; margin: 0;"">Is there a person in this image?</p>
                    </div>
                </div>","0","main_experiment_trial","9","self_care_activities_semantic","semantic_sequence","","","","",""
"","","","","","html-keyboard-response","140","2041901","0.0-140.0","2B3234EB99B442E29C1E1FB9B926460F","019cf794-0c9f-760a-bbfc-414a6bf61b29","019cf78c-cfcf-769c-9016-9b96552b5e33","","null","
                <div class=""stimulus-container"">
                    <img src=""images/semantic_sequence/self_care_activities_semantic/self_care_activities_semantic_ten.png"" class=""exp-image"">
                    <div class=""question-area""></div> 
                </div>","null","","","","","","","","",""
"","","","","","html-button-response","141","2043134","0.0-141.0","2B3234EB99B442E29C1E1FB9B926460F","019cf794-0c9f-760a-bbfc-414a6bf61b29","019cf78c-cfcf-769c-9016-9b96552b5e33","","1233","
                <div class=""stimulus-container"">
                    <img src=""images/semantic_sequence/self_care_activities_semantic/self_care_activities_semantic_ten.png"" class=""exp-image"">
                    <div class=""question-area"">
                        <p style=""font-size: 20px; font-weight: bold; margin: 0;"">Is there a person in this image?</p>
                    </div>
                </div>","0","main_experiment_trial","ten","self_care_activities_semantic","semantic_sequence","","","","",""
"","","","","","html-keyboard-response","142","2044147","0.0-142.0","2B3234EB99B442E29C1E1FB9B926460F","019cf794-0c9f-760a-bbfc-414a6bf61b29","019cf78c-cfcf-769c-9016-9b96552b5e33","","null","<div style=""background-color: white; width: 100vw; height: 100vh;""></div>","null","","","","","","","","",""
"","","","","","html-keyboard-response","143","2049149","0.0-143.0","2B3234EB99B442E29C1E1FB9B926460F","019cf794-0c9f-760a-bbfc-414a6bf61b29","019cf78c-cfcf-769c-9016-9b96552b5e33","","null","
                <div class=""stimulus-container"">
                    <img src=""images/schematic_sequence/flight_scheme/flight_scheme_1.png"" class=""exp-image"">
                    <div class=""question-area""></div> 
                </div>","null","","","","","","","","",""
"","","","","","html-button-response","144","2050692","0.0-144.0","2B3234EB99B442E29C1E1FB9B926460F","019cf794-0c9f-760a-bbfc-414a6bf61b29","019cf78c-cfcf-769c-9016-9b96552b5e33","","1543","
                <div class=""stimulus-container"">
                    <img src=""images/schematic_sequence/flight_scheme/flight_scheme_1.png"" class=""exp-image"">
                    <div class=""question-area"">
                        <p style=""font-size: 20px; font-weight: bold; margin: 0;"">Is there a person in this image?</p>
                    </div>
                </div>","0","main_experiment_trial","1","flight_scheme","schematic_sequence","","","","",""
"","","","","","html-keyboard-response","145","2055693","0.0-145.0","2B3234EB99B442E29C1E1FB9B926460F","019cf794-0c9f-760a-bbfc-414a6bf61b29","019cf78c-cfcf-769c-9016-9b96552b5e33","","null","
                <div class=""stimulus-container"">
                    <img src=""images/schematic_sequence/flight_scheme/flight_scheme_2.png"" class=""exp-image"">
                    <div class=""question-area""></div> 
                </div>","null","","","","","","","","",""
"","","","","","html-button-response","146","2056980","0.0-146.0","2B3234EB99B442E29C1E1FB9B926460F","019cf794-0c9f-760a-bbfc-414a6bf61b29","019cf78c-cfcf-769c-9016-9b96552b5e33","","1286","
                <div class=""stimulus-container"">
                    <img src=""images/schematic_sequence/flight_scheme/flight_scheme_2.png"" class=""exp-image"">
                    <div class=""question-area"">
                        <p style=""font-size: 20px; font-weight: bold; margin: 0;"">Is there a person in this image?</p>
                    </div>
                </div>","0","main_experiment_trial","2","flight_scheme","schematic_sequence","","","","",""
"","","","","","html-keyboard-response","147","2061985","0.0-147.0","2B3234EB99B442E29C1E1FB9B926460F","019cf794-0c9f-760a-bbfc-414a6bf61b29","019cf78c-cfcf-769c-9016-9b96552b5e33","","null","
                <div class=""stimulus-container"">
                    <img src=""images/schematic_sequence/flight_scheme/flight_scheme_3.png"" class=""exp-image"">
                    <div class=""question-area""></div> 
                </div>","null","","","","","","","","",""
"","","","","","html-button-response","148","2064389","0.0-148.0","2B3234EB99B442E29C1E1FB9B926460F","019cf794-0c9f-760a-bbfc-414a6bf61b29","019cf78c-cfcf-769c-9016-9b96552b5e33","","2404","
                <div class=""stimulus-container"">
                    <img src=""images/schematic_sequence/flight_scheme/flight_scheme_3.png"" class=""exp-image"">
                    <div class=""question-area"">
                        <p style=""font-size: 20px; font-weight: bold; margin: 0;"">Is there a person in this image?</p>
                    </div>
                </div>","0","main_experiment_trial","3","flight_scheme","schematic_sequence","","","","",""
"","","","","","html-keyboard-response","149","2069397","0.0-149.0","2B3234EB99B442E29C1E1FB9B926460F","019cf794-0c9f-760a-bbfc-414a6bf61b29","019cf78c-cfcf-769c-9016-9b96552b5e33","","null","
                <div class=""stimulus-container"">
                    <img src=""images/schematic_sequence/flight_scheme/flight_scheme_4.png"" class=""exp-image"">
                    <div class=""question-area""></div> 
                </div>","null","","","","","","","","",""
"","","","","","html-button-response","150","2072403","0.0-150.0","2B3234EB99B442E29C1E1FB9B926460F","019cf794-0c9f-760a-bbfc-414a6bf61b29","019cf78c-cfcf-769c-9016-9b96552b5e33","","null","
                <div class=""stimulus-container"">
                    <img src=""images/schematic_sequence/flight_scheme/flight_scheme_4.png"" class=""exp-image"">
                    <div class=""question-area"">
                        <p style=""font-size: 20px; font-weight: bold; margin: 0;"">Is there a person in this image?</p>
                    </div>
                </div>","null","main_experiment_trial","4","flight_scheme","schematic_sequence","","","","",""
"","","","","","html-keyboard-response","151","2077408","0.0-151.0","2B3234EB99B442E29C1E1FB9B926460F","019cf794-0c9f-760a-bbfc-414a6bf61b29","019cf78c-cfcf-769c-9016-9b96552b5e33","","null","
                <div class=""stimulus-container"">
                    <img src=""images/schematic_sequence/flight_scheme/flight_scheme_5.png"" class=""exp-image"">
                    <div class=""question-area""></div> 
                </div>","null","","","","","","","","",""
"","","","","","html-button-response","152","2080346","0.0-152.0","2B3234EB99B442E29C1E1FB9B926460F","019cf794-0c9f-760a-bbfc-414a6bf61b29","019cf78c-cfcf-769c-9016-9b96552b5e33","","2937","
                <div class=""stimulus-container"">
                    <img src=""images/schematic_sequence/flight_scheme/flight_scheme_5.png"" class=""exp-image"">
                    <div class=""question-area"">
                        <p style=""font-size: 20px; font-weight: bold; margin: 0;"">Is there a person in this image?</p>
                    </div>
                </div>","0","main_experiment_trial","5","flight_scheme","schematic_sequence","","","","",""
"","","","","","html-keyboard-response","153","2085347","0.0-153.0","2B3234EB99B442E29C1E1FB9B926460F","019cf794-0c9f-760a-bbfc-414a6bf61b29","019cf78c-cfcf-769c-9016-9b96552b5e33","","null","
                <div class=""stimulus-container"">
                    <img src=""images/schematic_sequence/flight_scheme/flight_scheme_6.png"" class=""exp-image"">
                    <div class=""question-area""></div> 
                </div>","null","","","","","","","","",""
"","","","","","html-button-response","154","2088171","0.0-154.0","2B3234EB99B442E29C1E1FB9B926460F","019cf794-0c9f-760a-bbfc-414a6bf61b29","019cf78c-cfcf-769c-9016-9b96552b5e33","","2823","
                <div class=""stimulus-container"">
                    <img src=""images/schematic_sequence/flight_scheme/flight_scheme_6.png"" class=""exp-image"">
                    <div class=""question-area"">
                        <p style=""font-size: 20px; font-weight: bold; margin: 0;"">Is there a person in this image?</p>
                    </div>
                </div>","0","main_experiment_trial","6","flight_scheme","schematic_sequence","","","","",""
"","","","","","html-keyboard-response","155","2093175","0.0-155.0","2B3234EB99B442E29C1E1FB9B926460F","019cf794-0c9f-760a-bbfc-414a6bf61b29","019cf78c-cfcf-769c-9016-9b96552b5e33","","null","
                <div class=""stimulus-container"">
                    <img src=""images/schematic_sequence/flight_scheme/flight_scheme_7.png"" class=""exp-image"">
                    <div class=""question-area""></div> 
                </div>","null","","","","","","","","",""
"","","","","","html-button-response","156","2094683","0.0-156.0","2B3234EB99B442E29C1E1FB9B926460F","019cf794-0c9f-760a-bbfc-414a6bf61b29","019cf78c-cfcf-769c-9016-9b96552b5e33","","1508","
                <div class=""stimulus-container"">
                    <img src=""images/schematic_sequence/flight_scheme/flight_scheme_7.png"" class=""exp-image"">
                    <div class=""question-area"">
                        <p style=""font-size: 20px; font-weight: bold; margin: 0;"">Is there a person in this image?</p>
                    </div>
                </div>","0","main_experiment_trial","7","flight_scheme","schematic_sequence","","","","",""
"","","","","","html-keyboard-response","157","2099685","0.0-157.0","2B3234EB99B442E29C1E1FB9B926460F","019cf794-0c9f-760a-bbfc-414a6bf61b29","019cf78c-cfcf-769c-9016-9b96552b5e33","","null","
                <div class=""stimulus-container"">
                    <img src=""images/schematic_sequence/flight_scheme/flight_scheme_8.png"" class=""exp-image"">
                    <div class=""question-area""></div> 
                </div>","null","","","","","","","","",""
"","","","","","html-button-response","158","2101292","0.0-158.0","2B3234EB99B442E29C1E1FB9B926460F","019cf794-0c9f-760a-bbfc-414a6bf61b29","019cf78c-cfcf-769c-9016-9b96552b5e33","","1606","
                <div class=""stimulus-container"">
                    <img src=""images/schematic_sequence/flight_scheme/flight_scheme_8.png"" class=""exp-image"">
                    <div class=""question-area"">
                        <p style=""font-size: 20px; font-weight: bold; margin: 0;"">Is there a person in this image?</p>
                    </div>
                </div>","0","main_experiment_trial","8","flight_scheme","schematic_sequence","","","","",""
"","","","","","html-keyboard-response","159","2106294","0.0-159.0","2B3234EB99B442E29C1E1FB9B926460F","019cf794-0c9f-760a-bbfc-414a6bf61b29","019cf78c-cfcf-769c-9016-9b96552b5e33","","null","
                <div class=""stimulus-container"">
                    <img src=""images/schematic_sequence/flight_scheme/flight_scheme_9.png"" class=""exp-image"">
                    <div class=""question-area""></div> 
                </div>","null","","","","","","","","",""
"","","","","","html-button-response","160","2107596","0.0-160.0","2B3234EB99B442E29C1E1FB9B926460F","019cf794-0c9f-760a-bbfc-414a6bf61b29","019cf78c-cfcf-769c-9016-9b96552b5e33","","1302","
                <div class=""stimulus-container"">
                    <img src=""images/schematic_sequence/flight_scheme/flight_scheme_9.png"" class=""exp-image"">
                    <div class=""question-area"">
                        <p style=""font-size: 20px; font-weight: bold; margin: 0;"">Is there a person in this image?</p>
                    </div>
                </div>","0","main_experiment_trial","9","flight_scheme","schematic_sequence","","","","",""
"","","","","","html-keyboard-response","161","2112613","0.0-161.0","2B3234EB99B442E29C1E1FB9B926460F","019cf794-0c9f-760a-bbfc-414a6bf61b29","019cf78c-cfcf-769c-9016-9b96552b5e33","","null","
                <div class=""stimulus-container"">
                    <img src=""images/schematic_sequence/flight_scheme/flight_scheme_ten.png"" class=""exp-image"">
                    <div class=""question-area""></div> 
                </div>","null","","","","","","","","",""
"","","","","","html-button-response","162","2113948","0.0-162.0","2B3234EB99B442E29C1E1FB9B926460F","019cf794-0c9f-760a-bbfc-414a6bf61b29","019cf78c-cfcf-769c-9016-9b96552b5e33","","1334","
                <div class=""stimulus-container"">
                    <img src=""images/schematic_sequence/flight_scheme/flight_scheme_ten.png"" class=""exp-image"">
                    <div class=""question-area"">
                        <p style=""font-size: 20px; font-weight: bold; margin: 0;"">Is there a person in this image?</p>
                    </div>
                </div>","0","main_experiment_trial","ten","flight_scheme","schematic_sequence","","","","",""
"","","","","","html-keyboard-response","163","2114958","0.0-163.0","2B3234EB99B442E29C1E1FB9B926460F","019cf794-0c9f-760a-bbfc-414a6bf61b29","019cf78c-cfcf-769c-9016-9b96552b5e33","","null","<div style=""background-color: white; width: 100vw; height: 100vh;""></div>","null","","","","","","","","",""
"","","","","","html-keyboard-response","164","2119980","0.0-164.0","2B3234EB99B442E29C1E1FB9B926460F","019cf794-0c9f-760a-bbfc-414a6bf61b29","019cf78c-cfcf-769c-9016-9b96552b5e33","","null","
                <div class=""stimulus-container"">
                    <img src=""images/semantic_sequence/kitchen_operations_semantic/kitchen_operations_semantic_1.png"" class=""exp-image"">
                    <div class=""question-area""></div> 
                </div>","null","","","","","","","","",""
"","","","","","html-button-response","165","2121107","0.0-165.0","2B3234EB99B442E29C1E1FB9B926460F","019cf794-0c9f-760a-bbfc-414a6bf61b29","019cf78c-cfcf-769c-9016-9b96552b5e33","","1127","
                <div class=""stimulus-container"">
                    <img src=""images/semantic_sequence/kitchen_operations_semantic/kitchen_operations_semantic_1.png"" class=""exp-image"">
                    <div class=""question-area"">
                        <p style=""font-size: 20px; font-weight: bold; margin: 0;"">Is there a person in this image?</p>
                    </div>
                </div>","0","main_experiment_trial","1","kitchen_operations_semantic","semantic_sequence","","","","",""
"","","","","","html-keyboard-response","166","2126108","0.0-166.0","2B3234EB99B442E29C1E1FB9B926460F","019cf794-0c9f-760a-bbfc-414a6bf61b29","019cf78c-cfcf-769c-9016-9b96552b5e33","","null","
                <div class=""stimulus-container"">
                    <img src=""images/semantic_sequence/kitchen_operations_semantic/kitchen_operations_semantic_2.png"" class=""exp-image"">
                    <div class=""question-area""></div> 
                </div>","null","","","","","","","","",""
"","","","","","html-button-response","167","2127083","0.0-167.0","2B3234EB99B442E29C1E1FB9B926460F","019cf794-0c9f-760a-bbfc-414a6bf61b29","019cf78c-cfcf-769c-9016-9b96552b5e33","","974","
                <div class=""stimulus-container"">
                    <img src=""images/semantic_sequence/kitchen_operations_semantic/kitchen_operations_semantic_2.png"" class=""exp-image"">
                    <div class=""question-area"">
                        <p style=""font-size: 20px; font-weight: bold; margin: 0;"">Is there a person in this image?</p>
                    </div>
                </div>","0","main_experiment_trial","2","kitchen_operations_semantic","semantic_sequence","","","","",""
"","","","","","html-keyboard-response","168","2132088","0.0-168.0","2B3234EB99B442E29C1E1FB9B926460F","019cf794-0c9f-760a-bbfc-414a6bf61b29","019cf78c-cfcf-769c-9016-9b96552b5e33","","null","
                <div class=""stimulus-container"">
                    <img src=""images/semantic_sequence/kitchen_operations_semantic/kitchen_operations_semantic_3.png"" class=""exp-image"">
                    <div class=""question-area""></div> 
                </div>","null","","","","","","","","",""
"","","","","","html-button-response","169","2133124","0.0-169.0","2B3234EB99B442E29C1E1FB9B926460F","019cf794-0c9f-760a-bbfc-414a6bf61b29","019cf78c-cfcf-769c-9016-9b96552b5e33","","1035","
                <div class=""stimulus-container"">
                    <img src=""images/semantic_sequence/kitchen_operations_semantic/kitchen_operations_semantic_3.png"" class=""exp-image"">
                    <div class=""question-area"">
                        <p style=""font-size: 20px; font-weight: bold; margin: 0;"">Is there a person in this image?</p>
                    </div>
                </div>","0","main_experiment_trial","3","kitchen_operations_semantic","semantic_sequence","","","","",""
"","","","","","html-keyboard-response","170","2138132","0.0-170.0","2B3234EB99B442E29C1E1FB9B926460F","019cf794-0c9f-760a-bbfc-414a6bf61b29","019cf78c-cfcf-769c-9016-9b96552b5e33","","null","
                <div class=""stimulus-container"">
                    <img src=""images/semantic_sequence/kitchen_operations_semantic/kitchen_operations_semantic_4.png"" class=""exp-image"">
                    <div class=""question-area""></div> 
                </div>","null","","","","","","","","",""
"","","","","","html-button-response","171","2139195","0.0-171.0","2B3234EB99B442E29C1E1FB9B926460F","019cf794-0c9f-760a-bbfc-414a6bf61b29","019cf78c-cfcf-769c-9016-9b96552b5e33","","1062","
                <div class=""stimulus-container"">
                    <img src=""images/semantic_sequence/kitchen_operations_semantic/kitchen_operations_semantic_4.png"" class=""exp-image"">
                    <div class=""question-area"">
                        <p style=""font-size: 20px; font-weight: bold; margin: 0;"">Is there a person in this image?</p>
                    </div>
                </div>","0","main_experiment_trial","4","kitchen_operations_semantic","semantic_sequence","","","","",""
"","","","","","html-keyboard-response","172","2144209","0.0-172.0","2B3234EB99B442E29C1E1FB9B926460F","019cf794-0c9f-760a-bbfc-414a6bf61b29","019cf78c-cfcf-769c-9016-9b96552b5e33","","null","
                <div class=""stimulus-container"">
                    <img src=""images/semantic_sequence/kitchen_operations_semantic/kitchen_operations_semantic_5.png"" class=""exp-image"">
                    <div class=""question-area""></div> 
                </div>","null","","","","","","","","",""
"","","","","","html-button-response","173","2145554","0.0-173.0","2B3234EB99B442E29C1E1FB9B926460F","019cf794-0c9f-760a-bbfc-414a6bf61b29","019cf78c-cfcf-769c-9016-9b96552b5e33","","1345","
                <div class=""stimulus-container"">
                    <img src=""images/semantic_sequence/kitchen_operations_semantic/kitchen_operations_semantic_5.png"" class=""exp-image"">
                    <div class=""question-area"">
                        <p style=""font-size: 20px; font-weight: bold; margin: 0;"">Is there a person in this image?</p>
                    </div>
                </div>","0","main_experiment_trial","5","kitchen_operations_semantic","semantic_sequence","","","","",""
"","","","","","html-keyboard-response","174","2150555","0.0-174.0","2B3234EB99B442E29C1E1FB9B926460F","019cf794-0c9f-760a-bbfc-414a6bf61b29","019cf78c-cfcf-769c-9016-9b96552b5e33","","null","
                <div class=""stimulus-container"">
                    <img src=""images/semantic_sequence/kitchen_operations_semantic/kitchen_operations_semantic_6.png"" class=""exp-image"">
                    <div class=""question-area""></div> 
                </div>","null","","","","","","","","",""
"","","","","","html-button-response","175","2151522","0.0-175.0","2B3234EB99B442E29C1E1FB9B926460F","019cf794-0c9f-760a-bbfc-414a6bf61b29","019cf78c-cfcf-769c-9016-9b96552b5e33","","967","
                <div class=""stimulus-container"">
                    <img src=""images/semantic_sequence/kitchen_operations_semantic/kitchen_operations_semantic_6.png"" class=""exp-image"">
                    <div class=""question-area"">
                        <p style=""font-size: 20px; font-weight: bold; margin: 0;"">Is there a person in this image?</p>
                    </div>
                </div>","0","main_experiment_trial","6","kitchen_operations_semantic","semantic_sequence","","","","",""
"","","","","","html-keyboard-response","176","2156536","0.0-176.0","2B3234EB99B442E29C1E1FB9B926460F","019cf794-0c9f-760a-bbfc-414a6bf61b29","019cf78c-cfcf-769c-9016-9b96552b5e33","","null","
                <div class=""stimulus-container"">
                    <img src=""images/semantic_sequence/kitchen_operations_semantic/kitchen_operations_semantic_7.png"" class=""exp-image"">
                    <div class=""question-area""></div> 
                </div>","null","","","","","","","","",""
"","","","","","html-button-response","177","2157539","0.0-177.0","2B3234EB99B442E29C1E1FB9B926460F","019cf794-0c9f-760a-bbfc-414a6bf61b29","019cf78c-cfcf-769c-9016-9b96552b5e33","","1003","
                <div class=""stimulus-container"">
                    <img src=""images/semantic_sequence/kitchen_operations_semantic/kitchen_operations_semantic_7.png"" class=""exp-image"">
                    <div class=""question-area"">
                        <p style=""font-size: 20px; font-weight: bold; margin: 0;"">Is there a person in this image?</p>
                    </div>
                </div>","0","main_experiment_trial","7","kitchen_operations_semantic","semantic_sequence","","","","",""
