"success","timeout","failed_images","failed_audio","failed_video","trial_type","trial_index","time_elapsed","internal_node_id","subject_id","study_id","session_id","view_history","rt","stimulus","response","task","image_index","folder","valuable_image_index","reward_type","valuable_X","chosen_image_index","distance_from_X"
"false","false","[]","[]","[]","preload","0","2771","0.0-0.0","B5E98DF9E03740D3A73454C0E2FD1A6F","019ce87d-7b70-7b50-a64d-3cada31c2f0b","019ce875-66c2-7f0b-b5e8-086c75889f84","","","","","","","","","","","",""
"","","","","","instructions","1","4063","0.0-1.0","B5E98DF9E03740D3A73454C0E2FD1A6F","019ce87d-7b70-7b50-a64d-3cada31c2f0b","019ce875-66c2-7f0b-b5e8-086c75889f84","[{""page_index"":0,""viewing_time"":1290}]","1291","","","","","","","","","",""
"","","","","","instructions","2","6313","0.0-2.0","B5E98DF9E03740D3A73454C0E2FD1A6F","019ce87d-7b70-7b50-a64d-3cada31c2f0b","019ce875-66c2-7f0b-b5e8-086c75889f84","[{""page_index"":0,""viewing_time"":2249}]","2249","","","","","","","","","",""
"true","","","","","fullscreen","3","8247","0.0-3.0","B5E98DF9E03740D3A73454C0E2FD1A6F","019ce87d-7b70-7b50-a64d-3cada31c2f0b","019ce875-66c2-7f0b-b5e8-086c75889f84","","930","","","","","","","","","",""
"","","","","","instructions","4","9530","0.0-4.0","B5E98DF9E03740D3A73454C0E2FD1A6F","019ce87d-7b70-7b50-a64d-3cada31c2f0b","019ce875-66c2-7f0b-b5e8-086c75889f84","[{""page_index"":0,""viewing_time"":1282}]","1282","","","","","","","","","",""
"","","","","","instructions","5","10546","0.0-5.0","B5E98DF9E03740D3A73454C0E2FD1A6F","019ce87d-7b70-7b50-a64d-3cada31c2f0b","019ce875-66c2-7f0b-b5e8-086c75889f84","[{""page_index"":0,""viewing_time"":1015}]","1015","","","","","","","","","",""
"","","","","","html-keyboard-response","6","14549","0.0-6.0","B5E98DF9E03740D3A73454C0E2FD1A6F","019ce87d-7b70-7b50-a64d-3cada31c2f0b","019ce875-66c2-7f0b-b5e8-086c75889f84","","null","
                <div class=""stimulus-container"">
                    <img src=""images/instructions/movie_1.png"" class=""exp-image"">
                    <div class=""question-area""></div> 
                </div>","null","","","","","","","",""
"","","","","","html-button-response","7","17554","0.0-7.0","B5E98DF9E03740D3A73454C0E2FD1A6F","019ce87d-7b70-7b50-a64d-3cada31c2f0b","019ce875-66c2-7f0b-b5e8-086c75889f84","","null","
                <div class=""stimulus-container"">
                    <img src=""images/instructions/movie_1.png"" class=""exp-image"">
                    <div class=""question-area"">
                        <p style=""font-size: 20px; font-weight: bold; margin: 0;"">Was there a person in this image?</p>
                    </div>
                </div>","null","example_question","1","","","","","",""
"","","","","","html-keyboard-response","8","21557","0.0-8.0","B5E98DF9E03740D3A73454C0E2FD1A6F","019ce87d-7b70-7b50-a64d-3cada31c2f0b","019ce875-66c2-7f0b-b5e8-086c75889f84","","null","
                <div class=""stimulus-container"">
                    <img src=""images/instructions/movie_2.png"" class=""exp-image"">
                    <div class=""question-area""></div> 
                </div>","null","","","","","","","",""
"","","","","","html-button-response","9","24560","0.0-9.0","B5E98DF9E03740D3A73454C0E2FD1A6F","019ce87d-7b70-7b50-a64d-3cada31c2f0b","019ce875-66c2-7f0b-b5e8-086c75889f84","","null","
                <div class=""stimulus-container"">
                    <img src=""images/instructions/movie_2.png"" class=""exp-image"">
                    <div class=""question-area"">
                        <p style=""font-size: 20px; font-weight: bold; margin: 0;"">Was there a person in this image?</p>
                    </div>
                </div>","null","example_question","2","","","","","",""
"","","","","","html-keyboard-response","10","28563","0.0-10.0","B5E98DF9E03740D3A73454C0E2FD1A6F","019ce87d-7b70-7b50-a64d-3cada31c2f0b","019ce875-66c2-7f0b-b5e8-086c75889f84","","null","
                <div class=""stimulus-container"">
                    <img src=""images/instructions/movie_3.png"" class=""exp-image"">
                    <div class=""question-area""></div> 
                </div>","null","","","","","","","",""
"","","","","","html-button-response","11","29730","0.0-11.0","B5E98DF9E03740D3A73454C0E2FD1A6F","019ce87d-7b70-7b50-a64d-3cada31c2f0b","019ce875-66c2-7f0b-b5e8-086c75889f84","","1166","
                <div class=""stimulus-container"">
                    <img src=""images/instructions/movie_3.png"" class=""exp-image"">
                    <div class=""question-area"">
                        <p style=""font-size: 20px; font-weight: bold; margin: 0;"">Was there a person in this image?</p>
                    </div>
                </div>","0","example_question","3","","","","","",""
"","","","","","html-keyboard-response","12","33733","0.0-12.0","B5E98DF9E03740D3A73454C0E2FD1A6F","019ce87d-7b70-7b50-a64d-3cada31c2f0b","019ce875-66c2-7f0b-b5e8-086c75889f84","","null","
                <div class=""stimulus-container"">
                    <img src=""images/instructions/movie_4.png"" class=""exp-image"">
                    <div class=""question-area""></div> 
                </div>","null","","","","","","","",""
"","","","","","html-button-response","13","34480","0.0-13.0","B5E98DF9E03740D3A73454C0E2FD1A6F","019ce87d-7b70-7b50-a64d-3cada31c2f0b","019ce875-66c2-7f0b-b5e8-086c75889f84","","745","
                <div class=""stimulus-container"">
                    <img src=""images/instructions/movie_4.png"" class=""exp-image"">
                    <div class=""question-area"">
                        <p style=""font-size: 20px; font-weight: bold; margin: 0;"">Was there a person in this image?</p>
                    </div>
                </div>","0","example_question","4","","","","","",""
"","","","","","instructions","14","36462","0.0-14.0","B5E98DF9E03740D3A73454C0E2FD1A6F","019ce87d-7b70-7b50-a64d-3cada31c2f0b","019ce875-66c2-7f0b-b5e8-086c75889f84","[{""page_index"":0,""viewing_time"":1981}]","1981","","","","","","","","","",""
"","","","","","html-keyboard-response","15","37464","0.0-15.0","B5E98DF9E03740D3A73454C0E2FD1A6F","019ce87d-7b70-7b50-a64d-3cada31c2f0b","019ce875-66c2-7f0b-b5e8-086c75889f84","","null","<div style=""background-color: gray; width: 100vw; height: 100vh;""></div>","null","","","","","","","",""
"","","","","","html-keyboard-response","16","42466","0.0-16.0","B5E98DF9E03740D3A73454C0E2FD1A6F","019ce87d-7b70-7b50-a64d-3cada31c2f0b","019ce875-66c2-7f0b-b5e8-086c75889f84","","null","
                    <div class=""stimulus-container"">
                        <img src=""images/causal_sequence/package_causal/package_causal_1.png"" class=""exp-image"">
                        <div class=""question-area""></div> 
                    </div>","null","","","","","","","",""
"","","","","","html-button-response","17","43579","0.0-17.0","B5E98DF9E03740D3A73454C0E2FD1A6F","019ce87d-7b70-7b50-a64d-3cada31c2f0b","019ce875-66c2-7f0b-b5e8-086c75889f84","","1111","
                    <div class=""stimulus-container"">
                        <img src=""images/causal_sequence/package_causal/package_causal_1.png"" class=""exp-image"">
                        <div class=""question-area"">
                            <p style=""font-size: 20px; font-weight: bold; margin: 0;"">Is there a person in this image?</p>
                        </div>
                    </div>","0","main_causal_task","1","package_causal","","","","",""
"","","","","","html-keyboard-response","18","48581","0.0-18.0","B5E98DF9E03740D3A73454C0E2FD1A6F","019ce87d-7b70-7b50-a64d-3cada31c2f0b","019ce875-66c2-7f0b-b5e8-086c75889f84","","null","
                    <div class=""stimulus-container"">
                        <img src=""images/causal_sequence/package_causal/package_causal_2.png"" class=""exp-image"">
                        <div class=""question-area""></div> 
                    </div>","null","","","","","","","",""
"","","","","","html-button-response","19","48996","0.0-19.0","B5E98DF9E03740D3A73454C0E2FD1A6F","019ce87d-7b70-7b50-a64d-3cada31c2f0b","019ce875-66c2-7f0b-b5e8-086c75889f84","","414","
                    <div class=""stimulus-container"">
                        <img src=""images/causal_sequence/package_causal/package_causal_2.png"" class=""exp-image"">
                        <div class=""question-area"">
                            <p style=""font-size: 20px; font-weight: bold; margin: 0;"">Is there a person in this image?</p>
                        </div>
                    </div>","0","main_causal_task","2","package_causal","","","","",""
"","","","","","html-keyboard-response","20","53998","0.0-20.0","B5E98DF9E03740D3A73454C0E2FD1A6F","019ce87d-7b70-7b50-a64d-3cada31c2f0b","019ce875-66c2-7f0b-b5e8-086c75889f84","","null","
                    <div class=""stimulus-container"">
                        <img src=""images/causal_sequence/package_causal/package_causal_3.png"" class=""exp-image"">
                        <div class=""question-area""></div> 
                    </div>","null","","","","","","","",""
"","","","","","html-button-response","21","54480","0.0-21.0","B5E98DF9E03740D3A73454C0E2FD1A6F","019ce87d-7b70-7b50-a64d-3cada31c2f0b","019ce875-66c2-7f0b-b5e8-086c75889f84","","480","
                    <div class=""stimulus-container"">
                        <img src=""images/causal_sequence/package_causal/package_causal_3.png"" class=""exp-image"">
                        <div class=""question-area"">
                            <p style=""font-size: 20px; font-weight: bold; margin: 0;"">Is there a person in this image?</p>
                        </div>
                    </div>","0","main_causal_task","3","package_causal","","","","",""
"","","","","","html-keyboard-response","22","59481","0.0-22.0","B5E98DF9E03740D3A73454C0E2FD1A6F","019ce87d-7b70-7b50-a64d-3cada31c2f0b","019ce875-66c2-7f0b-b5e8-086c75889f84","","null","
                    <div class=""stimulus-container"">
                        <img src=""images/causal_sequence/package_causal/package_causal_4.png"" class=""exp-image"">
                        <div class=""question-area""></div> 
                    </div>","null","","","","","","","",""
"","","","","","html-button-response","23","60811","0.0-23.0","B5E98DF9E03740D3A73454C0E2FD1A6F","019ce87d-7b70-7b50-a64d-3cada31c2f0b","019ce875-66c2-7f0b-b5e8-086c75889f84","","1328","
                    <div class=""stimulus-container"">
                        <img src=""images/causal_sequence/package_causal/package_causal_4.png"" class=""exp-image"">
                        <div class=""question-area"">
                            <p style=""font-size: 20px; font-weight: bold; margin: 0;"">Is there a person in this image?</p>
                        </div>
                    </div>","1","main_causal_task","4","package_causal","","","","",""
"","","","","","html-keyboard-response","24","65814","0.0-24.0","B5E98DF9E03740D3A73454C0E2FD1A6F","019ce87d-7b70-7b50-a64d-3cada31c2f0b","019ce875-66c2-7f0b-b5e8-086c75889f84","","null","
                    <div class=""stimulus-container"">
                        <img src=""images/causal_sequence/package_causal/package_causal_5.png"" class=""exp-image"">
                        <div class=""question-area""></div> 
                    </div>","null","","","","","","","",""
"","","","","","html-button-response","25","66428","0.0-25.0","B5E98DF9E03740D3A73454C0E2FD1A6F","019ce87d-7b70-7b50-a64d-3cada31c2f0b","019ce875-66c2-7f0b-b5e8-086c75889f84","","613","
                    <div class=""stimulus-container"">
                        <img src=""images/causal_sequence/package_causal/package_causal_5.png"" class=""exp-image"">
                        <div class=""question-area"">
                            <p style=""font-size: 20px; font-weight: bold; margin: 0;"">Is there a person in this image?</p>
                        </div>
                    </div>","0","main_causal_task","5","package_causal","","","","",""
"","","","","","html-keyboard-response","26","71431","0.0-26.0","B5E98DF9E03740D3A73454C0E2FD1A6F","019ce87d-7b70-7b50-a64d-3cada31c2f0b","019ce875-66c2-7f0b-b5e8-086c75889f84","","null","
                    <div class=""stimulus-container"">
                        <img src=""images/causal_sequence/package_causal/package_causal_6.png"" class=""exp-image"">
                        <div class=""question-area""></div> 
                    </div>","null","","","","","","","",""
"","","","","","html-button-response","27","72029","0.0-27.0","B5E98DF9E03740D3A73454C0E2FD1A6F","019ce87d-7b70-7b50-a64d-3cada31c2f0b","019ce875-66c2-7f0b-b5e8-086c75889f84","","597","
                    <div class=""stimulus-container"">
                        <img src=""images/causal_sequence/package_causal/package_causal_6.png"" class=""exp-image"">
                        <div class=""question-area"">
                            <p style=""font-size: 20px; font-weight: bold; margin: 0;"">Is there a person in this image?</p>
                        </div>
                    </div>","0","main_causal_task","6","package_causal","","","","",""
"","","","","","html-keyboard-response","28","77032","0.0-28.0","B5E98DF9E03740D3A73454C0E2FD1A6F","019ce87d-7b70-7b50-a64d-3cada31c2f0b","019ce875-66c2-7f0b-b5e8-086c75889f84","","null","
                    <div class=""stimulus-container"">
                        <img src=""images/causal_sequence/package_causal/package_causal_7.png"" class=""exp-image"">
                        <div class=""question-area""></div> 
                    </div>","null","","","","","","","",""
"","","","","","html-button-response","29","77529","0.0-29.0","B5E98DF9E03740D3A73454C0E2FD1A6F","019ce87d-7b70-7b50-a64d-3cada31c2f0b","019ce875-66c2-7f0b-b5e8-086c75889f84","","495","
                    <div class=""stimulus-container"">
                        <img src=""images/causal_sequence/package_causal/package_causal_7.png"" class=""exp-image"">
                        <div class=""question-area"">
                            <p style=""font-size: 20px; font-weight: bold; margin: 0;"">Is there a person in this image?</p>
                        </div>
                    </div>","0","main_causal_task","7","package_causal","","","","",""
"","","","","","html-keyboard-response","30","82532","0.0-30.0","B5E98DF9E03740D3A73454C0E2FD1A6F","019ce87d-7b70-7b50-a64d-3cada31c2f0b","019ce875-66c2-7f0b-b5e8-086c75889f84","","null","
                    <div class=""stimulus-container"">
                        <img src=""images/causal_sequence/package_causal/package_causal_8.png"" class=""exp-image"">
                        <div class=""question-area""></div> 
                    </div>","null","","","","","","","",""
"","","","","","html-button-response","31","82963","0.0-31.0","B5E98DF9E03740D3A73454C0E2FD1A6F","019ce87d-7b70-7b50-a64d-3cada31c2f0b","019ce875-66c2-7f0b-b5e8-086c75889f84","","430","
                    <div class=""stimulus-container"">
                        <img src=""images/causal_sequence/package_causal/package_causal_8.png"" class=""exp-image"">
                        <div class=""question-area"">
                            <p style=""font-size: 20px; font-weight: bold; margin: 0;"">Is there a person in this image?</p>
                        </div>
                    </div>","0","main_causal_task","8","package_causal","","","","",""
"","","","","","html-keyboard-response","32","87966","0.0-32.0","B5E98DF9E03740D3A73454C0E2FD1A6F","019ce87d-7b70-7b50-a64d-3cada31c2f0b","019ce875-66c2-7f0b-b5e8-086c75889f84","","null","
                    <div class=""stimulus-container"">
                        <img src=""images/causal_sequence/package_causal/package_causal_9.png"" class=""exp-image"">
                        <div class=""question-area""></div> 
                    </div>","null","","","","","","","",""
"","","","","","html-button-response","33","88630","0.0-33.0","B5E98DF9E03740D3A73454C0E2FD1A6F","019ce87d-7b70-7b50-a64d-3cada31c2f0b","019ce875-66c2-7f0b-b5e8-086c75889f84","","663","
                    <div class=""stimulus-container"">
                        <img src=""images/causal_sequence/package_causal/package_causal_9.png"" class=""exp-image"">
                        <div class=""question-area"">
                            <p style=""font-size: 20px; font-weight: bold; margin: 0;"">Is there a person in this image?</p>
                        </div>
                    </div>","0","main_causal_task","9","package_causal","","","","",""
"","","","","","html-keyboard-response","34","89632","0.0-34.0","B5E98DF9E03740D3A73454C0E2FD1A6F","019ce87d-7b70-7b50-a64d-3cada31c2f0b","019ce875-66c2-7f0b-b5e8-086c75889f84","","null","<div style=""background-color: gray; width: 100vw; height: 100vh;""></div>","null","","","","","","","",""
"","","","","","html-keyboard-response","35","94635","0.0-35.0","B5E98DF9E03740D3A73454C0E2FD1A6F","019ce87d-7b70-7b50-a64d-3cada31c2f0b","019ce875-66c2-7f0b-b5e8-086c75889f84","","null","
                    <div class=""stimulus-container"">
                        <img src=""images/causal_sequence/saving_a_cat_causal/saving_a_cat_causal_1.png"" class=""exp-image"">
                        <div class=""question-area""></div> 
                    </div>","null","","","","","","","",""
"","","","","","html-button-response","36","95513","0.0-36.0","B5E98DF9E03740D3A73454C0E2FD1A6F","019ce87d-7b70-7b50-a64d-3cada31c2f0b","019ce875-66c2-7f0b-b5e8-086c75889f84","","876","
                    <div class=""stimulus-container"">
                        <img src=""images/causal_sequence/saving_a_cat_causal/saving_a_cat_causal_1.png"" class=""exp-image"">
                        <div class=""question-area"">
                            <p style=""font-size: 20px; font-weight: bold; margin: 0;"">Is there a person in this image?</p>
                        </div>
                    </div>","0","main_causal_task","1","saving_a_cat_causal","","","","",""
"","","","","","html-keyboard-response","37","100515","0.0-37.0","B5E98DF9E03740D3A73454C0E2FD1A6F","019ce87d-7b70-7b50-a64d-3cada31c2f0b","019ce875-66c2-7f0b-b5e8-086c75889f84","","null","
                    <div class=""stimulus-container"">
                        <img src=""images/causal_sequence/saving_a_cat_causal/saving_a_cat_causal_2.png"" class=""exp-image"">
                        <div class=""question-area""></div> 
                    </div>","null","","","","","","","",""
"","","","","","html-button-response","38","102129","0.0-38.0","B5E98DF9E03740D3A73454C0E2FD1A6F","019ce87d-7b70-7b50-a64d-3cada31c2f0b","019ce875-66c2-7f0b-b5e8-086c75889f84","","1613","
                    <div class=""stimulus-container"">
                        <img src=""images/causal_sequence/saving_a_cat_causal/saving_a_cat_causal_2.png"" class=""exp-image"">
                        <div class=""question-area"">
                            <p style=""font-size: 20px; font-weight: bold; margin: 0;"">Is there a person in this image?</p>
                        </div>
                    </div>","1","main_causal_task","2","saving_a_cat_causal","","","","",""
"","","","","","html-keyboard-response","39","107132","0.0-39.0","B5E98DF9E03740D3A73454C0E2FD1A6F","019ce87d-7b70-7b50-a64d-3cada31c2f0b","019ce875-66c2-7f0b-b5e8-086c75889f84","","null","
                    <div class=""stimulus-container"">
                        <img src=""images/causal_sequence/saving_a_cat_causal/saving_a_cat_causal_3.png"" class=""exp-image"">
                        <div class=""question-area""></div> 
                    </div>","null","","","","","","","",""
"","","","","","html-button-response","40","108729","0.0-40.0","B5E98DF9E03740D3A73454C0E2FD1A6F","019ce87d-7b70-7b50-a64d-3cada31c2f0b","019ce875-66c2-7f0b-b5e8-086c75889f84","","1595","
                    <div class=""stimulus-container"">
                        <img src=""images/causal_sequence/saving_a_cat_causal/saving_a_cat_causal_3.png"" class=""exp-image"">
                        <div class=""question-area"">
                            <p style=""font-size: 20px; font-weight: bold; margin: 0;"">Is there a person in this image?</p>
                        </div>
                    </div>","1","main_causal_task","3","saving_a_cat_causal","","","","",""
"","","","","","html-keyboard-response","41","113731","0.0-41.0","B5E98DF9E03740D3A73454C0E2FD1A6F","019ce87d-7b70-7b50-a64d-3cada31c2f0b","019ce875-66c2-7f0b-b5e8-086c75889f84","","null","
                    <div class=""stimulus-container"">
                        <img src=""images/causal_sequence/saving_a_cat_causal/saving_a_cat_causal_4.png"" class=""exp-image"">
                        <div class=""question-area""></div> 
                    </div>","null","","","","","","","",""
"","","","","","html-button-response","42","116412","0.0-42.0","B5E98DF9E03740D3A73454C0E2FD1A6F","019ce87d-7b70-7b50-a64d-3cada31c2f0b","019ce875-66c2-7f0b-b5e8-086c75889f84","","2679","
                    <div class=""stimulus-container"">
                        <img src=""images/causal_sequence/saving_a_cat_causal/saving_a_cat_causal_4.png"" class=""exp-image"">
                        <div class=""question-area"">
                            <p style=""font-size: 20px; font-weight: bold; margin: 0;"">Is there a person in this image?</p>
                        </div>
                    </div>","0","main_causal_task","4","saving_a_cat_causal","","","","",""
"","","","","","html-keyboard-response","43","121415","0.0-43.0","B5E98DF9E03740D3A73454C0E2FD1A6F","019ce87d-7b70-7b50-a64d-3cada31c2f0b","019ce875-66c2-7f0b-b5e8-086c75889f84","","null","
                    <div class=""stimulus-container"">
                        <img src=""images/causal_sequence/saving_a_cat_causal/saving_a_cat_causal_5.png"" class=""exp-image"">
                        <div class=""question-area""></div> 
                    </div>","null","","","","","","","",""
"","","","","","html-button-response","44","124418","0.0-44.0","B5E98DF9E03740D3A73454C0E2FD1A6F","019ce87d-7b70-7b50-a64d-3cada31c2f0b","019ce875-66c2-7f0b-b5e8-086c75889f84","","null","
                    <div class=""stimulus-container"">
                        <img src=""images/causal_sequence/saving_a_cat_causal/saving_a_cat_causal_5.png"" class=""exp-image"">
                        <div class=""question-area"">
                            <p style=""font-size: 20px; font-weight: bold; margin: 0;"">Is there a person in this image?</p>
                        </div>
                    </div>","null","main_causal_task","5","saving_a_cat_causal","","","","",""
"","","","","","html-keyboard-response","45","129421","0.0-45.0","B5E98DF9E03740D3A73454C0E2FD1A6F","019ce87d-7b70-7b50-a64d-3cada31c2f0b","019ce875-66c2-7f0b-b5e8-086c75889f84","","null","
                    <div class=""stimulus-container"">
                        <img src=""images/causal_sequence/saving_a_cat_causal/saving_a_cat_causal_6.png"" class=""exp-image"">
                        <div class=""question-area""></div> 
                    </div>","null","","","","","","","",""
"","","","","","html-button-response","46","130929","0.0-46.0","B5E98DF9E03740D3A73454C0E2FD1A6F","019ce87d-7b70-7b50-a64d-3cada31c2f0b","019ce875-66c2-7f0b-b5e8-086c75889f84","","1506","
                    <div class=""stimulus-container"">
                        <img src=""images/causal_sequence/saving_a_cat_causal/saving_a_cat_causal_6.png"" class=""exp-image"">
                        <div class=""question-area"">
                            <p style=""font-size: 20px; font-weight: bold; margin: 0;"">Is there a person in this image?</p>
                        </div>
                    </div>","0","main_causal_task","6","saving_a_cat_causal","","","","",""
"","","","","","html-keyboard-response","47","135931","0.0-47.0","B5E98DF9E03740D3A73454C0E2FD1A6F","019ce87d-7b70-7b50-a64d-3cada31c2f0b","019ce875-66c2-7f0b-b5e8-086c75889f84","","null","
                    <div class=""stimulus-container"">
                        <img src=""images/causal_sequence/saving_a_cat_causal/saving_a_cat_causal_7.png"" class=""exp-image"">
                        <div class=""question-area""></div> 
                    </div>","null","","","","","","","",""
"","","","","","html-button-response","48","137080","0.0-48.0","B5E98DF9E03740D3A73454C0E2FD1A6F","019ce87d-7b70-7b50-a64d-3cada31c2f0b","019ce875-66c2-7f0b-b5e8-086c75889f84","","1147","
                    <div class=""stimulus-container"">
                        <img src=""images/causal_sequence/saving_a_cat_causal/saving_a_cat_causal_7.png"" class=""exp-image"">
                        <div class=""question-area"">
                            <p style=""font-size: 20px; font-weight: bold; margin: 0;"">Is there a person in this image?</p>
                        </div>
                    </div>","0","main_causal_task","7","saving_a_cat_causal","","","","",""
"","","","","","html-keyboard-response","49","142082","0.0-49.0","B5E98DF9E03740D3A73454C0E2FD1A6F","019ce87d-7b70-7b50-a64d-3cada31c2f0b","019ce875-66c2-7f0b-b5e8-086c75889f84","","null","
                    <div class=""stimulus-container"">
                        <img src=""images/causal_sequence/saving_a_cat_causal/saving_a_cat_causal_8.png"" class=""exp-image"">
                        <div class=""question-area""></div> 
                    </div>","null","","","","","","","",""
"","","","","","html-button-response","50","145086","0.0-50.0","B5E98DF9E03740D3A73454C0E2FD1A6F","019ce87d-7b70-7b50-a64d-3cada31c2f0b","019ce875-66c2-7f0b-b5e8-086c75889f84","","null","
                    <div class=""stimulus-container"">
                        <img src=""images/causal_sequence/saving_a_cat_causal/saving_a_cat_causal_8.png"" class=""exp-image"">
                        <div class=""question-area"">
                            <p style=""font-size: 20px; font-weight: bold; margin: 0;"">Is there a person in this image?</p>
                        </div>
                    </div>","null","main_causal_task","8","saving_a_cat_causal","","","","",""
"","","","","","html-keyboard-response","51","150087","0.0-51.0","B5E98DF9E03740D3A73454C0E2FD1A6F","019ce87d-7b70-7b50-a64d-3cada31c2f0b","019ce875-66c2-7f0b-b5e8-086c75889f84","","null","
                    <div class=""stimulus-container"">
                        <img src=""images/causal_sequence/saving_a_cat_causal/saving_a_cat_causal_9.png"" class=""exp-image"">
                        <div class=""question-area""></div> 
                    </div>","null","","","","","","","",""
"","","","","","html-button-response","52","151329","0.0-52.0","B5E98DF9E03740D3A73454C0E2FD1A6F","019ce87d-7b70-7b50-a64d-3cada31c2f0b","019ce875-66c2-7f0b-b5e8-086c75889f84","","1240","
                    <div class=""stimulus-container"">
                        <img src=""images/causal_sequence/saving_a_cat_causal/saving_a_cat_causal_9.png"" class=""exp-image"">
                        <div class=""question-area"">
                            <p style=""font-size: 20px; font-weight: bold; margin: 0;"">Is there a person in this image?</p>
                        </div>
                    </div>","0","main_causal_task","9","saving_a_cat_causal","","","","",""
"","","","","","html-keyboard-response","53","152331","0.0-53.0","B5E98DF9E03740D3A73454C0E2FD1A6F","019ce87d-7b70-7b50-a64d-3cada31c2f0b","019ce875-66c2-7f0b-b5e8-086c75889f84","","null","<div style=""background-color: gray; width: 100vw; height: 100vh;""></div>","null","","","","","","","",""
"","","","","","html-keyboard-response","54","157334","0.0-54.0","B5E98DF9E03740D3A73454C0E2FD1A6F","019ce87d-7b70-7b50-a64d-3cada31c2f0b","019ce875-66c2-7f0b-b5e8-086c75889f84","","null","
                    <div class=""stimulus-container"">
                        <img src=""images/causal_sequence/dog_causal/dog_causal_1.png"" class=""exp-image"">
                        <div class=""question-area""></div> 
                    </div>","null","","","","","","","",""
"","","","","","html-button-response","55","158629","0.0-55.0","B5E98DF9E03740D3A73454C0E2FD1A6F","019ce87d-7b70-7b50-a64d-3cada31c2f0b","019ce875-66c2-7f0b-b5e8-086c75889f84","","1294","
                    <div class=""stimulus-container"">
                        <img src=""images/causal_sequence/dog_causal/dog_causal_1.png"" class=""exp-image"">
                        <div class=""question-area"">
                            <p style=""font-size: 20px; font-weight: bold; margin: 0;"">Is there a person in this image?</p>
                        </div>
                    </div>","0","main_causal_task","1","dog_causal","","","","",""
"","","","","","html-keyboard-response","56","163631","0.0-56.0","B5E98DF9E03740D3A73454C0E2FD1A6F","019ce87d-7b70-7b50-a64d-3cada31c2f0b","019ce875-66c2-7f0b-b5e8-086c75889f84","","null","
                    <div class=""stimulus-container"">
                        <img src=""images/causal_sequence/dog_causal/dog_causal_2.png"" class=""exp-image"">
                        <div class=""question-area""></div> 
                    </div>","null","","","","","","","",""
"","","","","","html-button-response","57","165044","0.0-57.0","B5E98DF9E03740D3A73454C0E2FD1A6F","019ce87d-7b70-7b50-a64d-3cada31c2f0b","019ce875-66c2-7f0b-b5e8-086c75889f84","","1411","
                    <div class=""stimulus-container"">
                        <img src=""images/causal_sequence/dog_causal/dog_causal_2.png"" class=""exp-image"">
                        <div class=""question-area"">
                            <p style=""font-size: 20px; font-weight: bold; margin: 0;"">Is there a person in this image?</p>
                        </div>
                    </div>","0","main_causal_task","2","dog_causal","","","","",""
"","","","","","html-keyboard-response","58","170048","0.0-58.0","B5E98DF9E03740D3A73454C0E2FD1A6F","019ce87d-7b70-7b50-a64d-3cada31c2f0b","019ce875-66c2-7f0b-b5e8-086c75889f84","","null","
                    <div class=""stimulus-container"">
                        <img src=""images/causal_sequence/dog_causal/dog_causal_3.png"" class=""exp-image"">
                        <div class=""question-area""></div> 
                    </div>","null","","","","","","","",""
"","","","","","html-button-response","59","172028","0.0-59.0","B5E98DF9E03740D3A73454C0E2FD1A6F","019ce87d-7b70-7b50-a64d-3cada31c2f0b","019ce875-66c2-7f0b-b5e8-086c75889f84","","1979","
                    <div class=""stimulus-container"">
                        <img src=""images/causal_sequence/dog_causal/dog_causal_3.png"" class=""exp-image"">
                        <div class=""question-area"">
                            <p style=""font-size: 20px; font-weight: bold; margin: 0;"">Is there a person in this image?</p>
                        </div>
                    </div>","0","main_causal_task","3","dog_causal","","","","",""
"","","","","","html-keyboard-response","60","177031","0.0-60.0","B5E98DF9E03740D3A73454C0E2FD1A6F","019ce87d-7b70-7b50-a64d-3cada31c2f0b","019ce875-66c2-7f0b-b5e8-086c75889f84","","null","
                    <div class=""stimulus-container"">
                        <img src=""images/causal_sequence/dog_causal/dog_causal_4.png"" class=""exp-image"">
                        <div class=""question-area""></div> 
                    </div>","null","","","","","","","",""
"","","","","","html-button-response","61","178112","0.0-61.0","B5E98DF9E03740D3A73454C0E2FD1A6F","019ce87d-7b70-7b50-a64d-3cada31c2f0b","019ce875-66c2-7f0b-b5e8-086c75889f84","","1080","
                    <div class=""stimulus-container"">
                        <img src=""images/causal_sequence/dog_causal/dog_causal_4.png"" class=""exp-image"">
                        <div class=""question-area"">
                            <p style=""font-size: 20px; font-weight: bold; margin: 0;"">Is there a person in this image?</p>
                        </div>
                    </div>","0","main_causal_task","4","dog_causal","","","","",""
"","","","","","html-keyboard-response","62","183114","0.0-62.0","B5E98DF9E03740D3A73454C0E2FD1A6F","019ce87d-7b70-7b50-a64d-3cada31c2f0b","019ce875-66c2-7f0b-b5e8-086c75889f84","","null","
                    <div class=""stimulus-container"">
                        <img src=""images/causal_sequence/dog_causal/dog_causal_5.png"" class=""exp-image"">
                        <div class=""question-area""></div> 
                    </div>","null","","","","","","","",""
"","","","","","html-button-response","63","184144","0.0-63.0","B5E98DF9E03740D3A73454C0E2FD1A6F","019ce87d-7b70-7b50-a64d-3cada31c2f0b","019ce875-66c2-7f0b-b5e8-086c75889f84","","1029","
                    <div class=""stimulus-container"">
                        <img src=""images/causal_sequence/dog_causal/dog_causal_5.png"" class=""exp-image"">
                        <div class=""question-area"">
                            <p style=""font-size: 20px; font-weight: bold; margin: 0;"">Is there a person in this image?</p>
                        </div>
                    </div>","0","main_causal_task","5","dog_causal","","","","",""
"","","","","","html-keyboard-response","64","189147","0.0-64.0","B5E98DF9E03740D3A73454C0E2FD1A6F","019ce87d-7b70-7b50-a64d-3cada31c2f0b","019ce875-66c2-7f0b-b5e8-086c75889f84","","null","
                    <div class=""stimulus-container"">
                        <img src=""images/causal_sequence/dog_causal/dog_causal_6.png"" class=""exp-image"">
                        <div class=""question-area""></div> 
                    </div>","null","","","","","","","",""
"","","","","","html-button-response","65","189763","0.0-65.0","B5E98DF9E03740D3A73454C0E2FD1A6F","019ce87d-7b70-7b50-a64d-3cada31c2f0b","019ce875-66c2-7f0b-b5e8-086c75889f84","","614","
                    <div class=""stimulus-container"">
                        <img src=""images/causal_sequence/dog_causal/dog_causal_6.png"" class=""exp-image"">
                        <div class=""question-area"">
                            <p style=""font-size: 20px; font-weight: bold; margin: 0;"">Is there a person in this image?</p>
                        </div>
                    </div>","0","main_causal_task","6","dog_causal","","","","",""
"","","","","","html-keyboard-response","66","194765","0.0-66.0","B5E98DF9E03740D3A73454C0E2FD1A6F","019ce87d-7b70-7b50-a64d-3cada31c2f0b","019ce875-66c2-7f0b-b5e8-086c75889f84","","null","
                    <div class=""stimulus-container"">
                        <img src=""images/causal_sequence/dog_causal/dog_causal_7.png"" class=""exp-image"">
                        <div class=""question-area""></div> 
                    </div>","null","","","","","","","",""
"","","","","","html-button-response","67","195212","0.0-67.0","B5E98DF9E03740D3A73454C0E2FD1A6F","019ce87d-7b70-7b50-a64d-3cada31c2f0b","019ce875-66c2-7f0b-b5e8-086c75889f84","","445","
                    <div class=""stimulus-container"">
                        <img src=""images/causal_sequence/dog_causal/dog_causal_7.png"" class=""exp-image"">
                        <div class=""question-area"">
                            <p style=""font-size: 20px; font-weight: bold; margin: 0;"">Is there a person in this image?</p>
                        </div>
                    </div>","0","main_causal_task","7","dog_causal","","","","",""
"","","","","","html-keyboard-response","68","200214","0.0-68.0","B5E98DF9E03740D3A73454C0E2FD1A6F","019ce87d-7b70-7b50-a64d-3cada31c2f0b","019ce875-66c2-7f0b-b5e8-086c75889f84","","null","
                    <div class=""stimulus-container"">
                        <img src=""images/causal_sequence/dog_causal/dog_causal_8.png"" class=""exp-image"">
                        <div class=""question-area""></div> 
                    </div>","null","","","","","","","",""
"","","","","","html-button-response","69","200694","0.0-69.0","B5E98DF9E03740D3A73454C0E2FD1A6F","019ce87d-7b70-7b50-a64d-3cada31c2f0b","019ce875-66c2-7f0b-b5e8-086c75889f84","","478","
                    <div class=""stimulus-container"">
                        <img src=""images/causal_sequence/dog_causal/dog_causal_8.png"" class=""exp-image"">
                        <div class=""question-area"">
                            <p style=""font-size: 20px; font-weight: bold; margin: 0;"">Is there a person in this image?</p>
                        </div>
                    </div>","0","main_causal_task","8","dog_causal","","","","",""
"","","","","","html-keyboard-response","70","205697","0.0-70.0","B5E98DF9E03740D3A73454C0E2FD1A6F","019ce87d-7b70-7b50-a64d-3cada31c2f0b","019ce875-66c2-7f0b-b5e8-086c75889f84","","null","
                    <div class=""stimulus-container"">
                        <img src=""images/causal_sequence/dog_causal/dog_causal_9.png"" class=""exp-image"">
                        <div class=""question-area""></div> 
                    </div>","null","","","","","","","",""
"","","","","","html-button-response","71","206262","0.0-71.0","B5E98DF9E03740D3A73454C0E2FD1A6F","019ce87d-7b70-7b50-a64d-3cada31c2f0b","019ce875-66c2-7f0b-b5e8-086c75889f84","","564","
                    <div class=""stimulus-container"">
                        <img src=""images/causal_sequence/dog_causal/dog_causal_9.png"" class=""exp-image"">
                        <div class=""question-area"">
                            <p style=""font-size: 20px; font-weight: bold; margin: 0;"">Is there a person in this image?</p>
                        </div>
                    </div>","0","main_causal_task","9","dog_causal","","","","",""
"","","","","","html-keyboard-response","72","207264","0.0-72.0","B5E98DF9E03740D3A73454C0E2FD1A6F","019ce87d-7b70-7b50-a64d-3cada31c2f0b","019ce875-66c2-7f0b-b5e8-086c75889f84","","null","<div style=""background-color: gray; width: 100vw; height: 100vh;""></div>","null","","","","","","","",""
"","","","","","html-keyboard-response","73","212267","0.0-73.0","B5E98DF9E03740D3A73454C0E2FD1A6F","019ce87d-7b70-7b50-a64d-3cada31c2f0b","019ce875-66c2-7f0b-b5e8-086c75889f84","","null","
                    <div class=""stimulus-container"">
                        <img src=""images/causal_sequence/museum_causal/museum_causal_1.png"" class=""exp-image"">
                        <div class=""question-area""></div> 
                    </div>","null","","","","","","","",""
"","","","","","html-button-response","74","212695","0.0-74.0","B5E98DF9E03740D3A73454C0E2FD1A6F","019ce87d-7b70-7b50-a64d-3cada31c2f0b","019ce875-66c2-7f0b-b5e8-086c75889f84","","426","
                    <div class=""stimulus-container"">
                        <img src=""images/causal_sequence/museum_causal/museum_causal_1.png"" class=""exp-image"">
                        <div class=""question-area"">
                            <p style=""font-size: 20px; font-weight: bold; margin: 0;"">Is there a person in this image?</p>
                        </div>
                    </div>","0","main_causal_task","1","museum_causal","","","","",""
"","","","","","html-keyboard-response","75","217697","0.0-75.0","B5E98DF9E03740D3A73454C0E2FD1A6F","019ce87d-7b70-7b50-a64d-3cada31c2f0b","019ce875-66c2-7f0b-b5e8-086c75889f84","","null","
                    <div class=""stimulus-container"">
                        <img src=""images/causal_sequence/museum_causal/museum_causal_2.png"" class=""exp-image"">
                        <div class=""question-area""></div> 
                    </div>","null","","","","","","","",""
"","","","","","html-button-response","76","218511","0.0-76.0","B5E98DF9E03740D3A73454C0E2FD1A6F","019ce87d-7b70-7b50-a64d-3cada31c2f0b","019ce875-66c2-7f0b-b5e8-086c75889f84","","813","
                    <div class=""stimulus-container"">
                        <img src=""images/causal_sequence/museum_causal/museum_causal_2.png"" class=""exp-image"">
                        <div class=""question-area"">
                            <p style=""font-size: 20px; font-weight: bold; margin: 0;"">Is there a person in this image?</p>
                        </div>
                    </div>","1","main_causal_task","2","museum_causal","","","","",""
"","","","","","html-keyboard-response","77","223515","0.0-77.0","B5E98DF9E03740D3A73454C0E2FD1A6F","019ce87d-7b70-7b50-a64d-3cada31c2f0b","019ce875-66c2-7f0b-b5e8-086c75889f84","","null","
                    <div class=""stimulus-container"">
                        <img src=""images/causal_sequence/museum_causal/museum_causal_3.png"" class=""exp-image"">
                        <div class=""question-area""></div> 
                    </div>","null","","","","","","","",""
"","","","","","html-button-response","78","224027","0.0-78.0","B5E98DF9E03740D3A73454C0E2FD1A6F","019ce87d-7b70-7b50-a64d-3cada31c2f0b","019ce875-66c2-7f0b-b5e8-086c75889f84","","511","
                    <div class=""stimulus-container"">
                        <img src=""images/causal_sequence/museum_causal/museum_causal_3.png"" class=""exp-image"">
                        <div class=""question-area"">
                            <p style=""font-size: 20px; font-weight: bold; margin: 0;"">Is there a person in this image?</p>
                        </div>
                    </div>","0","main_causal_task","3","museum_causal","","","","",""
"","","","","","html-keyboard-response","79","229029","0.0-79.0","B5E98DF9E03740D3A73454C0E2FD1A6F","019ce87d-7b70-7b50-a64d-3cada31c2f0b","019ce875-66c2-7f0b-b5e8-086c75889f84","","null","
                    <div class=""stimulus-container"">
                        <img src=""images/causal_sequence/museum_causal/museum_causal_4.png"" class=""exp-image"">
                        <div class=""question-area""></div> 
                    </div>","null","","","","","","","",""
"","","","","","html-button-response","80","229479","0.0-80.0","B5E98DF9E03740D3A73454C0E2FD1A6F","019ce87d-7b70-7b50-a64d-3cada31c2f0b","019ce875-66c2-7f0b-b5e8-086c75889f84","","449","
                    <div class=""stimulus-container"">
                        <img src=""images/causal_sequence/museum_causal/museum_causal_4.png"" class=""exp-image"">
                        <div class=""question-area"">
                            <p style=""font-size: 20px; font-weight: bold; margin: 0;"">Is there a person in this image?</p>
                        </div>
                    </div>","1","main_causal_task","4","museum_causal","","","","",""
"","","","","","html-keyboard-response","81","234482","0.0-81.0","B5E98DF9E03740D3A73454C0E2FD1A6F","019ce87d-7b70-7b50-a64d-3cada31c2f0b","019ce875-66c2-7f0b-b5e8-086c75889f84","","null","
                    <div class=""stimulus-container"">
                        <img src=""images/causal_sequence/museum_causal/museum_causal_5.png"" class=""exp-image"">
                        <div class=""question-area""></div> 
                    </div>","null","","","","","","","",""
"","","","","","html-button-response","82","234926","0.0-82.0","B5E98DF9E03740D3A73454C0E2FD1A6F","019ce87d-7b70-7b50-a64d-3cada31c2f0b","019ce875-66c2-7f0b-b5e8-086c75889f84","","443","
                    <div class=""stimulus-container"">
                        <img src=""images/causal_sequence/museum_causal/museum_causal_5.png"" class=""exp-image"">
                        <div class=""question-area"">
                            <p style=""font-size: 20px; font-weight: bold; margin: 0;"">Is there a person in this image?</p>
                        </div>
                    </div>","0","main_causal_task","5","museum_causal","","","","",""
"","","","","","html-keyboard-response","83","239928","0.0-83.0","B5E98DF9E03740D3A73454C0E2FD1A6F","019ce87d-7b70-7b50-a64d-3cada31c2f0b","019ce875-66c2-7f0b-b5e8-086c75889f84","","null","
                    <div class=""stimulus-container"">
                        <img src=""images/causal_sequence/museum_causal/museum_causal_6.png"" class=""exp-image"">
                        <div class=""question-area""></div> 
                    </div>","null","","","","","","","",""
"","","","","","html-button-response","84","240628","0.0-84.0","B5E98DF9E03740D3A73454C0E2FD1A6F","019ce87d-7b70-7b50-a64d-3cada31c2f0b","019ce875-66c2-7f0b-b5e8-086c75889f84","","699","
                    <div class=""stimulus-container"">
                        <img src=""images/causal_sequence/museum_causal/museum_causal_6.png"" class=""exp-image"">
                        <div class=""question-area"">
                            <p style=""font-size: 20px; font-weight: bold; margin: 0;"">Is there a person in this image?</p>
                        </div>
                    </div>","0","main_causal_task","6","museum_causal","","","","",""
"","","","","","html-keyboard-response","85","245631","0.0-85.0","B5E98DF9E03740D3A73454C0E2FD1A6F","019ce87d-7b70-7b50-a64d-3cada31c2f0b","019ce875-66c2-7f0b-b5e8-086c75889f84","","null","
                    <div class=""stimulus-container"">
                        <img src=""images/causal_sequence/museum_causal/museum_causal_7.png"" class=""exp-image"">
                        <div class=""question-area""></div> 
                    </div>","null","","","","","","","",""
"","","","","","html-button-response","86","246328","0.0-86.0","B5E98DF9E03740D3A73454C0E2FD1A6F","019ce87d-7b70-7b50-a64d-3cada31c2f0b","019ce875-66c2-7f0b-b5e8-086c75889f84","","696","
                    <div class=""stimulus-container"">
                        <img src=""images/causal_sequence/museum_causal/museum_causal_7.png"" class=""exp-image"">
                        <div class=""question-area"">
                            <p style=""font-size: 20px; font-weight: bold; margin: 0;"">Is there a person in this image?</p>
                        </div>
                    </div>","1","main_causal_task","7","museum_causal","","","","",""
"","","","","","html-keyboard-response","87","251331","0.0-87.0","B5E98DF9E03740D3A73454C0E2FD1A6F","019ce87d-7b70-7b50-a64d-3cada31c2f0b","019ce875-66c2-7f0b-b5e8-086c75889f84","","null","
                    <div class=""stimulus-container"">
                        <img src=""images/causal_sequence/museum_causal/museum_causal_8.png"" class=""exp-image"">
                        <div class=""question-area""></div> 
                    </div>","null","","","","","","","",""
"","","","","","html-button-response","88","251794","0.0-88.0","B5E98DF9E03740D3A73454C0E2FD1A6F","019ce87d-7b70-7b50-a64d-3cada31c2f0b","019ce875-66c2-7f0b-b5e8-086c75889f84","","462","
                    <div class=""stimulus-container"">
                        <img src=""images/causal_sequence/museum_causal/museum_causal_8.png"" class=""exp-image"">
                        <div class=""question-area"">
                            <p style=""font-size: 20px; font-weight: bold; margin: 0;"">Is there a person in this image?</p>
                        </div>
                    </div>","0","main_causal_task","8","museum_causal","","","","",""
"","","","","","html-keyboard-response","89","256796","0.0-89.0","B5E98DF9E03740D3A73454C0E2FD1A6F","019ce87d-7b70-7b50-a64d-3cada31c2f0b","019ce875-66c2-7f0b-b5e8-086c75889f84","","null","
                    <div class=""stimulus-container"">
                        <img src=""images/causal_sequence/museum_causal/museum_causal_9.png"" class=""exp-image"">
                        <div class=""question-area""></div> 
                    </div>","null","","","","","","","",""
"","","","","","html-button-response","90","257378","0.0-90.0","B5E98DF9E03740D3A73454C0E2FD1A6F","019ce87d-7b70-7b50-a64d-3cada31c2f0b","019ce875-66c2-7f0b-b5e8-086c75889f84","","580","
                    <div class=""stimulus-container"">
                        <img src=""images/causal_sequence/museum_causal/museum_causal_9.png"" class=""exp-image"">
                        <div class=""question-area"">
                            <p style=""font-size: 20px; font-weight: bold; margin: 0;"">Is there a person in this image?</p>
                        </div>
                    </div>","1","main_causal_task","9","museum_causal","","","","",""
"","","","","","html-keyboard-response","91","258378","0.0-91.0","B5E98DF9E03740D3A73454C0E2FD1A6F","019ce87d-7b70-7b50-a64d-3cada31c2f0b","019ce875-66c2-7f0b-b5e8-086c75889f84","","null","<div style=""background-color: gray; width: 100vw; height: 100vh;""></div>","null","","","","","","","",""
"","","","","","html-keyboard-response","92","263382","0.0-92.0","B5E98DF9E03740D3A73454C0E2FD1A6F","019ce87d-7b70-7b50-a64d-3cada31c2f0b","019ce875-66c2-7f0b-b5e8-086c75889f84","","null","
                    <div class=""stimulus-container"">
                        <img src=""images/causal_sequence/coin_causal/coin_causal_1.png"" class=""exp-image"">
                        <div class=""question-area""></div> 
                    </div>","null","","","","","","","",""
"","","","","","html-button-response","93","264928","0.0-93.0","B5E98DF9E03740D3A73454C0E2FD1A6F","019ce87d-7b70-7b50-a64d-3cada31c2f0b","019ce875-66c2-7f0b-b5e8-086c75889f84","","1545","
                    <div class=""stimulus-container"">
                        <img src=""images/causal_sequence/coin_causal/coin_causal_1.png"" class=""exp-image"">
                        <div class=""question-area"">
                            <p style=""font-size: 20px; font-weight: bold; margin: 0;"">Is there a person in this image?</p>
                        </div>
                    </div>","0","main_causal_task","1","coin_causal","","","","",""
"","","","","","html-keyboard-response","94","269931","0.0-94.0","B5E98DF9E03740D3A73454C0E2FD1A6F","019ce87d-7b70-7b50-a64d-3cada31c2f0b","019ce875-66c2-7f0b-b5e8-086c75889f84","","null","
                    <div class=""stimulus-container"">
                        <img src=""images/causal_sequence/coin_causal/coin_causal_2.png"" class=""exp-image"">
                        <div class=""question-area""></div> 
                    </div>","null","","","","","","","",""
"","","","","","html-button-response","95","270694","0.0-95.0","B5E98DF9E03740D3A73454C0E2FD1A6F","019ce87d-7b70-7b50-a64d-3cada31c2f0b","019ce875-66c2-7f0b-b5e8-086c75889f84","","760","
                    <div class=""stimulus-container"">
                        <img src=""images/causal_sequence/coin_causal/coin_causal_2.png"" class=""exp-image"">
                        <div class=""question-area"">
                            <p style=""font-size: 20px; font-weight: bold; margin: 0;"">Is there a person in this image?</p>
                        </div>
                    </div>","0","main_causal_task","2","coin_causal","","","","",""
"","","","","","html-keyboard-response","96","275696","0.0-96.0","B5E98DF9E03740D3A73454C0E2FD1A6F","019ce87d-7b70-7b50-a64d-3cada31c2f0b","019ce875-66c2-7f0b-b5e8-086c75889f84","","null","
                    <div class=""stimulus-container"">
                        <img src=""images/causal_sequence/coin_causal/coin_causal_3.png"" class=""exp-image"">
                        <div class=""question-area""></div> 
                    </div>","null","","","","","","","",""
"","","","","","html-button-response","97","276178","0.0-97.0","B5E98DF9E03740D3A73454C0E2FD1A6F","019ce87d-7b70-7b50-a64d-3cada31c2f0b","019ce875-66c2-7f0b-b5e8-086c75889f84","","481","
                    <div class=""stimulus-container"">
                        <img src=""images/causal_sequence/coin_causal/coin_causal_3.png"" class=""exp-image"">
                        <div class=""question-area"">
                            <p style=""font-size: 20px; font-weight: bold; margin: 0;"">Is there a person in this image?</p>
                        </div>
                    </div>","0","main_causal_task","3","coin_causal","","","","",""
"","","","","","html-keyboard-response","98","281181","0.0-98.0","B5E98DF9E03740D3A73454C0E2FD1A6F","019ce87d-7b70-7b50-a64d-3cada31c2f0b","019ce875-66c2-7f0b-b5e8-086c75889f84","","null","
                    <div class=""stimulus-container"">
                        <img src=""images/causal_sequence/coin_causal/coin_causal_4.png"" class=""exp-image"">
                        <div class=""question-area""></div> 
                    </div>","null","","","","","","","",""
"","","","","","html-button-response","99","281862","0.0-99.0","B5E98DF9E03740D3A73454C0E2FD1A6F","019ce87d-7b70-7b50-a64d-3cada31c2f0b","019ce875-66c2-7f0b-b5e8-086c75889f84","","678","
                    <div class=""stimulus-container"">
                        <img src=""images/causal_sequence/coin_causal/coin_causal_4.png"" class=""exp-image"">
                        <div class=""question-area"">
                            <p style=""font-size: 20px; font-weight: bold; margin: 0;"">Is there a person in this image?</p>
                        </div>
                    </div>","0","main_causal_task","4","coin_causal","","","","",""
"","","","","","html-keyboard-response","100","286865","0.0-100.0","B5E98DF9E03740D3A73454C0E2FD1A6F","019ce87d-7b70-7b50-a64d-3cada31c2f0b","019ce875-66c2-7f0b-b5e8-086c75889f84","","null","
                    <div class=""stimulus-container"">
                        <img src=""images/causal_sequence/coin_causal/coin_causal_5.png"" class=""exp-image"">
                        <div class=""question-area""></div> 
                    </div>","null","","","","","","","",""
"","","","","","html-button-response","101","287978","0.0-101.0","B5E98DF9E03740D3A73454C0E2FD1A6F","019ce87d-7b70-7b50-a64d-3cada31c2f0b","019ce875-66c2-7f0b-b5e8-086c75889f84","","1112","
                    <div class=""stimulus-container"">
                        <img src=""images/causal_sequence/coin_causal/coin_causal_5.png"" class=""exp-image"">
                        <div class=""question-area"">
                            <p style=""font-size: 20px; font-weight: bold; margin: 0;"">Is there a person in this image?</p>
                        </div>
                    </div>","0","main_causal_task","5","coin_causal","","","","",""
"","","","","","html-keyboard-response","102","292981","0.0-102.0","B5E98DF9E03740D3A73454C0E2FD1A6F","019ce87d-7b70-7b50-a64d-3cada31c2f0b","019ce875-66c2-7f0b-b5e8-086c75889f84","","null","
                    <div class=""stimulus-container"">
                        <img src=""images/causal_sequence/coin_causal/coin_causal_6.png"" class=""exp-image"">
                        <div class=""question-area""></div> 
                    </div>","null","","","","","","","",""
"","","","","","html-button-response","103","294078","0.0-103.0","B5E98DF9E03740D3A73454C0E2FD1A6F","019ce87d-7b70-7b50-a64d-3cada31c2f0b","019ce875-66c2-7f0b-b5e8-086c75889f84","","1096","
                    <div class=""stimulus-container"">
                        <img src=""images/causal_sequence/coin_causal/coin_causal_6.png"" class=""exp-image"">
                        <div class=""question-area"">
                            <p style=""font-size: 20px; font-weight: bold; margin: 0;"">Is there a person in this image?</p>
                        </div>
                    </div>","0","main_causal_task","6","coin_causal","","","","",""
"","","","","","html-keyboard-response","104","299081","0.0-104.0","B5E98DF9E03740D3A73454C0E2FD1A6F","019ce87d-7b70-7b50-a64d-3cada31c2f0b","019ce875-66c2-7f0b-b5e8-086c75889f84","","null","
                    <div class=""stimulus-container"">
                        <img src=""images/causal_sequence/coin_causal/coin_causal_7.png"" class=""exp-image"">
                        <div class=""question-area""></div> 
                    </div>","null","","","","","","","",""
"","","","","","html-button-response","105","299679","0.0-105.0","B5E98DF9E03740D3A73454C0E2FD1A6F","019ce87d-7b70-7b50-a64d-3cada31c2f0b","019ce875-66c2-7f0b-b5e8-086c75889f84","","596","
                    <div class=""stimulus-container"">
                        <img src=""images/causal_sequence/coin_causal/coin_causal_7.png"" class=""exp-image"">
                        <div class=""question-area"">
                            <p style=""font-size: 20px; font-weight: bold; margin: 0;"">Is there a person in this image?</p>
                        </div>
                    </div>","0","main_causal_task","7","coin_causal","","","","",""
"","","","","","html-keyboard-response","106","304681","0.0-106.0","B5E98DF9E03740D3A73454C0E2FD1A6F","019ce87d-7b70-7b50-a64d-3cada31c2f0b","019ce875-66c2-7f0b-b5e8-086c75889f84","","null","
                    <div class=""stimulus-container"">
                        <img src=""images/causal_sequence/coin_causal/coin_causal_8.png"" class=""exp-image"">
                        <div class=""question-area""></div> 
                    </div>","null","","","","","","","",""
"","","","","","html-button-response","107","305262","0.0-107.0","B5E98DF9E03740D3A73454C0E2FD1A6F","019ce87d-7b70-7b50-a64d-3cada31c2f0b","019ce875-66c2-7f0b-b5e8-086c75889f84","","579","
                    <div class=""stimulus-container"">
                        <img src=""images/causal_sequence/coin_causal/coin_causal_8.png"" class=""exp-image"">
                        <div class=""question-area"">
                            <p style=""font-size: 20px; font-weight: bold; margin: 0;"">Is there a person in this image?</p>
                        </div>
                    </div>","0","main_causal_task","8","coin_causal","","","","",""
"","","","","","html-keyboard-response","108","310264","0.0-108.0","B5E98DF9E03740D3A73454C0E2FD1A6F","019ce87d-7b70-7b50-a64d-3cada31c2f0b","019ce875-66c2-7f0b-b5e8-086c75889f84","","null","
                    <div class=""stimulus-container"">
                        <img src=""images/causal_sequence/coin_causal/coin_causal_9.png"" class=""exp-image"">
                        <div class=""question-area""></div> 
                    </div>","null","","","","","","","",""
"","","","","","html-button-response","109","311728","0.0-109.0","B5E98DF9E03740D3A73454C0E2FD1A6F","019ce87d-7b70-7b50-a64d-3cada31c2f0b","019ce875-66c2-7f0b-b5e8-086c75889f84","","1462","
                    <div class=""stimulus-container"">
                        <img src=""images/causal_sequence/coin_causal/coin_causal_9.png"" class=""exp-image"">
                        <div class=""question-area"">
                            <p style=""font-size: 20px; font-weight: bold; margin: 0;"">Is there a person in this image?</p>
                        </div>
                    </div>","0","main_causal_task","9","coin_causal","","","","",""
"","","","","","html-keyboard-response","110","312729","0.0-110.0","B5E98DF9E03740D3A73454C0E2FD1A6F","019ce87d-7b70-7b50-a64d-3cada31c2f0b","019ce875-66c2-7f0b-b5e8-086c75889f84","","null","<div style=""background-color: gray; width: 100vw; height: 100vh;""></div>","null","","","","","","","",""
"","","","","","html-keyboard-response","111","317732","0.0-111.0","B5E98DF9E03740D3A73454C0E2FD1A6F","019ce87d-7b70-7b50-a64d-3cada31c2f0b","019ce875-66c2-7f0b-b5e8-086c75889f84","","null","
                    <div class=""stimulus-container"">
                        <img src=""images/causal_sequence/the_performance_causal/the_performance_causal_1.png"" class=""exp-image"">
                        <div class=""question-area""></div> 
                    </div>","null","","","","","","","",""
"","","","","","html-button-response","112","319511","0.0-112.0","B5E98DF9E03740D3A73454C0E2FD1A6F","019ce87d-7b70-7b50-a64d-3cada31c2f0b","019ce875-66c2-7f0b-b5e8-086c75889f84","","1778","
                    <div class=""stimulus-container"">
                        <img src=""images/causal_sequence/the_performance_causal/the_performance_causal_1.png"" class=""exp-image"">
                        <div class=""question-area"">
                            <p style=""font-size: 20px; font-weight: bold; margin: 0;"">Is there a person in this image?</p>
                        </div>
                    </div>","0","main_causal_task","1","the_performance_causal","","","","",""
"","","","","","html-keyboard-response","113","324514","0.0-113.0","B5E98DF9E03740D3A73454C0E2FD1A6F","019ce87d-7b70-7b50-a64d-3cada31c2f0b","019ce875-66c2-7f0b-b5e8-086c75889f84","","null","
                    <div class=""stimulus-container"">
                        <img src=""images/causal_sequence/the_performance_causal/the_performance_causal_2.png"" class=""exp-image"">
                        <div class=""question-area""></div> 
                    </div>","null","","","","","","","",""
"","","","","","html-button-response","114","326244","0.0-114.0","B5E98DF9E03740D3A73454C0E2FD1A6F","019ce87d-7b70-7b50-a64d-3cada31c2f0b","019ce875-66c2-7f0b-b5e8-086c75889f84","","1729","
                    <div class=""stimulus-container"">
                        <img src=""images/causal_sequence/the_performance_causal/the_performance_causal_2.png"" class=""exp-image"">
                        <div class=""question-area"">
                            <p style=""font-size: 20px; font-weight: bold; margin: 0;"">Is there a person in this image?</p>
                        </div>
                    </div>","0","main_causal_task","2","the_performance_causal","","","","",""
"","","","","","html-keyboard-response","115","331246","0.0-115.0","B5E98DF9E03740D3A73454C0E2FD1A6F","019ce87d-7b70-7b50-a64d-3cada31c2f0b","019ce875-66c2-7f0b-b5e8-086c75889f84","","null","
                    <div class=""stimulus-container"">
                        <img src=""images/causal_sequence/the_performance_causal/the_performance_causal_3.png"" class=""exp-image"">
                        <div class=""question-area""></div> 
                    </div>","null","","","","","","","",""
"","","","","","html-button-response","116","334250","0.0-116.0","B5E98DF9E03740D3A73454C0E2FD1A6F","019ce87d-7b70-7b50-a64d-3cada31c2f0b","019ce875-66c2-7f0b-b5e8-086c75889f84","","null","
                    <div class=""stimulus-container"">
                        <img src=""images/causal_sequence/the_performance_causal/the_performance_causal_3.png"" class=""exp-image"">
                        <div class=""question-area"">
                            <p style=""font-size: 20px; font-weight: bold; margin: 0;"">Is there a person in this image?</p>
                        </div>
                    </div>","null","main_causal_task","3","the_performance_causal","","","","",""
"","","","","","html-keyboard-response","117","339253","0.0-117.0","B5E98DF9E03740D3A73454C0E2FD1A6F","019ce87d-7b70-7b50-a64d-3cada31c2f0b","019ce875-66c2-7f0b-b5e8-086c75889f84","","null","
                    <div class=""stimulus-container"">
                        <img src=""images/causal_sequence/the_performance_causal/the_performance_causal_4.png"" class=""exp-image"">
                        <div class=""question-area""></div> 
                    </div>","null","","","","","","","",""
"","","","","","html-button-response","118","339745","0.0-118.0","B5E98DF9E03740D3A73454C0E2FD1A6F","019ce87d-7b70-7b50-a64d-3cada31c2f0b","019ce875-66c2-7f0b-b5e8-086c75889f84","","491","
                    <div class=""stimulus-container"">
                        <img src=""images/causal_sequence/the_performance_causal/the_performance_causal_4.png"" class=""exp-image"">
                        <div class=""question-area"">
                            <p style=""font-size: 20px; font-weight: bold; margin: 0;"">Is there a person in this image?</p>
                        </div>
                    </div>","0","main_causal_task","4","the_performance_causal","","","","",""
"","","","","","html-keyboard-response","119","344748","0.0-119.0","B5E98DF9E03740D3A73454C0E2FD1A6F","019ce87d-7b70-7b50-a64d-3cada31c2f0b","019ce875-66c2-7f0b-b5e8-086c75889f84","","null","
                    <div class=""stimulus-container"">
                        <img src=""images/causal_sequence/the_performance_causal/the_performance_causal_5.png"" class=""exp-image"">
                        <div class=""question-area""></div> 
                    </div>","null","","","","","","","",""
"","","","","","html-button-response","120","346511","0.0-120.0","B5E98DF9E03740D3A73454C0E2FD1A6F","019ce87d-7b70-7b50-a64d-3cada31c2f0b","019ce875-66c2-7f0b-b5e8-086c75889f84","","1762","
                    <div class=""stimulus-container"">
                        <img src=""images/causal_sequence/the_performance_causal/the_performance_causal_5.png"" class=""exp-image"">
                        <div class=""question-area"">
                            <p style=""font-size: 20px; font-weight: bold; margin: 0;"">Is there a person in this image?</p>
                        </div>
                    </div>","0","main_causal_task","5","the_performance_causal","","","","",""
"","","","","","html-keyboard-response","121","351515","0.0-121.0","B5E98DF9E03740D3A73454C0E2FD1A6F","019ce87d-7b70-7b50-a64d-3cada31c2f0b","019ce875-66c2-7f0b-b5e8-086c75889f84","","null","
                    <div class=""stimulus-container"">
                        <img src=""images/causal_sequence/the_performance_causal/the_performance_causal_6.png"" class=""exp-image"">
                        <div class=""question-area""></div> 
                    </div>","null","","","","","","","",""
"","","","","","html-button-response","122","352793","0.0-122.0","B5E98DF9E03740D3A73454C0E2FD1A6F","019ce87d-7b70-7b50-a64d-3cada31c2f0b","019ce875-66c2-7f0b-b5e8-086c75889f84","","1277","
                    <div class=""stimulus-container"">
                        <img src=""images/causal_sequence/the_performance_causal/the_performance_causal_6.png"" class=""exp-image"">
                        <div class=""question-area"">
                            <p style=""font-size: 20px; font-weight: bold; margin: 0;"">Is there a person in this image?</p>
                        </div>
                    </div>","0","main_causal_task","6","the_performance_causal","","","","",""
"","","","","","html-keyboard-response","123","357794","0.0-123.0","B5E98DF9E03740D3A73454C0E2FD1A6F","019ce87d-7b70-7b50-a64d-3cada31c2f0b","019ce875-66c2-7f0b-b5e8-086c75889f84","","null","
                    <div class=""stimulus-container"">
                        <img src=""images/causal_sequence/the_performance_causal/the_performance_causal_7.png"" class=""exp-image"">
                        <div class=""question-area""></div> 
                    </div>","null","","","","","","","",""
"","","","","","html-button-response","124","359611","0.0-124.0","B5E98DF9E03740D3A73454C0E2FD1A6F","019ce87d-7b70-7b50-a64d-3cada31c2f0b","019ce875-66c2-7f0b-b5e8-086c75889f84","","1815","
                    <div class=""stimulus-container"">
                        <img src=""images/causal_sequence/the_performance_causal/the_performance_causal_7.png"" class=""exp-image"">
                        <div class=""question-area"">
                            <p style=""font-size: 20px; font-weight: bold; margin: 0;"">Is there a person in this image?</p>
                        </div>
                    </div>","0","main_causal_task","7","the_performance_causal","","","","",""
"","","","","","html-keyboard-response","125","364613","0.0-125.0","B5E98DF9E03740D3A73454C0E2FD1A6F","019ce87d-7b70-7b50-a64d-3cada31c2f0b","019ce875-66c2-7f0b-b5e8-086c75889f84","","null","
                    <div class=""stimulus-container"">
                        <img src=""images/causal_sequence/the_performance_causal/the_performance_causal_8.png"" class=""exp-image"">
                        <div class=""question-area""></div> 
                    </div>","null","","","","","","","",""
"","","","","","html-button-response","126","366644","0.0-126.0","B5E98DF9E03740D3A73454C0E2FD1A6F","019ce87d-7b70-7b50-a64d-3cada31c2f0b","019ce875-66c2-7f0b-b5e8-086c75889f84","","2028","
                    <div class=""stimulus-container"">
                        <img src=""images/causal_sequence/the_performance_causal/the_performance_causal_8.png"" class=""exp-image"">
                        <div class=""question-area"">
                            <p style=""font-size: 20px; font-weight: bold; margin: 0;"">Is there a person in this image?</p>
                        </div>
                    </div>","0","main_causal_task","8","the_performance_causal","","","","",""
"","","","","","html-keyboard-response","127","371646","0.0-127.0","B5E98DF9E03740D3A73454C0E2FD1A6F","019ce87d-7b70-7b50-a64d-3cada31c2f0b","019ce875-66c2-7f0b-b5e8-086c75889f84","","null","
                    <div class=""stimulus-container"">
                        <img src=""images/causal_sequence/the_performance_causal/the_performance_causal_9.png"" class=""exp-image"">
                        <div class=""question-area""></div> 
                    </div>","null","","","","","","","",""
"","","","","","html-button-response","128","373261","0.0-128.0","B5E98DF9E03740D3A73454C0E2FD1A6F","019ce87d-7b70-7b50-a64d-3cada31c2f0b","019ce875-66c2-7f0b-b5e8-086c75889f84","","1613","
                    <div class=""stimulus-container"">
                        <img src=""images/causal_sequence/the_performance_causal/the_performance_causal_9.png"" class=""exp-image"">
                        <div class=""question-area"">
                            <p style=""font-size: 20px; font-weight: bold; margin: 0;"">Is there a person in this image?</p>
                        </div>
                    </div>","0","main_causal_task","9","the_performance_causal","","","","",""
"","","","","","instructions","129","379661","0.0-129.0","B5E98DF9E03740D3A73454C0E2FD1A6F","019ce87d-7b70-7b50-a64d-3cada31c2f0b","019ce875-66c2-7f0b-b5e8-086c75889f84","[{""page_index"":0,""viewing_time"":6399}]","6399","","","","","","","","","",""
"","","","","","instructions","130","381211","0.0-130.0","B5E98DF9E03740D3A73454C0E2FD1A6F","019ce87d-7b70-7b50-a64d-3cada31c2f0b","019ce875-66c2-7f0b-b5e8-086c75889f84","[{""page_index"":0,""viewing_time"":1549}]","1549","","","","","","","","","",""
"","","","","","html-button-response","131","390892","0.0-131.0-0.0","B5E98DF9E03740D3A73454C0E2FD1A6F","019ce87d-7b70-7b50-a64d-3cada31c2f0b","019ce875-66c2-7f0b-b5e8-086c75889f84","","9679","
                <div style=""margin-bottom:20px;""><h3>Example: Valuable Image</h3></div>
                <div class=""stimulus-container"" style=""display: flex; align-items: center; justify-content: center; gap: 30px;"">
                    <img src=""images/instructions/movie_1.png"" class=""exp-image"">
                    <div style=""font-size: 35px; font-weight: bold; color: green; border: 5px solid green; padding: 20px; border-radius: 15px; background-color: #f0fff0;"">
                        WORTH<br>$1
                    </div>
                </div>
                <div class=""question-area""><p>Was there a person in this image?</p></div>","0","","","","","","","",""
"","","","","","html-button-response","132","393127","0.0-131.0-1.0","B5E98DF9E03740D3A73454C0E2FD1A6F","019ce87d-7b70-7b50-a64d-3cada31c2f0b","019ce875-66c2-7f0b-b5e8-086c75889f84","","2235","
                <div style=""margin-bottom:20px;""><h3>Example: Neutral Image</h3></div>
                <div class=""stimulus-container"" style=""display: flex; align-items: center; justify-content: center; gap: 30px;"">
                    <img src=""images/instructions/movie_2.png"" class=""exp-image"">
                    <div style=""font-size: 35px; font-weight: bold; color: grey; border: 5px solid grey; padding: 20px; border-radius: 15px; background-color: #f0f0f0;"">
                        NEUTRAL<br>VALUE
                    </div>
                </div>
                <div class=""question-area""><p>Was there a person in this image?</p></div>","1","","","","","","","",""
"","","","","","html-keyboard-response","133","401130","0.0-132.0","B5E98DF9E03740D3A73454C0E2FD1A6F","019ce87d-7b70-7b50-a64d-3cada31c2f0b","019ce875-66c2-7f0b-b5e8-086c75889f84","","null","
            <div class=""stimulus-container"" style=""display: flex; align-items: center; justify-content: center; gap: 30px;"">
                <img src=""images/causal_sequence/museum_causal/museum_causal_4.png"" class=""exp-image"">
                <div style=""font-size: 40px; font-weight: bold; color: green; border: 5px solid green; padding: 25px; border-radius: 15px; background-color: #f0fff0;"">
                    WORTH<br>$1
                </div>
            </div>
            <div class=""question-area""></div>","null","","","","","","","",""
"","","","","","html-button-response","134","403110","0.0-133.0","B5E98DF9E03740D3A73454C0E2FD1A6F","019ce87d-7b70-7b50-a64d-3cada31c2f0b","019ce875-66c2-7f0b-b5e8-086c75889f84","","1979","
            <div class=""stimulus-container"" style=""display: flex; align-items: center; justify-content: center; gap: 30px;"">
                <img src=""images/causal_sequence/museum_causal/museum_causal_4.png"" class=""exp-image"">
                <div style=""font-size: 40px; font-weight: bold; color: green; border: 5px solid green; padding: 25px; border-radius: 15px; background-color: #f0fff0;"">
                    WORTH<br>$1
                </div>
            </div>
            <div class=""question-area"">
                <p style=""font-size: 20px; font-weight: bold; margin: 0;"">Was there a person in this image?</p>
            </div>","1","part2_value_learning","","museum_causal","4","valuable","","",""
"","","","","","html-keyboard-response","135","411113","0.0-134.0","B5E98DF9E03740D3A73454C0E2FD1A6F","019ce87d-7b70-7b50-a64d-3cada31c2f0b","019ce875-66c2-7f0b-b5e8-086c75889f84","","null","
            <div class=""stimulus-container"" style=""display: flex; align-items: center; justify-content: center; gap: 30px;"">
                <img src=""images/causal_sequence/the_performance_causal/the_performance_causal_5.png"" class=""exp-image"">
                <div style=""font-size: 40px; font-weight: bold; color: green; border: 5px solid green; padding: 25px; border-radius: 15px; background-color: #f0fff0;"">
                    WORTH<br>$1
                </div>
            </div>
            <div class=""question-area""></div>","null","","","","","","","",""
"","","","","","html-button-response","136","412210","0.0-135.0","B5E98DF9E03740D3A73454C0E2FD1A6F","019ce87d-7b70-7b50-a64d-3cada31c2f0b","019ce875-66c2-7f0b-b5e8-086c75889f84","","1096","
            <div class=""stimulus-container"" style=""display: flex; align-items: center; justify-content: center; gap: 30px;"">
                <img src=""images/causal_sequence/the_performance_causal/the_performance_causal_5.png"" class=""exp-image"">
                <div style=""font-size: 40px; font-weight: bold; color: green; border: 5px solid green; padding: 25px; border-radius: 15px; background-color: #f0fff0;"">
                    WORTH<br>$1
                </div>
            </div>
            <div class=""question-area"">
                <p style=""font-size: 20px; font-weight: bold; margin: 0;"">Was there a person in this image?</p>
            </div>","0","part2_value_learning","","the_performance_causal","5","valuable","","",""
"","","","","","html-keyboard-response","137","420212","0.0-136.0","B5E98DF9E03740D3A73454C0E2FD1A6F","019ce87d-7b70-7b50-a64d-3cada31c2f0b","019ce875-66c2-7f0b-b5e8-086c75889f84","","null","
            <div class=""stimulus-container"" style=""display: flex; align-items: center; justify-content: center; gap: 30px;"">
                <img src=""images/causal_sequence/dog_causal/dog_causal_6.png"" class=""exp-image"">
                <div style=""font-size: 40px; font-weight: bold; color: green; border: 5px solid green; padding: 25px; border-radius: 15px; background-color: #f0fff0;"">
                    WORTH<br>$1
                </div>
            </div>
            <div class=""question-area""></div>","null","","","","","","","",""
"","","","","","html-button-response","138","420744","0.0-137.0","B5E98DF9E03740D3A73454C0E2FD1A6F","019ce87d-7b70-7b50-a64d-3cada31c2f0b","019ce875-66c2-7f0b-b5e8-086c75889f84","","531","
            <div class=""stimulus-container"" style=""display: flex; align-items: center; justify-content: center; gap: 30px;"">
                <img src=""images/causal_sequence/dog_causal/dog_causal_6.png"" class=""exp-image"">
                <div style=""font-size: 40px; font-weight: bold; color: green; border: 5px solid green; padding: 25px; border-radius: 15px; background-color: #f0fff0;"">
                    WORTH<br>$1
                </div>
            </div>
            <div class=""question-area"">
                <p style=""font-size: 20px; font-weight: bold; margin: 0;"">Was there a person in this image?</p>
            </div>","0","part2_value_learning","","dog_causal","6","valuable","","",""
"","","","","","html-keyboard-response","139","428747","0.0-138.0","B5E98DF9E03740D3A73454C0E2FD1A6F","019ce87d-7b70-7b50-a64d-3cada31c2f0b","019ce875-66c2-7f0b-b5e8-086c75889f84","","null","
            <div class=""stimulus-container"" style=""display: flex; align-items: center; justify-content: center; gap: 30px;"">
                <img src=""images/causal_sequence/coin_causal/coin_causal_7.png"" class=""exp-image"">
                <div style=""font-size: 40px; font-weight: bold; color: grey; border: 5px solid grey; padding: 25px; border-radius: 15px; background-color: #f0f0f0;"">
                    NEUTRAL<br>VALUE
                </div>
            </div>
            <div class=""question-area""></div>","null","","","","","","","",""
"","","","","","html-button-response","140","429361","0.0-139.0","B5E98DF9E03740D3A73454C0E2FD1A6F","019ce87d-7b70-7b50-a64d-3cada31c2f0b","019ce875-66c2-7f0b-b5e8-086c75889f84","","613","
            <div class=""stimulus-container"" style=""display: flex; align-items: center; justify-content: center; gap: 30px;"">
                <img src=""images/causal_sequence/coin_causal/coin_causal_7.png"" class=""exp-image"">
                <div style=""font-size: 40px; font-weight: bold; color: grey; border: 5px solid grey; padding: 25px; border-radius: 15px; background-color: #f0f0f0;"">
                    NEUTRAL<br>VALUE
                </div>
            </div>
            <div class=""question-area"">
                <p style=""font-size: 20px; font-weight: bold; margin: 0;"">Was there a person in this image?</p>
            </div>","1","part2_value_learning","","coin_causal","7","neutral","","",""
"","","","","","html-keyboard-response","141","437364","0.0-140.0","B5E98DF9E03740D3A73454C0E2FD1A6F","019ce87d-7b70-7b50-a64d-3cada31c2f0b","019ce875-66c2-7f0b-b5e8-086c75889f84","","null","
            <div class=""stimulus-container"" style=""display: flex; align-items: center; justify-content: center; gap: 30px;"">
                <img src=""images/causal_sequence/package_causal/package_causal_4.png"" class=""exp-image"">
                <div style=""font-size: 40px; font-weight: bold; color: grey; border: 5px solid grey; padding: 25px; border-radius: 15px; background-color: #f0f0f0;"">
                    NEUTRAL<br>VALUE
                </div>
            </div>
            <div class=""question-area""></div>","null","","","","","","","",""
"","","","","","html-button-response","142","438177","0.0-141.0","B5E98DF9E03740D3A73454C0E2FD1A6F","019ce87d-7b70-7b50-a64d-3cada31c2f0b","019ce875-66c2-7f0b-b5e8-086c75889f84","","812","
            <div class=""stimulus-container"" style=""display: flex; align-items: center; justify-content: center; gap: 30px;"">
                <img src=""images/causal_sequence/package_causal/package_causal_4.png"" class=""exp-image"">
                <div style=""font-size: 40px; font-weight: bold; color: grey; border: 5px solid grey; padding: 25px; border-radius: 15px; background-color: #f0f0f0;"">
                    NEUTRAL<br>VALUE
                </div>
            </div>
            <div class=""question-area"">
                <p style=""font-size: 20px; font-weight: bold; margin: 0;"">Was there a person in this image?</p>
            </div>","1","part2_value_learning","","package_causal","4","neutral","","",""
"","","","","","html-keyboard-response","143","446180","0.0-142.0","B5E98DF9E03740D3A73454C0E2FD1A6F","019ce87d-7b70-7b50-a64d-3cada31c2f0b","019ce875-66c2-7f0b-b5e8-086c75889f84","","null","
            <div class=""stimulus-container"" style=""display: flex; align-items: center; justify-content: center; gap: 30px;"">
                <img src=""images/causal_sequence/saving_a_cat_causal/saving_a_cat_causal_3.png"" class=""exp-image"">
                <div style=""font-size: 40px; font-weight: bold; color: grey; border: 5px solid grey; padding: 25px; border-radius: 15px; background-color: #f0f0f0;"">
                    NEUTRAL<br>VALUE
                </div>
            </div>
            <div class=""question-area""></div>","null","","","","","","","",""
"","","","","","html-button-response","144","447811","0.0-143.0","B5E98DF9E03740D3A73454C0E2FD1A6F","019ce87d-7b70-7b50-a64d-3cada31c2f0b","019ce875-66c2-7f0b-b5e8-086c75889f84","","1629","
            <div class=""stimulus-container"" style=""display: flex; align-items: center; justify-content: center; gap: 30px;"">
                <img src=""images/causal_sequence/saving_a_cat_causal/saving_a_cat_causal_3.png"" class=""exp-image"">
                <div style=""font-size: 40px; font-weight: bold; color: grey; border: 5px solid grey; padding: 25px; border-radius: 15px; background-color: #f0f0f0;"">
                    NEUTRAL<br>VALUE
                </div>
            </div>
            <div class=""question-area"">
                <p style=""font-size: 20px; font-weight: bold; margin: 0;"">Was there a person in this image?</p>
            </div>","1","part2_value_learning","","saving_a_cat_causal","3","neutral","","",""
"","","","","","instructions","145","452544","0.0-144.0","B5E98DF9E03740D3A73454C0E2FD1A6F","019ce87d-7b70-7b50-a64d-3cada31c2f0b","019ce875-66c2-7f0b-b5e8-086c75889f84","[{""page_index"":0,""viewing_time"":4732}]","4732","","","","","","","","","",""
"","","","","","html-keyboard-response","146","462548","0.0-145.0-0.0","B5E98DF9E03740D3A73454C0E2FD1A6F","019ce87d-7b70-7b50-a64d-3cada31c2f0b","019ce875-66c2-7f0b-b5e8-086c75889f84","","null","
                        <div style=""font-family: Arial; margin-bottom: 20px;""><h3>Which image is more valuable?</h3></div>
                        <div class=""stimulus-container"" style=""display: flex; width: 1100px; justify-content: center; gap: 50px;"">
                            <img src=""images/causal_sequence/coin_causal/coin_causal_8.png"" class=""exp-image"">
                            <img src=""images/causal_sequence/coin_causal/coin_causal_6.png"" class=""exp-image"">
                        </div>","null","","","","","","","",""
"","","","","","html-button-response","147","463560","0.0-145.0-1.0","B5E98DF9E03740D3A73454C0E2FD1A6F","019ce87d-7b70-7b50-a64d-3cada31c2f0b","019ce875-66c2-7f0b-b5e8-086c75889f84","","1010","
                        <div style=""font-family: Arial; margin-bottom: 20px;""><h3>Which image is more valuable?</h3></div>
                        <div class=""stimulus-container"" style=""display: flex; width: 1100px; justify-content: center; gap: 50px;"">
                            <img src=""images/causal_sequence/coin_causal/coin_causal_8.png"" class=""exp-image"">
                            <img src=""images/causal_sequence/coin_causal/coin_causal_6.png"" class=""exp-image"">
                        </div>","0","part3_final_choice","","coin_causal","","neutral","7","8","1"
"","","","","","html-keyboard-response","148","473564","0.0-146.0-0.0","B5E98DF9E03740D3A73454C0E2FD1A6F","019ce87d-7b70-7b50-a64d-3cada31c2f0b","019ce875-66c2-7f0b-b5e8-086c75889f84","","null","
                        <div style=""font-family: Arial; margin-bottom: 20px;""><h3>Which image is more valuable?</h3></div>
                        <div class=""stimulus-container"" style=""display: flex; width: 1100px; justify-content: center; gap: 50px;"">
                            <img src=""images/causal_sequence/dog_causal/dog_causal_5.png"" class=""exp-image"">
                            <img src=""images/causal_sequence/dog_causal/dog_causal_7.png"" class=""exp-image"">
                        </div>","null","","","","","","","",""
"","","","","","html-button-response","149","474993","0.0-146.0-1.0","B5E98DF9E03740D3A73454C0E2FD1A6F","019ce87d-7b70-7b50-a64d-3cada31c2f0b","019ce875-66c2-7f0b-b5e8-086c75889f84","","1427","
                        <div style=""font-family: Arial; margin-bottom: 20px;""><h3>Which image is more valuable?</h3></div>
                        <div class=""stimulus-container"" style=""display: flex; width: 1100px; justify-content: center; gap: 50px;"">
                            <img src=""images/causal_sequence/dog_causal/dog_causal_5.png"" class=""exp-image"">
                            <img src=""images/causal_sequence/dog_causal/dog_causal_7.png"" class=""exp-image"">
                        </div>","1","part3_final_choice","","dog_causal","","valuable","6","7","1"
"","","","","","html-keyboard-response","150","484996","0.0-147.0-0.0","B5E98DF9E03740D3A73454C0E2FD1A6F","019ce87d-7b70-7b50-a64d-3cada31c2f0b","019ce875-66c2-7f0b-b5e8-086c75889f84","","null","
                        <div style=""font-family: Arial; margin-bottom: 20px;""><h3>Which image is more valuable?</h3></div>
                        <div class=""stimulus-container"" style=""display: flex; width: 1100px; justify-content: center; gap: 50px;"">
                            <img src=""images/causal_sequence/package_causal/package_causal_3.png"" class=""exp-image"">
                            <img src=""images/causal_sequence/package_causal/package_causal_5.png"" class=""exp-image"">
                        </div>","null","","","","","","","",""
"","","","","","html-button-response","151","488326","0.0-147.0-1.0","B5E98DF9E03740D3A73454C0E2FD1A6F","019ce87d-7b70-7b50-a64d-3cada31c2f0b","019ce875-66c2-7f0b-b5e8-086c75889f84","","3329","
                        <div style=""font-family: Arial; margin-bottom: 20px;""><h3>Which image is more valuable?</h3></div>
                        <div class=""stimulus-container"" style=""display: flex; width: 1100px; justify-content: center; gap: 50px;"">
                            <img src=""images/causal_sequence/package_causal/package_causal_3.png"" class=""exp-image"">
                            <img src=""images/causal_sequence/package_causal/package_causal_5.png"" class=""exp-image"">
                        </div>","1","part3_final_choice","","package_causal","","neutral","4","5","1"
"","","","","","html-keyboard-response","152","498329","0.0-148.0-0.0","B5E98DF9E03740D3A73454C0E2FD1A6F","019ce87d-7b70-7b50-a64d-3cada31c2f0b","019ce875-66c2-7f0b-b5e8-086c75889f84","","null","
                        <div style=""font-family: Arial; margin-bottom: 20px;""><h3>Which image is more valuable?</h3></div>
                        <div class=""stimulus-container"" style=""display: flex; width: 1100px; justify-content: center; gap: 50px;"">
                            <img src=""images/causal_sequence/saving_a_cat_causal/saving_a_cat_causal_4.png"" class=""exp-image"">
                            <img src=""images/causal_sequence/saving_a_cat_causal/saving_a_cat_causal_2.png"" class=""exp-image"">
                        </div>","null","","","","","","","",""
"","","","","","html-button-response","153","499542","0.0-148.0-1.0","B5E98DF9E03740D3A73454C0E2FD1A6F","019ce87d-7b70-7b50-a64d-3cada31c2f0b","019ce875-66c2-7f0b-b5e8-086c75889f84","","1211","
                        <div style=""font-family: Arial; margin-bottom: 20px;""><h3>Which image is more valuable?</h3></div>
                        <div class=""stimulus-container"" style=""display: flex; width: 1100px; justify-content: center; gap: 50px;"">
                            <img src=""images/causal_sequence/saving_a_cat_causal/saving_a_cat_causal_4.png"" class=""exp-image"">
                            <img src=""images/causal_sequence/saving_a_cat_causal/saving_a_cat_causal_2.png"" class=""exp-image"">
                        </div>","1","part3_final_choice","","saving_a_cat_causal","","neutral","3","2","-1"
"","","","","","html-keyboard-response","154","509545","0.0-149.0-0.0","B5E98DF9E03740D3A73454C0E2FD1A6F","019ce87d-7b70-7b50-a64d-3cada31c2f0b","019ce875-66c2-7f0b-b5e8-086c75889f84","","null","
                        <div style=""font-family: Arial; margin-bottom: 20px;""><h3>Which image is more valuable?</h3></div>
                        <div class=""stimulus-container"" style=""display: flex; width: 1100px; justify-content: center; gap: 50px;"">
                            <img src=""images/causal_sequence/the_performance_causal/the_performance_causal_4.png"" class=""exp-image"">
                            <img src=""images/causal_sequence/the_performance_causal/the_performance_causal_6.png"" class=""exp-image"">
                        </div>","null","","","","","","","",""
"","","","","","html-button-response","155","512077","0.0-149.0-1.0","B5E98DF9E03740D3A73454C0E2FD1A6F","019ce87d-7b70-7b50-a64d-3cada31c2f0b","019ce875-66c2-7f0b-b5e8-086c75889f84","","2530","
                        <div style=""font-family: Arial; margin-bottom: 20px;""><h3>Which image is more valuable?</h3></div>
                        <div class=""stimulus-container"" style=""display: flex; width: 1100px; justify-content: center; gap: 50px;"">
                            <img src=""images/causal_sequence/the_performance_causal/the_performance_causal_4.png"" class=""exp-image"">
                            <img src=""images/causal_sequence/the_performance_causal/the_performance_causal_6.png"" class=""exp-image"">
                        </div>","0","part3_final_choice","","the_performance_causal","","valuable","5","4","-1"
"","","","","","html-keyboard-response","156","522080","0.0-150.0-0.0","B5E98DF9E03740D3A73454C0E2FD1A6F","019ce87d-7b70-7b50-a64d-3cada31c2f0b","019ce875-66c2-7f0b-b5e8-086c75889f84","","null","
                        <div style=""font-family: Arial; margin-bottom: 20px;""><h3>Which image is more valuable?</h3></div>
                        <div class=""stimulus-container"" style=""display: flex; width: 1100px; justify-content: center; gap: 50px;"">
                            <img src=""images/causal_sequence/museum_causal/museum_causal_5.png"" class=""exp-image"">
                            <img src=""images/causal_sequence/museum_causal/museum_causal_3.png"" class=""exp-image"">
                        </div>","null","","","","","","","",""
"","","","","","html-button-response","157","528892","0.0-150.0-1.0","B5E98DF9E03740D3A73454C0E2FD1A6F","019ce87d-7b70-7b50-a64d-3cada31c2f0b","019ce875-66c2-7f0b-b5e8-086c75889f84","","6811","
                        <div style=""font-family: Arial; margin-bottom: 20px;""><h3>Which image is more valuable?</h3></div>
                        <div class=""stimulus-container"" style=""display: flex; width: 1100px; justify-content: center; gap: 50px;"">
                            <img src=""images/causal_sequence/museum_causal/museum_causal_5.png"" class=""exp-image"">
                            <img src=""images/causal_sequence/museum_causal/museum_causal_3.png"" class=""exp-image"">
                        </div>","0","part3_final_choice","","museum_causal","","valuable","4","5","1"
"","","","","","survey-text","158","576676","0.0-151.0","B5E98DF9E03740D3A73454C0E2FD1A6F","019ce87d-7b70-7b50-a64d-3cada31c2f0b","019ce875-66c2-7f0b-b5e8-086c75889f84","","47778","","{""gender"":""male"",""age"":""30"",""decision_strategy"":""by humans being in it"",""consistency_check"":""i am not sure just gut feeling""}","demographics_and_strategy","","","","","","",""
"","","","","","instructions","159","581842","0.0-152.0","B5E98DF9E03740D3A73454C0E2FD1A6F","019ce87d-7b70-7b50-a64d-3cada31c2f0b","019ce875-66c2-7f0b-b5e8-086c75889f84","[{""page_index"":0,""viewing_time"":5166}]","5166","","","","","","","","","",""
