"success","timeout","failed_images","failed_audio","failed_video","trial_type","trial_index","time_elapsed","internal_node_id","subject_id","study_id","session_id","view_history","rt","stimulus","response","task","image_index","folder","sequence_type","valuable_image_index","reward_type","chosen_image_index","target_X","correct_choice"
"true","false","[]","[]","[]","preload","0","11908","0.0-0.0","156A9D4D463243D18E819D220981A96A","019cf796-e206-74ed-a570-611a1d3df82a","019cf78c-cfcf-769c-9016-9b96552b5e33","","","","","","","","","","","","",""
"","","","","","instructions","1","21782","0.0-1.0","156A9D4D463243D18E819D220981A96A","019cf796-e206-74ed-a570-611a1d3df82a","019cf78c-cfcf-769c-9016-9b96552b5e33","[{""page_index"":0,""viewing_time"":9873}]","9874","","","","","","","","","","",""
"","","","","","instructions","2","88465","0.0-2.0","156A9D4D463243D18E819D220981A96A","019cf796-e206-74ed-a570-611a1d3df82a","019cf78c-cfcf-769c-9016-9b96552b5e33","[{""page_index"":0,""viewing_time"":66683}]","66683","","","","","","","","","","",""
"true","","","","","fullscreen","3","92416","0.0-3.0","156A9D4D463243D18E819D220981A96A","019cf796-e206-74ed-a570-611a1d3df82a","019cf78c-cfcf-769c-9016-9b96552b5e33","","2948","","","","","","","","","","",""
"","","","","","instructions","4","134865","0.0-4.0","156A9D4D463243D18E819D220981A96A","019cf796-e206-74ed-a570-611a1d3df82a","019cf78c-cfcf-769c-9016-9b96552b5e33","[{""page_index"":0,""viewing_time"":42449}]","42449","","","","","","","","","","",""
"","","","","","instructions","5","154781","0.0-5.0","156A9D4D463243D18E819D220981A96A","019cf796-e206-74ed-a570-611a1d3df82a","019cf78c-cfcf-769c-9016-9b96552b5e33","[{""page_index"":0,""viewing_time"":19915}]","19916","","","","","","","","","","",""
"","","","","","html-keyboard-response","6","158785","0.0-6.0","156A9D4D463243D18E819D220981A96A","019cf796-e206-74ed-a570-611a1d3df82a","019cf78c-cfcf-769c-9016-9b96552b5e33","","null","
                <div class=""stimulus-container"">
                    <img src=""images/instructions/movie_1.png"" class=""exp-image"">
                    <div class=""question-area""></div> 
                </div>","null","","","","","","","","",""
"","","","","","html-button-response","7","161500","0.0-7.0","156A9D4D463243D18E819D220981A96A","019cf796-e206-74ed-a570-611a1d3df82a","019cf78c-cfcf-769c-9016-9b96552b5e33","","2712","
                <div class=""stimulus-container"">
                    <img src=""images/instructions/movie_1.png"" class=""exp-image"">
                    <div class=""question-area"">
                        <p style=""font-size: 20px; font-weight: bold; margin: 0;"">Was there a person in this image?</p>
                    </div>
                </div>","0","example_question","1","","","","","","",""
"","","","","","html-keyboard-response","8","165502","0.0-8.0","156A9D4D463243D18E819D220981A96A","019cf796-e206-74ed-a570-611a1d3df82a","019cf78c-cfcf-769c-9016-9b96552b5e33","","null","
                <div class=""stimulus-container"">
                    <img src=""images/instructions/movie_2.png"" class=""exp-image"">
                    <div class=""question-area""></div> 
                </div>","null","","","","","","","","",""
"","","","","","html-button-response","9","168148","0.0-9.0","156A9D4D463243D18E819D220981A96A","019cf796-e206-74ed-a570-611a1d3df82a","019cf78c-cfcf-769c-9016-9b96552b5e33","","2645","
                <div class=""stimulus-container"">
                    <img src=""images/instructions/movie_2.png"" class=""exp-image"">
                    <div class=""question-area"">
                        <p style=""font-size: 20px; font-weight: bold; margin: 0;"">Was there a person in this image?</p>
                    </div>
                </div>","0","example_question","2","","","","","","",""
"","","","","","html-keyboard-response","10","172151","0.0-10.0","156A9D4D463243D18E819D220981A96A","019cf796-e206-74ed-a570-611a1d3df82a","019cf78c-cfcf-769c-9016-9b96552b5e33","","null","
                <div class=""stimulus-container"">
                    <img src=""images/instructions/movie_3.png"" class=""exp-image"">
                    <div class=""question-area""></div> 
                </div>","null","","","","","","","","",""
"","","","","","html-button-response","11","173332","0.0-11.0","156A9D4D463243D18E819D220981A96A","019cf796-e206-74ed-a570-611a1d3df82a","019cf78c-cfcf-769c-9016-9b96552b5e33","","1180","
                <div class=""stimulus-container"">
                    <img src=""images/instructions/movie_3.png"" class=""exp-image"">
                    <div class=""question-area"">
                        <p style=""font-size: 20px; font-weight: bold; margin: 0;"">Was there a person in this image?</p>
                    </div>
                </div>","0","example_question","3","","","","","","",""
"","","","","","html-keyboard-response","12","177334","0.0-12.0","156A9D4D463243D18E819D220981A96A","019cf796-e206-74ed-a570-611a1d3df82a","019cf78c-cfcf-769c-9016-9b96552b5e33","","null","
                <div class=""stimulus-container"">
                    <img src=""images/instructions/movie_4.png"" class=""exp-image"">
                    <div class=""question-area""></div> 
                </div>","null","","","","","","","","",""
"","","","","","html-button-response","13","178849","0.0-13.0","156A9D4D463243D18E819D220981A96A","019cf796-e206-74ed-a570-611a1d3df82a","019cf78c-cfcf-769c-9016-9b96552b5e33","","1513","
                <div class=""stimulus-container"">
                    <img src=""images/instructions/movie_4.png"" class=""exp-image"">
                    <div class=""question-area"">
                        <p style=""font-size: 20px; font-weight: bold; margin: 0;"">Was there a person in this image?</p>
                    </div>
                </div>","0","example_question","4","","","","","","",""
"","","","","","instructions","14","204098","0.0-14.0","156A9D4D463243D18E819D220981A96A","019cf796-e206-74ed-a570-611a1d3df82a","019cf78c-cfcf-769c-9016-9b96552b5e33","[{""page_index"":0,""viewing_time"":25249}]","25250","","","","","","","","","","",""
"","","","","","instructions","15","270432","0.0-15.0","156A9D4D463243D18E819D220981A96A","019cf796-e206-74ed-a570-611a1d3df82a","019cf78c-cfcf-769c-9016-9b96552b5e33","[{""page_index"":0,""viewing_time"":66334}]","66334","","","","","","","","","","",""
"","","","","","html-keyboard-response","16","271434","0.0-16.0","156A9D4D463243D18E819D220981A96A","019cf796-e206-74ed-a570-611a1d3df82a","019cf78c-cfcf-769c-9016-9b96552b5e33","","null","<div style=""background-color: white; width: 100vw; height: 100vh;""></div>","null","","","","","","","","",""
"","","","","","html-keyboard-response","17","276436","0.0-17.0","156A9D4D463243D18E819D220981A96A","019cf796-e206-74ed-a570-611a1d3df82a","019cf78c-cfcf-769c-9016-9b96552b5e33","","null","
                <div class=""stimulus-container"">
                    <img src=""images/schematic_sequence/interview_scheme/interview_scheme_1.png"" class=""exp-image"">
                    <div class=""question-area""></div> 
                </div>","null","","","","","","","","",""
"","","","","","html-button-response","18","277898","0.0-18.0","156A9D4D463243D18E819D220981A96A","019cf796-e206-74ed-a570-611a1d3df82a","019cf78c-cfcf-769c-9016-9b96552b5e33","","1461","
                <div class=""stimulus-container"">
                    <img src=""images/schematic_sequence/interview_scheme/interview_scheme_1.png"" class=""exp-image"">
                    <div class=""question-area"">
                        <p style=""font-size: 20px; font-weight: bold; margin: 0;"">Is there a person in this image?</p>
                    </div>
                </div>","1","main_experiment_trial","1","interview_scheme","schematic_sequence","","","","",""
"","","","","","html-keyboard-response","19","282900","0.0-19.0","156A9D4D463243D18E819D220981A96A","019cf796-e206-74ed-a570-611a1d3df82a","019cf78c-cfcf-769c-9016-9b96552b5e33","","null","
                <div class=""stimulus-container"">
                    <img src=""images/schematic_sequence/interview_scheme/interview_scheme_2.png"" class=""exp-image"">
                    <div class=""question-area""></div> 
                </div>","null","","","","","","","","",""
"","","","","","html-button-response","20","285099","0.0-20.0","156A9D4D463243D18E819D220981A96A","019cf796-e206-74ed-a570-611a1d3df82a","019cf78c-cfcf-769c-9016-9b96552b5e33","","2197","
                <div class=""stimulus-container"">
                    <img src=""images/schematic_sequence/interview_scheme/interview_scheme_2.png"" class=""exp-image"">
                    <div class=""question-area"">
                        <p style=""font-size: 20px; font-weight: bold; margin: 0;"">Is there a person in this image?</p>
                    </div>
                </div>","1","main_experiment_trial","2","interview_scheme","schematic_sequence","","","","",""
"","","","","","html-keyboard-response","21","290101","0.0-21.0","156A9D4D463243D18E819D220981A96A","019cf796-e206-74ed-a570-611a1d3df82a","019cf78c-cfcf-769c-9016-9b96552b5e33","","null","
                <div class=""stimulus-container"">
                    <img src=""images/schematic_sequence/interview_scheme/interview_scheme_3.png"" class=""exp-image"">
                    <div class=""question-area""></div> 
                </div>","null","","","","","","","","",""
"","","","","","html-button-response","22","291532","0.0-22.0","156A9D4D463243D18E819D220981A96A","019cf796-e206-74ed-a570-611a1d3df82a","019cf78c-cfcf-769c-9016-9b96552b5e33","","1429","
                <div class=""stimulus-container"">
                    <img src=""images/schematic_sequence/interview_scheme/interview_scheme_3.png"" class=""exp-image"">
                    <div class=""question-area"">
                        <p style=""font-size: 20px; font-weight: bold; margin: 0;"">Is there a person in this image?</p>
                    </div>
                </div>","1","main_experiment_trial","3","interview_scheme","schematic_sequence","","","","",""
"","","","","","html-keyboard-response","23","296534","0.0-23.0","156A9D4D463243D18E819D220981A96A","019cf796-e206-74ed-a570-611a1d3df82a","019cf78c-cfcf-769c-9016-9b96552b5e33","","null","
                <div class=""stimulus-container"">
                    <img src=""images/schematic_sequence/interview_scheme/interview_scheme_4.png"" class=""exp-image"">
                    <div class=""question-area""></div> 
                </div>","null","","","","","","","","",""
"","","","","","html-button-response","24","298234","0.0-24.0","156A9D4D463243D18E819D220981A96A","019cf796-e206-74ed-a570-611a1d3df82a","019cf78c-cfcf-769c-9016-9b96552b5e33","","1699","
                <div class=""stimulus-container"">
                    <img src=""images/schematic_sequence/interview_scheme/interview_scheme_4.png"" class=""exp-image"">
                    <div class=""question-area"">
                        <p style=""font-size: 20px; font-weight: bold; margin: 0;"">Is there a person in this image?</p>
                    </div>
                </div>","1","main_experiment_trial","4","interview_scheme","schematic_sequence","","","","",""
"","","","","","html-keyboard-response","25","303236","0.0-25.0","156A9D4D463243D18E819D220981A96A","019cf796-e206-74ed-a570-611a1d3df82a","019cf78c-cfcf-769c-9016-9b96552b5e33","","null","
                <div class=""stimulus-container"">
                    <img src=""images/schematic_sequence/interview_scheme/interview_scheme_5.png"" class=""exp-image"">
                    <div class=""question-area""></div> 
                </div>","null","","","","","","","","",""
"","","","","","html-button-response","26","306240","0.0-26.0","156A9D4D463243D18E819D220981A96A","019cf796-e206-74ed-a570-611a1d3df82a","019cf78c-cfcf-769c-9016-9b96552b5e33","","null","
                <div class=""stimulus-container"">
                    <img src=""images/schematic_sequence/interview_scheme/interview_scheme_5.png"" class=""exp-image"">
                    <div class=""question-area"">
                        <p style=""font-size: 20px; font-weight: bold; margin: 0;"">Is there a person in this image?</p>
                    </div>
                </div>","null","main_experiment_trial","5","interview_scheme","schematic_sequence","","","","",""
"","","","","","html-keyboard-response","27","311242","0.0-27.0","156A9D4D463243D18E819D220981A96A","019cf796-e206-74ed-a570-611a1d3df82a","019cf78c-cfcf-769c-9016-9b96552b5e33","","null","
                <div class=""stimulus-container"">
                    <img src=""images/schematic_sequence/interview_scheme/interview_scheme_6.png"" class=""exp-image"">
                    <div class=""question-area""></div> 
                </div>","null","","","","","","","","",""
"","","","","","html-button-response","28","314245","0.0-28.0","156A9D4D463243D18E819D220981A96A","019cf796-e206-74ed-a570-611a1d3df82a","019cf78c-cfcf-769c-9016-9b96552b5e33","","null","
                <div class=""stimulus-container"">
                    <img src=""images/schematic_sequence/interview_scheme/interview_scheme_6.png"" class=""exp-image"">
                    <div class=""question-area"">
                        <p style=""font-size: 20px; font-weight: bold; margin: 0;"">Is there a person in this image?</p>
                    </div>
                </div>","null","main_experiment_trial","6","interview_scheme","schematic_sequence","","","","",""
"","","","","","html-keyboard-response","29","319247","0.0-29.0","156A9D4D463243D18E819D220981A96A","019cf796-e206-74ed-a570-611a1d3df82a","019cf78c-cfcf-769c-9016-9b96552b5e33","","null","
                <div class=""stimulus-container"">
                    <img src=""images/schematic_sequence/interview_scheme/interview_scheme_7.png"" class=""exp-image"">
                    <div class=""question-area""></div> 
                </div>","null","","","","","","","","",""
"","","","","","html-button-response","30","320015","0.0-30.0","156A9D4D463243D18E819D220981A96A","019cf796-e206-74ed-a570-611a1d3df82a","019cf78c-cfcf-769c-9016-9b96552b5e33","","767","
                <div class=""stimulus-container"">
                    <img src=""images/schematic_sequence/interview_scheme/interview_scheme_7.png"" class=""exp-image"">
                    <div class=""question-area"">
                        <p style=""font-size: 20px; font-weight: bold; margin: 0;"">Is there a person in this image?</p>
                    </div>
                </div>","0","main_experiment_trial","7","interview_scheme","schematic_sequence","","","","",""
"","","","","","html-keyboard-response","31","325017","0.0-31.0","156A9D4D463243D18E819D220981A96A","019cf796-e206-74ed-a570-611a1d3df82a","019cf78c-cfcf-769c-9016-9b96552b5e33","","null","
                <div class=""stimulus-container"">
                    <img src=""images/schematic_sequence/interview_scheme/interview_scheme_8.png"" class=""exp-image"">
                    <div class=""question-area""></div> 
                </div>","null","","","","","","","","",""
"","","","","","html-button-response","32","325815","0.0-32.0","156A9D4D463243D18E819D220981A96A","019cf796-e206-74ed-a570-611a1d3df82a","019cf78c-cfcf-769c-9016-9b96552b5e33","","797","
                <div class=""stimulus-container"">
                    <img src=""images/schematic_sequence/interview_scheme/interview_scheme_8.png"" class=""exp-image"">
                    <div class=""question-area"">
                        <p style=""font-size: 20px; font-weight: bold; margin: 0;"">Is there a person in this image?</p>
                    </div>
                </div>","0","main_experiment_trial","8","interview_scheme","schematic_sequence","","","","",""
"","","","","","html-keyboard-response","33","330816","0.0-33.0","156A9D4D463243D18E819D220981A96A","019cf796-e206-74ed-a570-611a1d3df82a","019cf78c-cfcf-769c-9016-9b96552b5e33","","null","
                <div class=""stimulus-container"">
                    <img src=""images/schematic_sequence/interview_scheme/interview_scheme_9.png"" class=""exp-image"">
                    <div class=""question-area""></div> 
                </div>","null","","","","","","","","",""
"","","","","","html-button-response","34","331382","0.0-34.0","156A9D4D463243D18E819D220981A96A","019cf796-e206-74ed-a570-611a1d3df82a","019cf78c-cfcf-769c-9016-9b96552b5e33","","565","
                <div class=""stimulus-container"">
                    <img src=""images/schematic_sequence/interview_scheme/interview_scheme_9.png"" class=""exp-image"">
                    <div class=""question-area"">
                        <p style=""font-size: 20px; font-weight: bold; margin: 0;"">Is there a person in this image?</p>
                    </div>
                </div>","0","main_experiment_trial","9","interview_scheme","schematic_sequence","","","","",""
"","","","","","html-keyboard-response","35","336384","0.0-35.0","156A9D4D463243D18E819D220981A96A","019cf796-e206-74ed-a570-611a1d3df82a","019cf78c-cfcf-769c-9016-9b96552b5e33","","null","
                <div class=""stimulus-container"">
                    <img src=""images/schematic_sequence/interview_scheme/interview_scheme_ten.png"" class=""exp-image"">
                    <div class=""question-area""></div> 
                </div>","null","","","","","","","","",""
"","","","","","html-button-response","36","337231","0.0-36.0","156A9D4D463243D18E819D220981A96A","019cf796-e206-74ed-a570-611a1d3df82a","019cf78c-cfcf-769c-9016-9b96552b5e33","","847","
                <div class=""stimulus-container"">
                    <img src=""images/schematic_sequence/interview_scheme/interview_scheme_ten.png"" class=""exp-image"">
                    <div class=""question-area"">
                        <p style=""font-size: 20px; font-weight: bold; margin: 0;"">Is there a person in this image?</p>
                    </div>
                </div>","0","main_experiment_trial","ten","interview_scheme","schematic_sequence","","","","",""
"","","","","","html-keyboard-response","37","338234","0.0-37.0","156A9D4D463243D18E819D220981A96A","019cf796-e206-74ed-a570-611a1d3df82a","019cf78c-cfcf-769c-9016-9b96552b5e33","","null","<div style=""background-color: white; width: 100vw; height: 100vh;""></div>","null","","","","","","","","",""
"","","","","","html-keyboard-response","38","343236","0.0-38.0","156A9D4D463243D18E819D220981A96A","019cf796-e206-74ed-a570-611a1d3df82a","019cf78c-cfcf-769c-9016-9b96552b5e33","","null","
                <div class=""stimulus-container"">
                    <img src=""images/schematic_sequence/flight_scheme/flight_scheme_1.png"" class=""exp-image"">
                    <div class=""question-area""></div> 
                </div>","null","","","","","","","","",""
"","","","","","html-button-response","39","344615","0.0-39.0","156A9D4D463243D18E819D220981A96A","019cf796-e206-74ed-a570-611a1d3df82a","019cf78c-cfcf-769c-9016-9b96552b5e33","","1378","
                <div class=""stimulus-container"">
                    <img src=""images/schematic_sequence/flight_scheme/flight_scheme_1.png"" class=""exp-image"">
                    <div class=""question-area"">
                        <p style=""font-size: 20px; font-weight: bold; margin: 0;"">Is there a person in this image?</p>
                    </div>
                </div>","0","main_experiment_trial","1","flight_scheme","schematic_sequence","","","","",""
"","","","","","html-keyboard-response","40","349616","0.0-40.0","156A9D4D463243D18E819D220981A96A","019cf796-e206-74ed-a570-611a1d3df82a","019cf78c-cfcf-769c-9016-9b96552b5e33","","null","
                <div class=""stimulus-container"">
                    <img src=""images/schematic_sequence/flight_scheme/flight_scheme_2.png"" class=""exp-image"">
                    <div class=""question-area""></div> 
                </div>","null","","","","","","","","",""
"","","","","","html-button-response","41","350232","0.0-41.0","156A9D4D463243D18E819D220981A96A","019cf796-e206-74ed-a570-611a1d3df82a","019cf78c-cfcf-769c-9016-9b96552b5e33","","614","
                <div class=""stimulus-container"">
                    <img src=""images/schematic_sequence/flight_scheme/flight_scheme_2.png"" class=""exp-image"">
                    <div class=""question-area"">
                        <p style=""font-size: 20px; font-weight: bold; margin: 0;"">Is there a person in this image?</p>
                    </div>
                </div>","1","main_experiment_trial","2","flight_scheme","schematic_sequence","","","","",""
"","","","","","html-keyboard-response","42","355234","0.0-42.0","156A9D4D463243D18E819D220981A96A","019cf796-e206-74ed-a570-611a1d3df82a","019cf78c-cfcf-769c-9016-9b96552b5e33","","null","
                <div class=""stimulus-container"">
                    <img src=""images/schematic_sequence/flight_scheme/flight_scheme_3.png"" class=""exp-image"">
                    <div class=""question-area""></div> 
                </div>","null","","","","","","","","",""
"","","","","","html-button-response","43","355915","0.0-43.0","156A9D4D463243D18E819D220981A96A","019cf796-e206-74ed-a570-611a1d3df82a","019cf78c-cfcf-769c-9016-9b96552b5e33","","680","
                <div class=""stimulus-container"">
                    <img src=""images/schematic_sequence/flight_scheme/flight_scheme_3.png"" class=""exp-image"">
                    <div class=""question-area"">
                        <p style=""font-size: 20px; font-weight: bold; margin: 0;"">Is there a person in this image?</p>
                    </div>
                </div>","0","main_experiment_trial","3","flight_scheme","schematic_sequence","","","","",""
"","","","","","html-keyboard-response","44","360917","0.0-44.0","156A9D4D463243D18E819D220981A96A","019cf796-e206-74ed-a570-611a1d3df82a","019cf78c-cfcf-769c-9016-9b96552b5e33","","null","
                <div class=""stimulus-container"">
                    <img src=""images/schematic_sequence/flight_scheme/flight_scheme_4.png"" class=""exp-image"">
                    <div class=""question-area""></div> 
                </div>","null","","","","","","","","",""
"","","","","","html-button-response","45","361581","0.0-45.0","156A9D4D463243D18E819D220981A96A","019cf796-e206-74ed-a570-611a1d3df82a","019cf78c-cfcf-769c-9016-9b96552b5e33","","664","
                <div class=""stimulus-container"">
                    <img src=""images/schematic_sequence/flight_scheme/flight_scheme_4.png"" class=""exp-image"">
                    <div class=""question-area"">
                        <p style=""font-size: 20px; font-weight: bold; margin: 0;"">Is there a person in this image?</p>
                    </div>
                </div>","0","main_experiment_trial","4","flight_scheme","schematic_sequence","","","","",""
"","","","","","html-keyboard-response","46","366585","0.0-46.0","156A9D4D463243D18E819D220981A96A","019cf796-e206-74ed-a570-611a1d3df82a","019cf78c-cfcf-769c-9016-9b96552b5e33","","null","
                <div class=""stimulus-container"">
                    <img src=""images/schematic_sequence/flight_scheme/flight_scheme_5.png"" class=""exp-image"">
                    <div class=""question-area""></div> 
                </div>","null","","","","","","","","",""
"","","","","","html-button-response","47","367862","0.0-47.0","156A9D4D463243D18E819D220981A96A","019cf796-e206-74ed-a570-611a1d3df82a","019cf78c-cfcf-769c-9016-9b96552b5e33","","1345","
                <div class=""stimulus-container"">
                    <img src=""images/schematic_sequence/flight_scheme/flight_scheme_5.png"" class=""exp-image"">
                    <div class=""question-area"">
                        <p style=""font-size: 20px; font-weight: bold; margin: 0;"">Is there a person in this image?</p>
                    </div>
                </div>","0","main_experiment_trial","5","flight_scheme","schematic_sequence","","","","",""
"","","","","","html-keyboard-response","48","372864","0.0-48.0","156A9D4D463243D18E819D220981A96A","019cf796-e206-74ed-a570-611a1d3df82a","019cf78c-cfcf-769c-9016-9b96552b5e33","","null","
                <div class=""stimulus-container"">
                    <img src=""images/schematic_sequence/flight_scheme/flight_scheme_6.png"" class=""exp-image"">
                    <div class=""question-area""></div> 
                </div>","null","","","","","","","","",""
"","","","","","html-button-response","49","373412","0.0-49.0","156A9D4D463243D18E819D220981A96A","019cf796-e206-74ed-a570-611a1d3df82a","019cf78c-cfcf-769c-9016-9b96552b5e33","","547","
                <div class=""stimulus-container"">
                    <img src=""images/schematic_sequence/flight_scheme/flight_scheme_6.png"" class=""exp-image"">
                    <div class=""question-area"">
                        <p style=""font-size: 20px; font-weight: bold; margin: 0;"">Is there a person in this image?</p>
                    </div>
                </div>","1","main_experiment_trial","6","flight_scheme","schematic_sequence","","","","",""
"","","","","","html-keyboard-response","50","378414","0.0-50.0","156A9D4D463243D18E819D220981A96A","019cf796-e206-74ed-a570-611a1d3df82a","019cf78c-cfcf-769c-9016-9b96552b5e33","","null","
                <div class=""stimulus-container"">
                    <img src=""images/schematic_sequence/flight_scheme/flight_scheme_7.png"" class=""exp-image"">
                    <div class=""question-area""></div> 
                </div>","null","","","","","","","","",""
"","","","","","html-button-response","51","380192","0.0-51.0","156A9D4D463243D18E819D220981A96A","019cf796-e206-74ed-a570-611a1d3df82a","019cf78c-cfcf-769c-9016-9b96552b5e33","","1777","
                <div class=""stimulus-container"">
                    <img src=""images/schematic_sequence/flight_scheme/flight_scheme_7.png"" class=""exp-image"">
                    <div class=""question-area"">
                        <p style=""font-size: 20px; font-weight: bold; margin: 0;"">Is there a person in this image?</p>
                    </div>
                </div>","0","main_experiment_trial","7","flight_scheme","schematic_sequence","","","","",""
"","","","","","html-keyboard-response","52","385194","0.0-52.0","156A9D4D463243D18E819D220981A96A","019cf796-e206-74ed-a570-611a1d3df82a","019cf78c-cfcf-769c-9016-9b96552b5e33","","null","
                <div class=""stimulus-container"">
                    <img src=""images/schematic_sequence/flight_scheme/flight_scheme_8.png"" class=""exp-image"">
                    <div class=""question-area""></div> 
                </div>","null","","","","","","","","",""
"","","","","","html-button-response","53","385763","0.0-53.0","156A9D4D463243D18E819D220981A96A","019cf796-e206-74ed-a570-611a1d3df82a","019cf78c-cfcf-769c-9016-9b96552b5e33","","569","
                <div class=""stimulus-container"">
                    <img src=""images/schematic_sequence/flight_scheme/flight_scheme_8.png"" class=""exp-image"">
                    <div class=""question-area"">
                        <p style=""font-size: 20px; font-weight: bold; margin: 0;"">Is there a person in this image?</p>
                    </div>
                </div>","1","main_experiment_trial","8","flight_scheme","schematic_sequence","","","","",""
"","","","","","html-keyboard-response","54","390765","0.0-54.0","156A9D4D463243D18E819D220981A96A","019cf796-e206-74ed-a570-611a1d3df82a","019cf78c-cfcf-769c-9016-9b96552b5e33","","null","
                <div class=""stimulus-container"">
                    <img src=""images/schematic_sequence/flight_scheme/flight_scheme_9.png"" class=""exp-image"">
                    <div class=""question-area""></div> 
                </div>","null","","","","","","","","",""
"","","","","","html-button-response","55","391359","0.0-55.0","156A9D4D463243D18E819D220981A96A","019cf796-e206-74ed-a570-611a1d3df82a","019cf78c-cfcf-769c-9016-9b96552b5e33","","593","
                <div class=""stimulus-container"">
                    <img src=""images/schematic_sequence/flight_scheme/flight_scheme_9.png"" class=""exp-image"">
                    <div class=""question-area"">
                        <p style=""font-size: 20px; font-weight: bold; margin: 0;"">Is there a person in this image?</p>
                    </div>
                </div>","0","main_experiment_trial","9","flight_scheme","schematic_sequence","","","","",""
"","","","","","html-keyboard-response","56","396360","0.0-56.0","156A9D4D463243D18E819D220981A96A","019cf796-e206-74ed-a570-611a1d3df82a","019cf78c-cfcf-769c-9016-9b96552b5e33","","null","
                <div class=""stimulus-container"">
                    <img src=""images/schematic_sequence/flight_scheme/flight_scheme_ten.png"" class=""exp-image"">
                    <div class=""question-area""></div> 
                </div>","null","","","","","","","","",""
"","","","","","html-button-response","57","397576","0.0-57.0","156A9D4D463243D18E819D220981A96A","019cf796-e206-74ed-a570-611a1d3df82a","019cf78c-cfcf-769c-9016-9b96552b5e33","","1214","
                <div class=""stimulus-container"">
                    <img src=""images/schematic_sequence/flight_scheme/flight_scheme_ten.png"" class=""exp-image"">
                    <div class=""question-area"">
                        <p style=""font-size: 20px; font-weight: bold; margin: 0;"">Is there a person in this image?</p>
                    </div>
                </div>","0","main_experiment_trial","ten","flight_scheme","schematic_sequence","","","","",""
"","","","","","html-keyboard-response","58","398577","0.0-58.0","156A9D4D463243D18E819D220981A96A","019cf796-e206-74ed-a570-611a1d3df82a","019cf78c-cfcf-769c-9016-9b96552b5e33","","null","<div style=""background-color: white; width: 100vw; height: 100vh;""></div>","null","","","","","","","","",""
"","","","","","html-keyboard-response","59","403578","0.0-59.0","156A9D4D463243D18E819D220981A96A","019cf796-e206-74ed-a570-611a1d3df82a","019cf78c-cfcf-769c-9016-9b96552b5e33","","null","
                <div class=""stimulus-container"">
                    <img src=""images/semantic_sequence/redecorating_a_house_semantic/redecorating_a_house_semantic_1.png"" class=""exp-image"">
                    <div class=""question-area""></div> 
                </div>","null","","","","","","","","",""
"","","","","","html-button-response","60","404412","0.0-60.0","156A9D4D463243D18E819D220981A96A","019cf796-e206-74ed-a570-611a1d3df82a","019cf78c-cfcf-769c-9016-9b96552b5e33","","833","
                <div class=""stimulus-container"">
                    <img src=""images/semantic_sequence/redecorating_a_house_semantic/redecorating_a_house_semantic_1.png"" class=""exp-image"">
                    <div class=""question-area"">
                        <p style=""font-size: 20px; font-weight: bold; margin: 0;"">Is there a person in this image?</p>
                    </div>
                </div>","0","main_experiment_trial","1","redecorating_a_house_semantic","semantic_sequence","","","","",""
"","","","","","html-keyboard-response","61","409413","0.0-61.0","156A9D4D463243D18E819D220981A96A","019cf796-e206-74ed-a570-611a1d3df82a","019cf78c-cfcf-769c-9016-9b96552b5e33","","null","
                <div class=""stimulus-container"">
                    <img src=""images/semantic_sequence/redecorating_a_house_semantic/redecorating_a_house_semantic_2.png"" class=""exp-image"">
                    <div class=""question-area""></div> 
                </div>","null","","","","","","","","",""
"","","","","","html-button-response","62","410125","0.0-62.0","156A9D4D463243D18E819D220981A96A","019cf796-e206-74ed-a570-611a1d3df82a","019cf78c-cfcf-769c-9016-9b96552b5e33","","711","
                <div class=""stimulus-container"">
                    <img src=""images/semantic_sequence/redecorating_a_house_semantic/redecorating_a_house_semantic_2.png"" class=""exp-image"">
                    <div class=""question-area"">
                        <p style=""font-size: 20px; font-weight: bold; margin: 0;"">Is there a person in this image?</p>
                    </div>
                </div>","0","main_experiment_trial","2","redecorating_a_house_semantic","semantic_sequence","","","","",""
"","","","","","html-keyboard-response","63","415126","0.0-63.0","156A9D4D463243D18E819D220981A96A","019cf796-e206-74ed-a570-611a1d3df82a","019cf78c-cfcf-769c-9016-9b96552b5e33","","null","
                <div class=""stimulus-container"">
                    <img src=""images/semantic_sequence/redecorating_a_house_semantic/redecorating_a_house_semantic_3.png"" class=""exp-image"">
                    <div class=""question-area""></div> 
                </div>","null","","","","","","","","",""
"","","","","","html-button-response","64","415859","0.0-64.0","156A9D4D463243D18E819D220981A96A","019cf796-e206-74ed-a570-611a1d3df82a","019cf78c-cfcf-769c-9016-9b96552b5e33","","732","
                <div class=""stimulus-container"">
                    <img src=""images/semantic_sequence/redecorating_a_house_semantic/redecorating_a_house_semantic_3.png"" class=""exp-image"">
                    <div class=""question-area"">
                        <p style=""font-size: 20px; font-weight: bold; margin: 0;"">Is there a person in this image?</p>
                    </div>
                </div>","0","main_experiment_trial","3","redecorating_a_house_semantic","semantic_sequence","","","","",""
"","","","","","html-keyboard-response","65","420860","0.0-65.0","156A9D4D463243D18E819D220981A96A","019cf796-e206-74ed-a570-611a1d3df82a","019cf78c-cfcf-769c-9016-9b96552b5e33","","null","
                <div class=""stimulus-container"">
                    <img src=""images/semantic_sequence/redecorating_a_house_semantic/redecorating_a_house_semantic_4.png"" class=""exp-image"">
                    <div class=""question-area""></div> 
                </div>","null","","","","","","","","",""
"","","","","","html-button-response","66","421458","0.0-66.0","156A9D4D463243D18E819D220981A96A","019cf796-e206-74ed-a570-611a1d3df82a","019cf78c-cfcf-769c-9016-9b96552b5e33","","597","
                <div class=""stimulus-container"">
                    <img src=""images/semantic_sequence/redecorating_a_house_semantic/redecorating_a_house_semantic_4.png"" class=""exp-image"">
                    <div class=""question-area"">
                        <p style=""font-size: 20px; font-weight: bold; margin: 0;"">Is there a person in this image?</p>
                    </div>
                </div>","0","main_experiment_trial","4","redecorating_a_house_semantic","semantic_sequence","","","","",""
"","","","","","html-keyboard-response","67","426459","0.0-67.0","156A9D4D463243D18E819D220981A96A","019cf796-e206-74ed-a570-611a1d3df82a","019cf78c-cfcf-769c-9016-9b96552b5e33","","null","
                <div class=""stimulus-container"">
                    <img src=""images/semantic_sequence/redecorating_a_house_semantic/redecorating_a_house_semantic_5.png"" class=""exp-image"">
                    <div class=""question-area""></div> 
                </div>","null","","","","","","","","",""
"","","","","","html-button-response","68","427242","0.0-68.0","156A9D4D463243D18E819D220981A96A","019cf796-e206-74ed-a570-611a1d3df82a","019cf78c-cfcf-769c-9016-9b96552b5e33","","782","
                <div class=""stimulus-container"">
                    <img src=""images/semantic_sequence/redecorating_a_house_semantic/redecorating_a_house_semantic_5.png"" class=""exp-image"">
                    <div class=""question-area"">
                        <p style=""font-size: 20px; font-weight: bold; margin: 0;"">Is there a person in this image?</p>
                    </div>
                </div>","0","main_experiment_trial","5","redecorating_a_house_semantic","semantic_sequence","","","","",""
"","","","","","html-keyboard-response","69","432243","0.0-69.0","156A9D4D463243D18E819D220981A96A","019cf796-e206-74ed-a570-611a1d3df82a","019cf78c-cfcf-769c-9016-9b96552b5e33","","null","
                <div class=""stimulus-container"">
                    <img src=""images/semantic_sequence/redecorating_a_house_semantic/redecorating_a_house_semantic_6.png"" class=""exp-image"">
                    <div class=""question-area""></div> 
                </div>","null","","","","","","","","",""
"","","","","","html-button-response","70","432729","0.0-70.0","156A9D4D463243D18E819D220981A96A","019cf796-e206-74ed-a570-611a1d3df82a","019cf78c-cfcf-769c-9016-9b96552b5e33","","485","
                <div class=""stimulus-container"">
                    <img src=""images/semantic_sequence/redecorating_a_house_semantic/redecorating_a_house_semantic_6.png"" class=""exp-image"">
                    <div class=""question-area"">
                        <p style=""font-size: 20px; font-weight: bold; margin: 0;"">Is there a person in this image?</p>
                    </div>
                </div>","0","main_experiment_trial","6","redecorating_a_house_semantic","semantic_sequence","","","","",""
"","","","","","html-keyboard-response","71","437732","0.0-71.0","156A9D4D463243D18E819D220981A96A","019cf796-e206-74ed-a570-611a1d3df82a","019cf78c-cfcf-769c-9016-9b96552b5e33","","null","
                <div class=""stimulus-container"">
                    <img src=""images/semantic_sequence/redecorating_a_house_semantic/redecorating_a_house_semantic_7.png"" class=""exp-image"">
                    <div class=""question-area""></div> 
                </div>","null","","","","","","","","",""
"","","","","","html-button-response","72","438210","0.0-72.0","156A9D4D463243D18E819D220981A96A","019cf796-e206-74ed-a570-611a1d3df82a","019cf78c-cfcf-769c-9016-9b96552b5e33","","477","
                <div class=""stimulus-container"">
                    <img src=""images/semantic_sequence/redecorating_a_house_semantic/redecorating_a_house_semantic_7.png"" class=""exp-image"">
                    <div class=""question-area"">
                        <p style=""font-size: 20px; font-weight: bold; margin: 0;"">Is there a person in this image?</p>
                    </div>
                </div>","0","main_experiment_trial","7","redecorating_a_house_semantic","semantic_sequence","","","","",""
"","","","","","html-keyboard-response","73","443211","0.0-73.0","156A9D4D463243D18E819D220981A96A","019cf796-e206-74ed-a570-611a1d3df82a","019cf78c-cfcf-769c-9016-9b96552b5e33","","null","
                <div class=""stimulus-container"">
                    <img src=""images/semantic_sequence/redecorating_a_house_semantic/redecorating_a_house_semantic_8.png"" class=""exp-image"">
                    <div class=""question-area""></div> 
                </div>","null","","","","","","","","",""
"","","","","","html-button-response","74","443742","0.0-74.0","156A9D4D463243D18E819D220981A96A","019cf796-e206-74ed-a570-611a1d3df82a","019cf78c-cfcf-769c-9016-9b96552b5e33","","531","
                <div class=""stimulus-container"">
                    <img src=""images/semantic_sequence/redecorating_a_house_semantic/redecorating_a_house_semantic_8.png"" class=""exp-image"">
                    <div class=""question-area"">
                        <p style=""font-size: 20px; font-weight: bold; margin: 0;"">Is there a person in this image?</p>
                    </div>
                </div>","0","main_experiment_trial","8","redecorating_a_house_semantic","semantic_sequence","","","","",""
"","","","","","html-keyboard-response","75","448744","0.0-75.0","156A9D4D463243D18E819D220981A96A","019cf796-e206-74ed-a570-611a1d3df82a","019cf78c-cfcf-769c-9016-9b96552b5e33","","null","
                <div class=""stimulus-container"">
                    <img src=""images/semantic_sequence/redecorating_a_house_semantic/redecorating_a_house_semantic_9.png"" class=""exp-image"">
                    <div class=""question-area""></div> 
                </div>","null","","","","","","","","",""
"","","","","","html-button-response","76","449375","0.0-76.0","156A9D4D463243D18E819D220981A96A","019cf796-e206-74ed-a570-611a1d3df82a","019cf78c-cfcf-769c-9016-9b96552b5e33","","629","
                <div class=""stimulus-container"">
                    <img src=""images/semantic_sequence/redecorating_a_house_semantic/redecorating_a_house_semantic_9.png"" class=""exp-image"">
                    <div class=""question-area"">
                        <p style=""font-size: 20px; font-weight: bold; margin: 0;"">Is there a person in this image?</p>
                    </div>
                </div>","0","main_experiment_trial","9","redecorating_a_house_semantic","semantic_sequence","","","","",""
"","","","","","html-keyboard-response","77","454376","0.0-77.0","156A9D4D463243D18E819D220981A96A","019cf796-e206-74ed-a570-611a1d3df82a","019cf78c-cfcf-769c-9016-9b96552b5e33","","null","
                <div class=""stimulus-container"">
                    <img src=""images/semantic_sequence/redecorating_a_house_semantic/redecorating_a_house_semantic_ten.png"" class=""exp-image"">
                    <div class=""question-area""></div> 
                </div>","null","","","","","","","","",""
"","","","","","html-button-response","78","455208","0.0-78.0","156A9D4D463243D18E819D220981A96A","019cf796-e206-74ed-a570-611a1d3df82a","019cf78c-cfcf-769c-9016-9b96552b5e33","","831","
                <div class=""stimulus-container"">
                    <img src=""images/semantic_sequence/redecorating_a_house_semantic/redecorating_a_house_semantic_ten.png"" class=""exp-image"">
                    <div class=""question-area"">
                        <p style=""font-size: 20px; font-weight: bold; margin: 0;"">Is there a person in this image?</p>
                    </div>
                </div>","0","main_experiment_trial","ten","redecorating_a_house_semantic","semantic_sequence","","","","",""
"","","","","","html-keyboard-response","79","456210","0.0-79.0","156A9D4D463243D18E819D220981A96A","019cf796-e206-74ed-a570-611a1d3df82a","019cf78c-cfcf-769c-9016-9b96552b5e33","","null","<div style=""background-color: white; width: 100vw; height: 100vh;""></div>","null","","","","","","","","",""
"","","","","","html-keyboard-response","80","461213","0.0-80.0","156A9D4D463243D18E819D220981A96A","019cf796-e206-74ed-a570-611a1d3df82a","019cf78c-cfcf-769c-9016-9b96552b5e33","","null","
                <div class=""stimulus-container"">
                    <img src=""images/schematic_sequence/hotel_scheme/hotel_scheme_1.png"" class=""exp-image"">
                    <div class=""question-area""></div> 
                </div>","null","","","","","","","","",""
"","","","","","html-button-response","81","462024","0.0-81.0","156A9D4D463243D18E819D220981A96A","019cf796-e206-74ed-a570-611a1d3df82a","019cf78c-cfcf-769c-9016-9b96552b5e33","","810","
                <div class=""stimulus-container"">
                    <img src=""images/schematic_sequence/hotel_scheme/hotel_scheme_1.png"" class=""exp-image"">
                    <div class=""question-area"">
                        <p style=""font-size: 20px; font-weight: bold; margin: 0;"">Is there a person in this image?</p>
                    </div>
                </div>","1","main_experiment_trial","1","hotel_scheme","schematic_sequence","","","","",""
"","","","","","html-keyboard-response","82","467026","0.0-82.0","156A9D4D463243D18E819D220981A96A","019cf796-e206-74ed-a570-611a1d3df82a","019cf78c-cfcf-769c-9016-9b96552b5e33","","null","
                <div class=""stimulus-container"">
                    <img src=""images/schematic_sequence/hotel_scheme/hotel_scheme_2.png"" class=""exp-image"">
                    <div class=""question-area""></div> 
                </div>","null","","","","","","","","",""
"","","","","","html-button-response","83","468408","0.0-83.0","156A9D4D463243D18E819D220981A96A","019cf796-e206-74ed-a570-611a1d3df82a","019cf78c-cfcf-769c-9016-9b96552b5e33","","1380","
                <div class=""stimulus-container"">
                    <img src=""images/schematic_sequence/hotel_scheme/hotel_scheme_2.png"" class=""exp-image"">
                    <div class=""question-area"">
                        <p style=""font-size: 20px; font-weight: bold; margin: 0;"">Is there a person in this image?</p>
                    </div>
                </div>","0","main_experiment_trial","2","hotel_scheme","schematic_sequence","","","","",""
"","","","","","html-keyboard-response","84","473409","0.0-84.0","156A9D4D463243D18E819D220981A96A","019cf796-e206-74ed-a570-611a1d3df82a","019cf78c-cfcf-769c-9016-9b96552b5e33","","null","
                <div class=""stimulus-container"">
                    <img src=""images/schematic_sequence/hotel_scheme/hotel_scheme_3.png"" class=""exp-image"">
                    <div class=""question-area""></div> 
                </div>","null","","","","","","","","",""
"","","","","","html-button-response","85","474359","0.0-85.0","156A9D4D463243D18E819D220981A96A","019cf796-e206-74ed-a570-611a1d3df82a","019cf78c-cfcf-769c-9016-9b96552b5e33","","949","
                <div class=""stimulus-container"">
                    <img src=""images/schematic_sequence/hotel_scheme/hotel_scheme_3.png"" class=""exp-image"">
                    <div class=""question-area"">
                        <p style=""font-size: 20px; font-weight: bold; margin: 0;"">Is there a person in this image?</p>
                    </div>
                </div>","0","main_experiment_trial","3","hotel_scheme","schematic_sequence","","","","",""
"","","","","","html-keyboard-response","86","479360","0.0-86.0","156A9D4D463243D18E819D220981A96A","019cf796-e206-74ed-a570-611a1d3df82a","019cf78c-cfcf-769c-9016-9b96552b5e33","","null","
                <div class=""stimulus-container"">
                    <img src=""images/schematic_sequence/hotel_scheme/hotel_scheme_4.png"" class=""exp-image"">
                    <div class=""question-area""></div> 
                </div>","null","","","","","","","","",""
"","","","","","html-button-response","87","480526","0.0-87.0","156A9D4D463243D18E819D220981A96A","019cf796-e206-74ed-a570-611a1d3df82a","019cf78c-cfcf-769c-9016-9b96552b5e33","","1165","
                <div class=""stimulus-container"">
                    <img src=""images/schematic_sequence/hotel_scheme/hotel_scheme_4.png"" class=""exp-image"">
                    <div class=""question-area"">
                        <p style=""font-size: 20px; font-weight: bold; margin: 0;"">Is there a person in this image?</p>
                    </div>
                </div>","1","main_experiment_trial","4","hotel_scheme","schematic_sequence","","","","",""
"","","","","","html-keyboard-response","88","485527","0.0-88.0","156A9D4D463243D18E819D220981A96A","019cf796-e206-74ed-a570-611a1d3df82a","019cf78c-cfcf-769c-9016-9b96552b5e33","","null","
                <div class=""stimulus-container"">
                    <img src=""images/schematic_sequence/hotel_scheme/hotel_scheme_5.png"" class=""exp-image"">
                    <div class=""question-area""></div> 
                </div>","null","","","","","","","","",""
"","","","","","html-button-response","89","486142","0.0-89.0","156A9D4D463243D18E819D220981A96A","019cf796-e206-74ed-a570-611a1d3df82a","019cf78c-cfcf-769c-9016-9b96552b5e33","","614","
                <div class=""stimulus-container"">
                    <img src=""images/schematic_sequence/hotel_scheme/hotel_scheme_5.png"" class=""exp-image"">
                    <div class=""question-area"">
                        <p style=""font-size: 20px; font-weight: bold; margin: 0;"">Is there a person in this image?</p>
                    </div>
                </div>","0","main_experiment_trial","5","hotel_scheme","schematic_sequence","","","","",""
"","","","","","html-keyboard-response","90","491143","0.0-90.0","156A9D4D463243D18E819D220981A96A","019cf796-e206-74ed-a570-611a1d3df82a","019cf78c-cfcf-769c-9016-9b96552b5e33","","null","
                <div class=""stimulus-container"">
                    <img src=""images/schematic_sequence/hotel_scheme/hotel_scheme_6.png"" class=""exp-image"">
                    <div class=""question-area""></div> 
                </div>","null","","","","","","","","",""
"","","","","","html-button-response","91","491724","0.0-91.0","156A9D4D463243D18E819D220981A96A","019cf796-e206-74ed-a570-611a1d3df82a","019cf78c-cfcf-769c-9016-9b96552b5e33","","580","
                <div class=""stimulus-container"">
                    <img src=""images/schematic_sequence/hotel_scheme/hotel_scheme_6.png"" class=""exp-image"">
                    <div class=""question-area"">
                        <p style=""font-size: 20px; font-weight: bold; margin: 0;"">Is there a person in this image?</p>
                    </div>
                </div>","0","main_experiment_trial","6","hotel_scheme","schematic_sequence","","","","",""
"","","","","","html-keyboard-response","92","496726","0.0-92.0","156A9D4D463243D18E819D220981A96A","019cf796-e206-74ed-a570-611a1d3df82a","019cf78c-cfcf-769c-9016-9b96552b5e33","","null","
                <div class=""stimulus-container"">
                    <img src=""images/schematic_sequence/hotel_scheme/hotel_scheme_7.png"" class=""exp-image"">
                    <div class=""question-area""></div> 
                </div>","null","","","","","","","","",""
"","","","","","html-button-response","93","497290","0.0-93.0","156A9D4D463243D18E819D220981A96A","019cf796-e206-74ed-a570-611a1d3df82a","019cf78c-cfcf-769c-9016-9b96552b5e33","","564","
                <div class=""stimulus-container"">
                    <img src=""images/schematic_sequence/hotel_scheme/hotel_scheme_7.png"" class=""exp-image"">
                    <div class=""question-area"">
                        <p style=""font-size: 20px; font-weight: bold; margin: 0;"">Is there a person in this image?</p>
                    </div>
                </div>","0","main_experiment_trial","7","hotel_scheme","schematic_sequence","","","","",""
"","","","","","html-keyboard-response","94","502293","0.0-94.0","156A9D4D463243D18E819D220981A96A","019cf796-e206-74ed-a570-611a1d3df82a","019cf78c-cfcf-769c-9016-9b96552b5e33","","null","
                <div class=""stimulus-container"">
                    <img src=""images/schematic_sequence/hotel_scheme/hotel_scheme_8.png"" class=""exp-image"">
                    <div class=""question-area""></div> 
                </div>","null","","","","","","","","",""
"","","","","","html-button-response","95","503057","0.0-95.0","156A9D4D463243D18E819D220981A96A","019cf796-e206-74ed-a570-611a1d3df82a","019cf78c-cfcf-769c-9016-9b96552b5e33","","763","
                <div class=""stimulus-container"">
                    <img src=""images/schematic_sequence/hotel_scheme/hotel_scheme_8.png"" class=""exp-image"">
                    <div class=""question-area"">
                        <p style=""font-size: 20px; font-weight: bold; margin: 0;"">Is there a person in this image?</p>
                    </div>
                </div>","0","main_experiment_trial","8","hotel_scheme","schematic_sequence","","","","",""
"","","","","","html-keyboard-response","96","508060","0.0-96.0","156A9D4D463243D18E819D220981A96A","019cf796-e206-74ed-a570-611a1d3df82a","019cf78c-cfcf-769c-9016-9b96552b5e33","","null","
                <div class=""stimulus-container"">
                    <img src=""images/schematic_sequence/hotel_scheme/hotel_scheme_9.png"" class=""exp-image"">
                    <div class=""question-area""></div> 
                </div>","null","","","","","","","","",""
"","","","","","html-button-response","97","508642","0.0-97.0","156A9D4D463243D18E819D220981A96A","019cf796-e206-74ed-a570-611a1d3df82a","019cf78c-cfcf-769c-9016-9b96552b5e33","","578","
                <div class=""stimulus-container"">
                    <img src=""images/schematic_sequence/hotel_scheme/hotel_scheme_9.png"" class=""exp-image"">
                    <div class=""question-area"">
                        <p style=""font-size: 20px; font-weight: bold; margin: 0;"">Is there a person in this image?</p>
                    </div>
                </div>","0","main_experiment_trial","9","hotel_scheme","schematic_sequence","","","","",""
"","","","","","html-keyboard-response","98","513644","0.0-98.0","156A9D4D463243D18E819D220981A96A","019cf796-e206-74ed-a570-611a1d3df82a","019cf78c-cfcf-769c-9016-9b96552b5e33","","null","
                <div class=""stimulus-container"">
                    <img src=""images/schematic_sequence/hotel_scheme/hotel_scheme_ten.png"" class=""exp-image"">
                    <div class=""question-area""></div> 
                </div>","null","","","","","","","","",""
"","","","","","html-button-response","99","514173","0.0-99.0","156A9D4D463243D18E819D220981A96A","019cf796-e206-74ed-a570-611a1d3df82a","019cf78c-cfcf-769c-9016-9b96552b5e33","","527","
                <div class=""stimulus-container"">
                    <img src=""images/schematic_sequence/hotel_scheme/hotel_scheme_ten.png"" class=""exp-image"">
                    <div class=""question-area"">
                        <p style=""font-size: 20px; font-weight: bold; margin: 0;"">Is there a person in this image?</p>
                    </div>
                </div>","0","main_experiment_trial","ten","hotel_scheme","schematic_sequence","","","","",""
"","","","","","html-keyboard-response","100","515176","0.0-100.0","156A9D4D463243D18E819D220981A96A","019cf796-e206-74ed-a570-611a1d3df82a","019cf78c-cfcf-769c-9016-9b96552b5e33","","null","<div style=""background-color: white; width: 100vw; height: 100vh;""></div>","null","","","","","","","","",""
"","","","","","html-keyboard-response","101","520178","0.0-101.0","156A9D4D463243D18E819D220981A96A","019cf796-e206-74ed-a570-611a1d3df82a","019cf78c-cfcf-769c-9016-9b96552b5e33","","null","
                <div class=""stimulus-container"">
                    <img src=""images/semantic_sequence/visiting_cities_semantic/visiting_cities_semantic_1.png"" class=""exp-image"">
                    <div class=""question-area""></div> 
                </div>","null","","","","","","","","",""
"","","","","","html-button-response","102","521177","0.0-102.0","156A9D4D463243D18E819D220981A96A","019cf796-e206-74ed-a570-611a1d3df82a","019cf78c-cfcf-769c-9016-9b96552b5e33","","998","
                <div class=""stimulus-container"">
                    <img src=""images/semantic_sequence/visiting_cities_semantic/visiting_cities_semantic_1.png"" class=""exp-image"">
                    <div class=""question-area"">
                        <p style=""font-size: 20px; font-weight: bold; margin: 0;"">Is there a person in this image?</p>
                    </div>
                </div>","0","main_experiment_trial","1","visiting_cities_semantic","semantic_sequence","","","","",""
"","","","","","html-keyboard-response","103","526179","0.0-103.0","156A9D4D463243D18E819D220981A96A","019cf796-e206-74ed-a570-611a1d3df82a","019cf78c-cfcf-769c-9016-9b96552b5e33","","null","
                <div class=""stimulus-container"">
                    <img src=""images/semantic_sequence/visiting_cities_semantic/visiting_cities_semantic_2.png"" class=""exp-image"">
                    <div class=""question-area""></div> 
                </div>","null","","","","","","","","",""
"","","","","","html-button-response","104","526673","0.0-104.0","156A9D4D463243D18E819D220981A96A","019cf796-e206-74ed-a570-611a1d3df82a","019cf78c-cfcf-769c-9016-9b96552b5e33","","493","
                <div class=""stimulus-container"">
                    <img src=""images/semantic_sequence/visiting_cities_semantic/visiting_cities_semantic_2.png"" class=""exp-image"">
                    <div class=""question-area"">
                        <p style=""font-size: 20px; font-weight: bold; margin: 0;"">Is there a person in this image?</p>
                    </div>
                </div>","1","main_experiment_trial","2","visiting_cities_semantic","semantic_sequence","","","","",""
"","","","","","html-keyboard-response","105","531676","0.0-105.0","156A9D4D463243D18E819D220981A96A","019cf796-e206-74ed-a570-611a1d3df82a","019cf78c-cfcf-769c-9016-9b96552b5e33","","null","
                <div class=""stimulus-container"">
                    <img src=""images/semantic_sequence/visiting_cities_semantic/visiting_cities_semantic_3.png"" class=""exp-image"">
                    <div class=""question-area""></div> 
                </div>","null","","","","","","","","",""
"","","","","","html-button-response","106","532327","0.0-106.0","156A9D4D463243D18E819D220981A96A","019cf796-e206-74ed-a570-611a1d3df82a","019cf78c-cfcf-769c-9016-9b96552b5e33","","650","
                <div class=""stimulus-container"">
                    <img src=""images/semantic_sequence/visiting_cities_semantic/visiting_cities_semantic_3.png"" class=""exp-image"">
                    <div class=""question-area"">
                        <p style=""font-size: 20px; font-weight: bold; margin: 0;"">Is there a person in this image?</p>
                    </div>
                </div>","1","main_experiment_trial","3","visiting_cities_semantic","semantic_sequence","","","","",""
"","","","","","html-keyboard-response","107","537327","0.0-107.0","156A9D4D463243D18E819D220981A96A","019cf796-e206-74ed-a570-611a1d3df82a","019cf78c-cfcf-769c-9016-9b96552b5e33","","null","
                <div class=""stimulus-container"">
                    <img src=""images/semantic_sequence/visiting_cities_semantic/visiting_cities_semantic_4.png"" class=""exp-image"">
                    <div class=""question-area""></div> 
                </div>","null","","","","","","","","",""
"","","","","","html-button-response","108","537960","0.0-108.0","156A9D4D463243D18E819D220981A96A","019cf796-e206-74ed-a570-611a1d3df82a","019cf78c-cfcf-769c-9016-9b96552b5e33","","631","
                <div class=""stimulus-container"">
                    <img src=""images/semantic_sequence/visiting_cities_semantic/visiting_cities_semantic_4.png"" class=""exp-image"">
                    <div class=""question-area"">
                        <p style=""font-size: 20px; font-weight: bold; margin: 0;"">Is there a person in this image?</p>
                    </div>
                </div>","1","main_experiment_trial","4","visiting_cities_semantic","semantic_sequence","","","","",""
"","","","","","html-keyboard-response","109","542962","0.0-109.0","156A9D4D463243D18E819D220981A96A","019cf796-e206-74ed-a570-611a1d3df82a","019cf78c-cfcf-769c-9016-9b96552b5e33","","null","
                <div class=""stimulus-container"">
                    <img src=""images/semantic_sequence/visiting_cities_semantic/visiting_cities_semantic_5.png"" class=""exp-image"">
                    <div class=""question-area""></div> 
                </div>","null","","","","","","","","",""
"","","","","","html-button-response","110","544156","0.0-110.0","156A9D4D463243D18E819D220981A96A","019cf796-e206-74ed-a570-611a1d3df82a","019cf78c-cfcf-769c-9016-9b96552b5e33","","1193","
                <div class=""stimulus-container"">
                    <img src=""images/semantic_sequence/visiting_cities_semantic/visiting_cities_semantic_5.png"" class=""exp-image"">
                    <div class=""question-area"">
                        <p style=""font-size: 20px; font-weight: bold; margin: 0;"">Is there a person in this image?</p>
                    </div>
                </div>","0","main_experiment_trial","5","visiting_cities_semantic","semantic_sequence","","","","",""
"","","","","","html-keyboard-response","111","549158","0.0-111.0","156A9D4D463243D18E819D220981A96A","019cf796-e206-74ed-a570-611a1d3df82a","019cf78c-cfcf-769c-9016-9b96552b5e33","","null","
                <div class=""stimulus-container"">
                    <img src=""images/semantic_sequence/visiting_cities_semantic/visiting_cities_semantic_6.png"" class=""exp-image"">
                    <div class=""question-area""></div> 
                </div>","null","","","","","","","","",""
"","","","","","html-button-response","112","550074","0.0-112.0","156A9D4D463243D18E819D220981A96A","019cf796-e206-74ed-a570-611a1d3df82a","019cf78c-cfcf-769c-9016-9b96552b5e33","","914","
                <div class=""stimulus-container"">
                    <img src=""images/semantic_sequence/visiting_cities_semantic/visiting_cities_semantic_6.png"" class=""exp-image"">
                    <div class=""question-area"">
                        <p style=""font-size: 20px; font-weight: bold; margin: 0;"">Is there a person in this image?</p>
                    </div>
                </div>","1","main_experiment_trial","6","visiting_cities_semantic","semantic_sequence","","","","",""
"","","","","","html-keyboard-response","113","555075","0.0-113.0","156A9D4D463243D18E819D220981A96A","019cf796-e206-74ed-a570-611a1d3df82a","019cf78c-cfcf-769c-9016-9b96552b5e33","","null","
                <div class=""stimulus-container"">
                    <img src=""images/semantic_sequence/visiting_cities_semantic/visiting_cities_semantic_7.png"" class=""exp-image"">
                    <div class=""question-area""></div> 
                </div>","null","","","","","","","","",""
"","","","","","html-button-response","114","555606","0.0-114.0","156A9D4D463243D18E819D220981A96A","019cf796-e206-74ed-a570-611a1d3df82a","019cf78c-cfcf-769c-9016-9b96552b5e33","","529","
                <div class=""stimulus-container"">
                    <img src=""images/semantic_sequence/visiting_cities_semantic/visiting_cities_semantic_7.png"" class=""exp-image"">
                    <div class=""question-area"">
                        <p style=""font-size: 20px; font-weight: bold; margin: 0;"">Is there a person in this image?</p>
                    </div>
                </div>","0","main_experiment_trial","7","visiting_cities_semantic","semantic_sequence","","","","",""
"","","","","","html-keyboard-response","115","560609","0.0-115.0","156A9D4D463243D18E819D220981A96A","019cf796-e206-74ed-a570-611a1d3df82a","019cf78c-cfcf-769c-9016-9b96552b5e33","","null","
                <div class=""stimulus-container"">
                    <img src=""images/semantic_sequence/visiting_cities_semantic/visiting_cities_semantic_8.png"" class=""exp-image"">
                    <div class=""question-area""></div> 
                </div>","null","","","","","","","","",""
"","","","","","html-button-response","116","561856","0.0-116.0","156A9D4D463243D18E819D220981A96A","019cf796-e206-74ed-a570-611a1d3df82a","019cf78c-cfcf-769c-9016-9b96552b5e33","","1247","
                <div class=""stimulus-container"">
                    <img src=""images/semantic_sequence/visiting_cities_semantic/visiting_cities_semantic_8.png"" class=""exp-image"">
                    <div class=""question-area"">
                        <p style=""font-size: 20px; font-weight: bold; margin: 0;"">Is there a person in this image?</p>
                    </div>
                </div>","0","main_experiment_trial","8","visiting_cities_semantic","semantic_sequence","","","","",""
"","","","","","html-keyboard-response","117","566858","0.0-117.0","156A9D4D463243D18E819D220981A96A","019cf796-e206-74ed-a570-611a1d3df82a","019cf78c-cfcf-769c-9016-9b96552b5e33","","null","
                <div class=""stimulus-container"">
                    <img src=""images/semantic_sequence/visiting_cities_semantic/visiting_cities_semantic_9.png"" class=""exp-image"">
                    <div class=""question-area""></div> 
                </div>","null","","","","","","","","",""
"","","","","","html-button-response","118","567506","0.0-118.0","156A9D4D463243D18E819D220981A96A","019cf796-e206-74ed-a570-611a1d3df82a","019cf78c-cfcf-769c-9016-9b96552b5e33","","647","
                <div class=""stimulus-container"">
                    <img src=""images/semantic_sequence/visiting_cities_semantic/visiting_cities_semantic_9.png"" class=""exp-image"">
                    <div class=""question-area"">
                        <p style=""font-size: 20px; font-weight: bold; margin: 0;"">Is there a person in this image?</p>
                    </div>
                </div>","0","main_experiment_trial","9","visiting_cities_semantic","semantic_sequence","","","","",""
"","","","","","html-keyboard-response","119","572508","0.0-119.0","156A9D4D463243D18E819D220981A96A","019cf796-e206-74ed-a570-611a1d3df82a","019cf78c-cfcf-769c-9016-9b96552b5e33","","null","
                <div class=""stimulus-container"">
                    <img src=""images/semantic_sequence/visiting_cities_semantic/visiting_cities_semantic_ten.png"" class=""exp-image"">
                    <div class=""question-area""></div> 
                </div>","null","","","","","","","","",""
"","","","","","html-button-response","120","573406","0.0-120.0","156A9D4D463243D18E819D220981A96A","019cf796-e206-74ed-a570-611a1d3df82a","019cf78c-cfcf-769c-9016-9b96552b5e33","","897","
                <div class=""stimulus-container"">
                    <img src=""images/semantic_sequence/visiting_cities_semantic/visiting_cities_semantic_ten.png"" class=""exp-image"">
                    <div class=""question-area"">
                        <p style=""font-size: 20px; font-weight: bold; margin: 0;"">Is there a person in this image?</p>
                    </div>
                </div>","0","main_experiment_trial","ten","visiting_cities_semantic","semantic_sequence","","","","",""
"","","","","","html-keyboard-response","121","574407","0.0-121.0","156A9D4D463243D18E819D220981A96A","019cf796-e206-74ed-a570-611a1d3df82a","019cf78c-cfcf-769c-9016-9b96552b5e33","","null","<div style=""background-color: white; width: 100vw; height: 100vh;""></div>","null","","","","","","","","",""
"","","","","","html-keyboard-response","122","579409","0.0-122.0","156A9D4D463243D18E819D220981A96A","019cf796-e206-74ed-a570-611a1d3df82a","019cf78c-cfcf-769c-9016-9b96552b5e33","","null","
                <div class=""stimulus-container"">
                    <img src=""images/schematic_sequence/dinner_party_scheme/dinner_party_scheme_1.png"" class=""exp-image"">
                    <div class=""question-area""></div> 
                </div>","null","","","","","","","","",""
"","","","","","html-button-response","123","579973","0.0-123.0","156A9D4D463243D18E819D220981A96A","019cf796-e206-74ed-a570-611a1d3df82a","019cf78c-cfcf-769c-9016-9b96552b5e33","","564","
                <div class=""stimulus-container"">
                    <img src=""images/schematic_sequence/dinner_party_scheme/dinner_party_scheme_1.png"" class=""exp-image"">
                    <div class=""question-area"">
                        <p style=""font-size: 20px; font-weight: bold; margin: 0;"">Is there a person in this image?</p>
                    </div>
                </div>","0","main_experiment_trial","1","dinner_party_scheme","schematic_sequence","","","","",""
"","","","","","html-keyboard-response","124","584975","0.0-124.0","156A9D4D463243D18E819D220981A96A","019cf796-e206-74ed-a570-611a1d3df82a","019cf78c-cfcf-769c-9016-9b96552b5e33","","null","
                <div class=""stimulus-container"">
                    <img src=""images/schematic_sequence/dinner_party_scheme/dinner_party_scheme_2.png"" class=""exp-image"">
                    <div class=""question-area""></div> 
                </div>","null","","","","","","","","",""
"","","","","","html-button-response","125","585756","0.0-125.0","156A9D4D463243D18E819D220981A96A","019cf796-e206-74ed-a570-611a1d3df82a","019cf78c-cfcf-769c-9016-9b96552b5e33","","780","
                <div class=""stimulus-container"">
                    <img src=""images/schematic_sequence/dinner_party_scheme/dinner_party_scheme_2.png"" class=""exp-image"">
                    <div class=""question-area"">
                        <p style=""font-size: 20px; font-weight: bold; margin: 0;"">Is there a person in this image?</p>
                    </div>
                </div>","0","main_experiment_trial","2","dinner_party_scheme","schematic_sequence","","","","",""
"","","","","","html-keyboard-response","126","590758","0.0-126.0","156A9D4D463243D18E819D220981A96A","019cf796-e206-74ed-a570-611a1d3df82a","019cf78c-cfcf-769c-9016-9b96552b5e33","","null","
                <div class=""stimulus-container"">
                    <img src=""images/schematic_sequence/dinner_party_scheme/dinner_party_scheme_3.png"" class=""exp-image"">
                    <div class=""question-area""></div> 
                </div>","null","","","","","","","","",""
"","","","","","html-button-response","127","591424","0.0-127.0","156A9D4D463243D18E819D220981A96A","019cf796-e206-74ed-a570-611a1d3df82a","019cf78c-cfcf-769c-9016-9b96552b5e33","","665","
                <div class=""stimulus-container"">
                    <img src=""images/schematic_sequence/dinner_party_scheme/dinner_party_scheme_3.png"" class=""exp-image"">
                    <div class=""question-area"">
                        <p style=""font-size: 20px; font-weight: bold; margin: 0;"">Is there a person in this image?</p>
                    </div>
                </div>","0","main_experiment_trial","3","dinner_party_scheme","schematic_sequence","","","","",""
"","","","","","html-keyboard-response","128","596426","0.0-128.0","156A9D4D463243D18E819D220981A96A","019cf796-e206-74ed-a570-611a1d3df82a","019cf78c-cfcf-769c-9016-9b96552b5e33","","null","
                <div class=""stimulus-container"">
                    <img src=""images/schematic_sequence/dinner_party_scheme/dinner_party_scheme_4.png"" class=""exp-image"">
                    <div class=""question-area""></div> 
                </div>","null","","","","","","","","",""
"","","","","","html-button-response","129","597189","0.0-129.0","156A9D4D463243D18E819D220981A96A","019cf796-e206-74ed-a570-611a1d3df82a","019cf78c-cfcf-769c-9016-9b96552b5e33","","762","
                <div class=""stimulus-container"">
                    <img src=""images/schematic_sequence/dinner_party_scheme/dinner_party_scheme_4.png"" class=""exp-image"">
                    <div class=""question-area"">
                        <p style=""font-size: 20px; font-weight: bold; margin: 0;"">Is there a person in this image?</p>
                    </div>
                </div>","0","main_experiment_trial","4","dinner_party_scheme","schematic_sequence","","","","",""
"","","","","","html-keyboard-response","130","602191","0.0-130.0","156A9D4D463243D18E819D220981A96A","019cf796-e206-74ed-a570-611a1d3df82a","019cf78c-cfcf-769c-9016-9b96552b5e33","","null","
                <div class=""stimulus-container"">
                    <img src=""images/schematic_sequence/dinner_party_scheme/dinner_party_scheme_5.png"" class=""exp-image"">
                    <div class=""question-area""></div> 
                </div>","null","","","","","","","","",""
"","","","","","html-button-response","131","603522","0.0-131.0","156A9D4D463243D18E819D220981A96A","019cf796-e206-74ed-a570-611a1d3df82a","019cf78c-cfcf-769c-9016-9b96552b5e33","","1330","
                <div class=""stimulus-container"">
                    <img src=""images/schematic_sequence/dinner_party_scheme/dinner_party_scheme_5.png"" class=""exp-image"">
                    <div class=""question-area"">
                        <p style=""font-size: 20px; font-weight: bold; margin: 0;"">Is there a person in this image?</p>
                    </div>
                </div>","0","main_experiment_trial","5","dinner_party_scheme","schematic_sequence","","","","",""
"","","","","","html-keyboard-response","132","608524","0.0-132.0","156A9D4D463243D18E819D220981A96A","019cf796-e206-74ed-a570-611a1d3df82a","019cf78c-cfcf-769c-9016-9b96552b5e33","","null","
                <div class=""stimulus-container"">
                    <img src=""images/schematic_sequence/dinner_party_scheme/dinner_party_scheme_6.png"" class=""exp-image"">
                    <div class=""question-area""></div> 
                </div>","null","","","","","","","","",""
"","","","","","html-button-response","133","609239","0.0-133.0","156A9D4D463243D18E819D220981A96A","019cf796-e206-74ed-a570-611a1d3df82a","019cf78c-cfcf-769c-9016-9b96552b5e33","","715","
                <div class=""stimulus-container"">
                    <img src=""images/schematic_sequence/dinner_party_scheme/dinner_party_scheme_6.png"" class=""exp-image"">
                    <div class=""question-area"">
                        <p style=""font-size: 20px; font-weight: bold; margin: 0;"">Is there a person in this image?</p>
                    </div>
                </div>","0","main_experiment_trial","6","dinner_party_scheme","schematic_sequence","","","","",""
"","","","","","html-keyboard-response","134","614242","0.0-134.0","156A9D4D463243D18E819D220981A96A","019cf796-e206-74ed-a570-611a1d3df82a","019cf78c-cfcf-769c-9016-9b96552b5e33","","null","
                <div class=""stimulus-container"">
                    <img src=""images/schematic_sequence/dinner_party_scheme/dinner_party_scheme_7.png"" class=""exp-image"">
                    <div class=""question-area""></div> 
                </div>","null","","","","","","","","",""
"","","","","","html-button-response","135","615005","0.0-135.0","156A9D4D463243D18E819D220981A96A","019cf796-e206-74ed-a570-611a1d3df82a","019cf78c-cfcf-769c-9016-9b96552b5e33","","762","
                <div class=""stimulus-container"">
                    <img src=""images/schematic_sequence/dinner_party_scheme/dinner_party_scheme_7.png"" class=""exp-image"">
                    <div class=""question-area"">
                        <p style=""font-size: 20px; font-weight: bold; margin: 0;"">Is there a person in this image?</p>
                    </div>
                </div>","0","main_experiment_trial","7","dinner_party_scheme","schematic_sequence","","","","",""
"","","","","","html-keyboard-response","136","620009","0.0-136.0","156A9D4D463243D18E819D220981A96A","019cf796-e206-74ed-a570-611a1d3df82a","019cf78c-cfcf-769c-9016-9b96552b5e33","","null","
                <div class=""stimulus-container"">
                    <img src=""images/schematic_sequence/dinner_party_scheme/dinner_party_scheme_8.png"" class=""exp-image"">
                    <div class=""question-area""></div> 
                </div>","null","","","","","","","","",""
"","","","","","html-button-response","137","620539","0.0-137.0","156A9D4D463243D18E819D220981A96A","019cf796-e206-74ed-a570-611a1d3df82a","019cf78c-cfcf-769c-9016-9b96552b5e33","","528","
                <div class=""stimulus-container"">
                    <img src=""images/schematic_sequence/dinner_party_scheme/dinner_party_scheme_8.png"" class=""exp-image"">
                    <div class=""question-area"">
                        <p style=""font-size: 20px; font-weight: bold; margin: 0;"">Is there a person in this image?</p>
                    </div>
                </div>","0","main_experiment_trial","8","dinner_party_scheme","schematic_sequence","","","","",""
"","","","","","html-keyboard-response","138","625541","0.0-138.0","156A9D4D463243D18E819D220981A96A","019cf796-e206-74ed-a570-611a1d3df82a","019cf78c-cfcf-769c-9016-9b96552b5e33","","null","
                <div class=""stimulus-container"">
                    <img src=""images/schematic_sequence/dinner_party_scheme/dinner_party_scheme_9.png"" class=""exp-image"">
                    <div class=""question-area""></div> 
                </div>","null","","","","","","","","",""
"","","","","","html-button-response","139","626042","0.0-139.0","156A9D4D463243D18E819D220981A96A","019cf796-e206-74ed-a570-611a1d3df82a","019cf78c-cfcf-769c-9016-9b96552b5e33","","500","
                <div class=""stimulus-container"">
                    <img src=""images/schematic_sequence/dinner_party_scheme/dinner_party_scheme_9.png"" class=""exp-image"">
                    <div class=""question-area"">
                        <p style=""font-size: 20px; font-weight: bold; margin: 0;"">Is there a person in this image?</p>
                    </div>
                </div>","0","main_experiment_trial","9","dinner_party_scheme","schematic_sequence","","","","",""
"","","","","","html-keyboard-response","140","631044","0.0-140.0","156A9D4D463243D18E819D220981A96A","019cf796-e206-74ed-a570-611a1d3df82a","019cf78c-cfcf-769c-9016-9b96552b5e33","","null","
                <div class=""stimulus-container"">
                    <img src=""images/schematic_sequence/dinner_party_scheme/dinner_party_scheme_ten.png"" class=""exp-image"">
                    <div class=""question-area""></div> 
                </div>","null","","","","","","","","",""
"","","","","","html-button-response","141","631572","0.0-141.0","156A9D4D463243D18E819D220981A96A","019cf796-e206-74ed-a570-611a1d3df82a","019cf78c-cfcf-769c-9016-9b96552b5e33","","526","
                <div class=""stimulus-container"">
                    <img src=""images/schematic_sequence/dinner_party_scheme/dinner_party_scheme_ten.png"" class=""exp-image"">
                    <div class=""question-area"">
                        <p style=""font-size: 20px; font-weight: bold; margin: 0;"">Is there a person in this image?</p>
                    </div>
                </div>","0","main_experiment_trial","ten","dinner_party_scheme","schematic_sequence","","","","",""
"","","","","","html-keyboard-response","142","632574","0.0-142.0","156A9D4D463243D18E819D220981A96A","019cf796-e206-74ed-a570-611a1d3df82a","019cf78c-cfcf-769c-9016-9b96552b5e33","","null","<div style=""background-color: white; width: 100vw; height: 100vh;""></div>","null","","","","","","","","",""
"","","","","","html-keyboard-response","143","637577","0.0-143.0","156A9D4D463243D18E819D220981A96A","019cf796-e206-74ed-a570-611a1d3df82a","019cf78c-cfcf-769c-9016-9b96552b5e33","","null","
                <div class=""stimulus-container"">
                    <img src=""images/semantic_sequence/creative_activities_semantic/creative_activities_semantic_1.png"" class=""exp-image"">
                    <div class=""question-area""></div> 
                </div>","null","","","","","","","","",""
"","","","","","html-button-response","144","638606","0.0-144.0","156A9D4D463243D18E819D220981A96A","019cf796-e206-74ed-a570-611a1d3df82a","019cf78c-cfcf-769c-9016-9b96552b5e33","","1029","
                <div class=""stimulus-container"">
                    <img src=""images/semantic_sequence/creative_activities_semantic/creative_activities_semantic_1.png"" class=""exp-image"">
                    <div class=""question-area"">
                        <p style=""font-size: 20px; font-weight: bold; margin: 0;"">Is there a person in this image?</p>
                    </div>
                </div>","0","main_experiment_trial","1","creative_activities_semantic","semantic_sequence","","","","",""
"","","","","","html-keyboard-response","145","643609","0.0-145.0","156A9D4D463243D18E819D220981A96A","019cf796-e206-74ed-a570-611a1d3df82a","019cf78c-cfcf-769c-9016-9b96552b5e33","","null","
                <div class=""stimulus-container"">
                    <img src=""images/semantic_sequence/creative_activities_semantic/creative_activities_semantic_2.png"" class=""exp-image"">
                    <div class=""question-area""></div> 
                </div>","null","","","","","","","","",""
"","","","","","html-button-response","146","644340","0.0-146.0","156A9D4D463243D18E819D220981A96A","019cf796-e206-74ed-a570-611a1d3df82a","019cf78c-cfcf-769c-9016-9b96552b5e33","","730","
                <div class=""stimulus-container"">
                    <img src=""images/semantic_sequence/creative_activities_semantic/creative_activities_semantic_2.png"" class=""exp-image"">
                    <div class=""question-area"">
                        <p style=""font-size: 20px; font-weight: bold; margin: 0;"">Is there a person in this image?</p>
                    </div>
                </div>","0","main_experiment_trial","2","creative_activities_semantic","semantic_sequence","","","","",""
"","","","","","html-keyboard-response","147","649342","0.0-147.0","156A9D4D463243D18E819D220981A96A","019cf796-e206-74ed-a570-611a1d3df82a","019cf78c-cfcf-769c-9016-9b96552b5e33","","null","
                <div class=""stimulus-container"">
                    <img src=""images/semantic_sequence/creative_activities_semantic/creative_activities_semantic_3.png"" class=""exp-image"">
                    <div class=""question-area""></div> 
                </div>","null","","","","","","","","",""
"","","","","","html-button-response","148","649938","0.0-148.0","156A9D4D463243D18E819D220981A96A","019cf796-e206-74ed-a570-611a1d3df82a","019cf78c-cfcf-769c-9016-9b96552b5e33","","595","
                <div class=""stimulus-container"">
                    <img src=""images/semantic_sequence/creative_activities_semantic/creative_activities_semantic_3.png"" class=""exp-image"">
                    <div class=""question-area"">
                        <p style=""font-size: 20px; font-weight: bold; margin: 0;"">Is there a person in this image?</p>
                    </div>
                </div>","0","main_experiment_trial","3","creative_activities_semantic","semantic_sequence","","","","",""
"","","","","","html-keyboard-response","149","654940","0.0-149.0","156A9D4D463243D18E819D220981A96A","019cf796-e206-74ed-a570-611a1d3df82a","019cf78c-cfcf-769c-9016-9b96552b5e33","","null","
                <div class=""stimulus-container"">
                    <img src=""images/semantic_sequence/creative_activities_semantic/creative_activities_semantic_4.png"" class=""exp-image"">
                    <div class=""question-area""></div> 
                </div>","null","","","","","","","","",""
"","","","","","html-button-response","150","655738","0.0-150.0","156A9D4D463243D18E819D220981A96A","019cf796-e206-74ed-a570-611a1d3df82a","019cf78c-cfcf-769c-9016-9b96552b5e33","","796","
                <div class=""stimulus-container"">
                    <img src=""images/semantic_sequence/creative_activities_semantic/creative_activities_semantic_4.png"" class=""exp-image"">
                    <div class=""question-area"">
                        <p style=""font-size: 20px; font-weight: bold; margin: 0;"">Is there a person in this image?</p>
                    </div>
                </div>","0","main_experiment_trial","4","creative_activities_semantic","semantic_sequence","","","","",""
"","","","","","html-keyboard-response","151","660740","0.0-151.0","156A9D4D463243D18E819D220981A96A","019cf796-e206-74ed-a570-611a1d3df82a","019cf78c-cfcf-769c-9016-9b96552b5e33","","null","
                <div class=""stimulus-container"">
                    <img src=""images/semantic_sequence/creative_activities_semantic/creative_activities_semantic_5.png"" class=""exp-image"">
                    <div class=""question-area""></div> 
                </div>","null","","","","","","","","",""
"","","","","","html-button-response","152","661377","0.0-152.0","156A9D4D463243D18E819D220981A96A","019cf796-e206-74ed-a570-611a1d3df82a","019cf78c-cfcf-769c-9016-9b96552b5e33","","635","
                <div class=""stimulus-container"">
                    <img src=""images/semantic_sequence/creative_activities_semantic/creative_activities_semantic_5.png"" class=""exp-image"">
                    <div class=""question-area"">
                        <p style=""font-size: 20px; font-weight: bold; margin: 0;"">Is there a person in this image?</p>
                    </div>
                </div>","0","main_experiment_trial","5","creative_activities_semantic","semantic_sequence","","","","",""
"","","","","","html-keyboard-response","153","666379","0.0-153.0","156A9D4D463243D18E819D220981A96A","019cf796-e206-74ed-a570-611a1d3df82a","019cf78c-cfcf-769c-9016-9b96552b5e33","","null","
                <div class=""stimulus-container"">
                    <img src=""images/semantic_sequence/creative_activities_semantic/creative_activities_semantic_6.png"" class=""exp-image"">
                    <div class=""question-area""></div> 
                </div>","null","","","","","","","","",""
"","","","","","html-button-response","154","667072","0.0-154.0","156A9D4D463243D18E819D220981A96A","019cf796-e206-74ed-a570-611a1d3df82a","019cf78c-cfcf-769c-9016-9b96552b5e33","","691","
                <div class=""stimulus-container"">
                    <img src=""images/semantic_sequence/creative_activities_semantic/creative_activities_semantic_6.png"" class=""exp-image"">
                    <div class=""question-area"">
                        <p style=""font-size: 20px; font-weight: bold; margin: 0;"">Is there a person in this image?</p>
                    </div>
                </div>","0","main_experiment_trial","6","creative_activities_semantic","semantic_sequence","","","","",""
"","","","","","html-keyboard-response","155","672074","0.0-155.0","156A9D4D463243D18E819D220981A96A","019cf796-e206-74ed-a570-611a1d3df82a","019cf78c-cfcf-769c-9016-9b96552b5e33","","null","
                <div class=""stimulus-container"">
                    <img src=""images/semantic_sequence/creative_activities_semantic/creative_activities_semantic_7.png"" class=""exp-image"">
                    <div class=""question-area""></div> 
                </div>","null","","","","","","","","",""
"","","","","","html-button-response","156","673925","0.0-156.0","156A9D4D463243D18E819D220981A96A","019cf796-e206-74ed-a570-611a1d3df82a","019cf78c-cfcf-769c-9016-9b96552b5e33","","1849","
                <div class=""stimulus-container"">
                    <img src=""images/semantic_sequence/creative_activities_semantic/creative_activities_semantic_7.png"" class=""exp-image"">
                    <div class=""question-area"">
                        <p style=""font-size: 20px; font-weight: bold; margin: 0;"">Is there a person in this image?</p>
                    </div>
                </div>","0","main_experiment_trial","7","creative_activities_semantic","semantic_sequence","","","","",""
"","","","","","html-keyboard-response","157","678926","0.0-157.0","156A9D4D463243D18E819D220981A96A","019cf796-e206-74ed-a570-611a1d3df82a","019cf78c-cfcf-769c-9016-9b96552b5e33","","null","
                <div class=""stimulus-container"">
                    <img src=""images/semantic_sequence/creative_activities_semantic/creative_activities_semantic_8.png"" class=""exp-image"">
                    <div class=""question-area""></div> 
                </div>","null","","","","","","","","",""
"","","","","","html-button-response","158","679639","0.0-158.0","156A9D4D463243D18E819D220981A96A","019cf796-e206-74ed-a570-611a1d3df82a","019cf78c-cfcf-769c-9016-9b96552b5e33","","712","
                <div class=""stimulus-container"">
                    <img src=""images/semantic_sequence/creative_activities_semantic/creative_activities_semantic_8.png"" class=""exp-image"">
                    <div class=""question-area"">
                        <p style=""font-size: 20px; font-weight: bold; margin: 0;"">Is there a person in this image?</p>
                    </div>
                </div>","0","main_experiment_trial","8","creative_activities_semantic","semantic_sequence","","","","",""
"","","","","","html-keyboard-response","159","684640","0.0-159.0","156A9D4D463243D18E819D220981A96A","019cf796-e206-74ed-a570-611a1d3df82a","019cf78c-cfcf-769c-9016-9b96552b5e33","","null","
                <div class=""stimulus-container"">
                    <img src=""images/semantic_sequence/creative_activities_semantic/creative_activities_semantic_9.png"" class=""exp-image"">
                    <div class=""question-area""></div> 
                </div>","null","","","","","","","","",""
"","","","","","html-button-response","160","685904","0.0-160.0","156A9D4D463243D18E819D220981A96A","019cf796-e206-74ed-a570-611a1d3df82a","019cf78c-cfcf-769c-9016-9b96552b5e33","","1263","
                <div class=""stimulus-container"">
                    <img src=""images/semantic_sequence/creative_activities_semantic/creative_activities_semantic_9.png"" class=""exp-image"">
                    <div class=""question-area"">
                        <p style=""font-size: 20px; font-weight: bold; margin: 0;"">Is there a person in this image?</p>
                    </div>
                </div>","0","main_experiment_trial","9","creative_activities_semantic","semantic_sequence","","","","",""
"","","","","","html-keyboard-response","161","690906","0.0-161.0","156A9D4D463243D18E819D220981A96A","019cf796-e206-74ed-a570-611a1d3df82a","019cf78c-cfcf-769c-9016-9b96552b5e33","","null","
                <div class=""stimulus-container"">
                    <img src=""images/semantic_sequence/creative_activities_semantic/creative_activities_semantic_ten.png"" class=""exp-image"">
                    <div class=""question-area""></div> 
                </div>","null","","","","","","","","",""
"","","","","","html-button-response","162","691654","0.0-162.0","156A9D4D463243D18E819D220981A96A","019cf796-e206-74ed-a570-611a1d3df82a","019cf78c-cfcf-769c-9016-9b96552b5e33","","748","
                <div class=""stimulus-container"">
                    <img src=""images/semantic_sequence/creative_activities_semantic/creative_activities_semantic_ten.png"" class=""exp-image"">
                    <div class=""question-area"">
                        <p style=""font-size: 20px; font-weight: bold; margin: 0;"">Is there a person in this image?</p>
                    </div>
                </div>","0","main_experiment_trial","ten","creative_activities_semantic","semantic_sequence","","","","",""
"","","","","","html-keyboard-response","163","692656","0.0-163.0","156A9D4D463243D18E819D220981A96A","019cf796-e206-74ed-a570-611a1d3df82a","019cf78c-cfcf-769c-9016-9b96552b5e33","","null","<div style=""background-color: white; width: 100vw; height: 100vh;""></div>","null","","","","","","","","",""
"","","","","","html-keyboard-response","164","697658","0.0-164.0","156A9D4D463243D18E819D220981A96A","019cf796-e206-74ed-a570-611a1d3df82a","019cf78c-cfcf-769c-9016-9b96552b5e33","","null","
                <div class=""stimulus-container"">
                    <img src=""images/schematic_sequence/restaurant_scheme/restaurant_scheme_1.png"" class=""exp-image"">
                    <div class=""question-area""></div> 
                </div>","null","","","","","","","","",""
"","","","","","html-button-response","165","698589","0.0-165.0","156A9D4D463243D18E819D220981A96A","019cf796-e206-74ed-a570-611a1d3df82a","019cf78c-cfcf-769c-9016-9b96552b5e33","","931","
                <div class=""stimulus-container"">
                    <img src=""images/schematic_sequence/restaurant_scheme/restaurant_scheme_1.png"" class=""exp-image"">
                    <div class=""question-area"">
                        <p style=""font-size: 20px; font-weight: bold; margin: 0;"">Is there a person in this image?</p>
                    </div>
                </div>","0","main_experiment_trial","1","restaurant_scheme","schematic_sequence","","","","",""
"","","","","","html-keyboard-response","166","703592","0.0-166.0","156A9D4D463243D18E819D220981A96A","019cf796-e206-74ed-a570-611a1d3df82a","019cf78c-cfcf-769c-9016-9b96552b5e33","","null","
                <div class=""stimulus-container"">
                    <img src=""images/schematic_sequence/restaurant_scheme/restaurant_scheme_2.png"" class=""exp-image"">
                    <div class=""question-area""></div> 
                </div>","null","","","","","","","","",""
"","","","","","html-button-response","167","704654","0.0-167.0","156A9D4D463243D18E819D220981A96A","019cf796-e206-74ed-a570-611a1d3df82a","019cf78c-cfcf-769c-9016-9b96552b5e33","","1061","
                <div class=""stimulus-container"">
                    <img src=""images/schematic_sequence/restaurant_scheme/restaurant_scheme_2.png"" class=""exp-image"">
                    <div class=""question-area"">
                        <p style=""font-size: 20px; font-weight: bold; margin: 0;"">Is there a person in this image?</p>
                    </div>
                </div>","1","main_experiment_trial","2","restaurant_scheme","schematic_sequence","","","","",""
"","","","","","html-keyboard-response","168","709656","0.0-168.0","156A9D4D463243D18E819D220981A96A","019cf796-e206-74ed-a570-611a1d3df82a","019cf78c-cfcf-769c-9016-9b96552b5e33","","null","
                <div class=""stimulus-container"">
                    <img src=""images/schematic_sequence/restaurant_scheme/restaurant_scheme_3.png"" class=""exp-image"">
                    <div class=""question-area""></div> 
                </div>","null","","","","","","","","",""
"","","","","","html-button-response","169","710441","0.0-169.0","156A9D4D463243D18E819D220981A96A","019cf796-e206-74ed-a570-611a1d3df82a","019cf78c-cfcf-769c-9016-9b96552b5e33","","783","
                <div class=""stimulus-container"">
                    <img src=""images/schematic_sequence/restaurant_scheme/restaurant_scheme_3.png"" class=""exp-image"">
                    <div class=""question-area"">
                        <p style=""font-size: 20px; font-weight: bold; margin: 0;"">Is there a person in this image?</p>
                    </div>
                </div>","1","main_experiment_trial","3","restaurant_scheme","schematic_sequence","","","","",""
"","","","","","html-keyboard-response","170","715442","0.0-170.0","156A9D4D463243D18E819D220981A96A","019cf796-e206-74ed-a570-611a1d3df82a","019cf78c-cfcf-769c-9016-9b96552b5e33","","null","
                <div class=""stimulus-container"">
                    <img src=""images/schematic_sequence/restaurant_scheme/restaurant_scheme_4.png"" class=""exp-image"">
                    <div class=""question-area""></div> 
                </div>","null","","","","","","","","",""
"","","","","","html-button-response","171","716404","0.0-171.0","156A9D4D463243D18E819D220981A96A","019cf796-e206-74ed-a570-611a1d3df82a","019cf78c-cfcf-769c-9016-9b96552b5e33","","961","
                <div class=""stimulus-container"">
                    <img src=""images/schematic_sequence/restaurant_scheme/restaurant_scheme_4.png"" class=""exp-image"">
                    <div class=""question-area"">
                        <p style=""font-size: 20px; font-weight: bold; margin: 0;"">Is there a person in this image?</p>
                    </div>
                </div>","0","main_experiment_trial","4","restaurant_scheme","schematic_sequence","","","","",""
"","","","","","html-keyboard-response","172","721405","0.0-172.0","156A9D4D463243D18E819D220981A96A","019cf796-e206-74ed-a570-611a1d3df82a","019cf78c-cfcf-769c-9016-9b96552b5e33","","null","
                <div class=""stimulus-container"">
                    <img src=""images/schematic_sequence/restaurant_scheme/restaurant_scheme_5.png"" class=""exp-image"">
                    <div class=""question-area""></div> 
                </div>","null","","","","","","","","",""
"","","","","","html-button-response","173","722237","0.0-173.0","156A9D4D463243D18E819D220981A96A","019cf796-e206-74ed-a570-611a1d3df82a","019cf78c-cfcf-769c-9016-9b96552b5e33","","832","
                <div class=""stimulus-container"">
                    <img src=""images/schematic_sequence/restaurant_scheme/restaurant_scheme_5.png"" class=""exp-image"">
                    <div class=""question-area"">
                        <p style=""font-size: 20px; font-weight: bold; margin: 0;"">Is there a person in this image?</p>
                    </div>
                </div>","0","main_experiment_trial","5","restaurant_scheme","schematic_sequence","","","","",""
"","","","","","html-keyboard-response","174","727239","0.0-174.0","156A9D4D463243D18E819D220981A96A","019cf796-e206-74ed-a570-611a1d3df82a","019cf78c-cfcf-769c-9016-9b96552b5e33","","null","
                <div class=""stimulus-container"">
                    <img src=""images/schematic_sequence/restaurant_scheme/restaurant_scheme_6.png"" class=""exp-image"">
                    <div class=""question-area""></div> 
                </div>","null","","","","","","","","",""
"","","","","","html-button-response","175","728020","0.0-175.0","156A9D4D463243D18E819D220981A96A","019cf796-e206-74ed-a570-611a1d3df82a","019cf78c-cfcf-769c-9016-9b96552b5e33","","781","
                <div class=""stimulus-container"">
                    <img src=""images/schematic_sequence/restaurant_scheme/restaurant_scheme_6.png"" class=""exp-image"">
                    <div class=""question-area"">
                        <p style=""font-size: 20px; font-weight: bold; margin: 0;"">Is there a person in this image?</p>
                    </div>
                </div>","1","main_experiment_trial","6","restaurant_scheme","schematic_sequence","","","","",""
"","","","","","html-keyboard-response","176","733023","0.0-176.0","156A9D4D463243D18E819D220981A96A","019cf796-e206-74ed-a570-611a1d3df82a","019cf78c-cfcf-769c-9016-9b96552b5e33","","null","
                <div class=""stimulus-container"">
                    <img src=""images/schematic_sequence/restaurant_scheme/restaurant_scheme_7.png"" class=""exp-image"">
                    <div class=""question-area""></div> 
                </div>","null","","","","","","","","",""
"","","","","","html-button-response","177","733987","0.0-177.0","156A9D4D463243D18E819D220981A96A","019cf796-e206-74ed-a570-611a1d3df82a","019cf78c-cfcf-769c-9016-9b96552b5e33","","962","
                <div class=""stimulus-container"">
                    <img src=""images/schematic_sequence/restaurant_scheme/restaurant_scheme_7.png"" class=""exp-image"">
                    <div class=""question-area"">
                        <p style=""font-size: 20px; font-weight: bold; margin: 0;"">Is there a person in this image?</p>
                    </div>
                </div>","1","main_experiment_trial","7","restaurant_scheme","schematic_sequence","","","","",""
"","","","","","html-keyboard-response","178","738989","0.0-178.0","156A9D4D463243D18E819D220981A96A","019cf796-e206-74ed-a570-611a1d3df82a","019cf78c-cfcf-769c-9016-9b96552b5e33","","null","
                <div class=""stimulus-container"">
                    <img src=""images/schematic_sequence/restaurant_scheme/restaurant_scheme_8.png"" class=""exp-image"">
                    <div class=""question-area""></div> 
                </div>","null","","","","","","","","",""
"","","","","","html-button-response","179","739987","0.0-179.0","156A9D4D463243D18E819D220981A96A","019cf796-e206-74ed-a570-611a1d3df82a","019cf78c-cfcf-769c-9016-9b96552b5e33","","996","
                <div class=""stimulus-container"">
                    <img src=""images/schematic_sequence/restaurant_scheme/restaurant_scheme_8.png"" class=""exp-image"">
                    <div class=""question-area"">
                        <p style=""font-size: 20px; font-weight: bold; margin: 0;"">Is there a person in this image?</p>
                    </div>
                </div>","0","main_experiment_trial","8","restaurant_scheme","schematic_sequence","","","","",""
"","","","","","html-keyboard-response","180","744989","0.0-180.0","156A9D4D463243D18E819D220981A96A","019cf796-e206-74ed-a570-611a1d3df82a","019cf78c-cfcf-769c-9016-9b96552b5e33","","null","
