"success","timeout","failed_images","failed_audio","failed_video","trial_type","trial_index","time_elapsed","internal_node_id","subject_id","study_id","session_id","view_history","rt","stimulus","response","task","image_index","folder","sequence_type","presentation_order","valuable_image_index","reward_type","distance_from_x","target_X","chosen_image_index","is_x_plus_dist","correct_choice"
"true","false","[]","[]","[]","preload","0","3139","0.0-0.0","862DE92E02A74C3BAEE8EFBED4955858","019d6b50-c6ef-76b7-96c6-f9622d8344a4","019d6b28-084c-76dd-a1cb-5ac041bdee9a","","","","","","","","","","","","","","","",""
"","","","","","instructions","1","10945","0.0-1.0","862DE92E02A74C3BAEE8EFBED4955858","019d6b50-c6ef-76b7-96c6-f9622d8344a4","019d6b28-084c-76dd-a1cb-5ac041bdee9a","[{""page_index"":0,""viewing_time"":7804}]","7804","","","","","","","","","","","","","",""
"","","","","","instructions","2","13681","0.0-2.0","862DE92E02A74C3BAEE8EFBED4955858","019d6b50-c6ef-76b7-96c6-f9622d8344a4","019d6b28-084c-76dd-a1cb-5ac041bdee9a","[{""page_index"":0,""viewing_time"":2736}]","2736","","","","","","","","","","","","","",""
"true","","","","","fullscreen","3","16247","0.0-3.0","862DE92E02A74C3BAEE8EFBED4955858","019d6b50-c6ef-76b7-96c6-f9622d8344a4","019d6b28-084c-76dd-a1cb-5ac041bdee9a","","1560","","","","","","","","","","","","","",""
"","","","","","instructions","4","22569","0.0-4.0","862DE92E02A74C3BAEE8EFBED4955858","019d6b50-c6ef-76b7-96c6-f9622d8344a4","019d6b28-084c-76dd-a1cb-5ac041bdee9a","[{""page_index"":0,""viewing_time"":6321}]","6321","","","","","","","","","","","","","",""
"","","","","","instructions","5","35368","0.0-5.0","862DE92E02A74C3BAEE8EFBED4955858","019d6b50-c6ef-76b7-96c6-f9622d8344a4","019d6b28-084c-76dd-a1cb-5ac041bdee9a","[{""page_index"":0,""viewing_time"":12799}]","12799","","","","","","","","","","","","","",""
"","","","","","html-keyboard-response","6","39384","0.0-6.0","862DE92E02A74C3BAEE8EFBED4955858","019d6b50-c6ef-76b7-96c6-f9622d8344a4","019d6b28-084c-76dd-a1cb-5ac041bdee9a","","null","
            <div class=""stimulus-container"">
                <img src=""images/instructions/movie_1.png"" class=""exp-image"">
                <div class=""question-area""></div> 
            </div>","null","","","","","","","","","","","",""
"","","","","","html-button-response","7","42393","0.0-7.0","862DE92E02A74C3BAEE8EFBED4955858","019d6b50-c6ef-76b7-96c6-f9622d8344a4","019d6b28-084c-76dd-a1cb-5ac041bdee9a","","null","
            <div class=""stimulus-container"">
                <img src=""images/instructions/movie_1.png"" class=""exp-image"">
                <div class=""question-area"">
                    <p style=""font-size: 20px; font-weight: bold; margin: 0;"">Was there a person in this image?</p>
                </div>
            </div>","null","example_question","1","","","","","","","","","",""
"","","","","","html-keyboard-response","8","46408","0.0-8.0","862DE92E02A74C3BAEE8EFBED4955858","019d6b50-c6ef-76b7-96c6-f9622d8344a4","019d6b28-084c-76dd-a1cb-5ac041bdee9a","","null","
            <div class=""stimulus-container"">
                <img src=""images/instructions/movie_2.png"" class=""exp-image"">
                <div class=""question-area""></div> 
            </div>","null","","","","","","","","","","","",""
"","","","","","html-button-response","9","47384","0.0-9.0","862DE92E02A74C3BAEE8EFBED4955858","019d6b50-c6ef-76b7-96c6-f9622d8344a4","019d6b28-084c-76dd-a1cb-5ac041bdee9a","","974","
            <div class=""stimulus-container"">
                <img src=""images/instructions/movie_2.png"" class=""exp-image"">
                <div class=""question-area"">
                    <p style=""font-size: 20px; font-weight: bold; margin: 0;"">Was there a person in this image?</p>
                </div>
            </div>","1","example_question","2","","","","","","","","","",""
"","","","","","html-keyboard-response","10","51395","0.0-10.0","862DE92E02A74C3BAEE8EFBED4955858","019d6b50-c6ef-76b7-96c6-f9622d8344a4","019d6b28-084c-76dd-a1cb-5ac041bdee9a","","null","
            <div class=""stimulus-container"">
                <img src=""images/instructions/movie_3.png"" class=""exp-image"">
                <div class=""question-area""></div> 
            </div>","null","","","","","","","","","","","",""
"","","","","","html-button-response","11","52185","0.0-11.0","862DE92E02A74C3BAEE8EFBED4955858","019d6b50-c6ef-76b7-96c6-f9622d8344a4","019d6b28-084c-76dd-a1cb-5ac041bdee9a","","789","
            <div class=""stimulus-container"">
                <img src=""images/instructions/movie_3.png"" class=""exp-image"">
                <div class=""question-area"">
                    <p style=""font-size: 20px; font-weight: bold; margin: 0;"">Was there a person in this image?</p>
                </div>
            </div>","0","example_question","3","","","","","","","","","",""
"","","","","","html-keyboard-response","12","56201","0.0-12.0","862DE92E02A74C3BAEE8EFBED4955858","019d6b50-c6ef-76b7-96c6-f9622d8344a4","019d6b28-084c-76dd-a1cb-5ac041bdee9a","","null","
            <div class=""stimulus-container"">
                <img src=""images/instructions/movie_4.png"" class=""exp-image"">
                <div class=""question-area""></div> 
            </div>","null","","","","","","","","","","","",""
"","","","","","html-button-response","13","57043","0.0-13.0","862DE92E02A74C3BAEE8EFBED4955858","019d6b50-c6ef-76b7-96c6-f9622d8344a4","019d6b28-084c-76dd-a1cb-5ac041bdee9a","","840","
            <div class=""stimulus-container"">
                <img src=""images/instructions/movie_4.png"" class=""exp-image"">
                <div class=""question-area"">
                    <p style=""font-size: 20px; font-weight: bold; margin: 0;"">Was there a person in this image?</p>
                </div>
            </div>","0","example_question","4","","","","","","","","","",""
"","","","","","instructions","14","66033","0.0-14.0","862DE92E02A74C3BAEE8EFBED4955858","019d6b50-c6ef-76b7-96c6-f9622d8344a4","019d6b28-084c-76dd-a1cb-5ac041bdee9a","[{""page_index"":0,""viewing_time"":8990}]","8990","","","","","","","","","","","","","",""
"","","","","","instructions","15","70857","0.0-15.0","862DE92E02A74C3BAEE8EFBED4955858","019d6b50-c6ef-76b7-96c6-f9622d8344a4","019d6b28-084c-76dd-a1cb-5ac041bdee9a","[{""page_index"":0,""viewing_time"":4824}]","4824","","","","","","","","","","","","","",""
"","","","","","html-keyboard-response","16","75864","0.0-16.0","862DE92E02A74C3BAEE8EFBED4955858","019d6b50-c6ef-76b7-96c6-f9622d8344a4","019d6b28-084c-76dd-a1cb-5ac041bdee9a","","null","<div style=""background-color: white; width: 100vw; height: 100vh;""></div>","null","","","","","","","","","","","",""
"","","","","","html-keyboard-response","17","80881","0.0-17.0","862DE92E02A74C3BAEE8EFBED4955858","019d6b50-c6ef-76b7-96c6-f9622d8344a4","019d6b28-084c-76dd-a1cb-5ac041bdee9a","","null","
                <div class=""stimulus-container"">
                    <img src=""semantic_sequence_notimeline/animals_semantic/animals_semantic_1.png"" class=""exp-image"">
                    <div class=""question-area""></div> 
                </div>","null","","","","","","","","","","","",""
"","","","","","html-button-response","18","81634","0.0-18.0","862DE92E02A74C3BAEE8EFBED4955858","019d6b50-c6ef-76b7-96c6-f9622d8344a4","019d6b28-084c-76dd-a1cb-5ac041bdee9a","","750","
                <div class=""stimulus-container"">
                    <img src=""semantic_sequence_notimeline/animals_semantic/animals_semantic_1.png"" class=""exp-image"">
                    <div class=""question-area"">
                        <p style=""font-size: 20px; font-weight: bold; margin: 0;"">Is there a person in this image?</p>
                    </div>
                </div>","1","main_experiment_trial","1","animals_semantic","semantic_sequence_notimeline","chronological","","","","","","",""
"","","","","","html-keyboard-response","19","86641","0.0-19.0","862DE92E02A74C3BAEE8EFBED4955858","019d6b50-c6ef-76b7-96c6-f9622d8344a4","019d6b28-084c-76dd-a1cb-5ac041bdee9a","","null","
                <div class=""stimulus-container"">
                    <img src=""semantic_sequence_notimeline/animals_semantic/animals_semantic_2.png"" class=""exp-image"">
                    <div class=""question-area""></div> 
                </div>","null","","","","","","","","","","","",""
"","","","","","html-button-response","20","87314","0.0-20.0","862DE92E02A74C3BAEE8EFBED4955858","019d6b50-c6ef-76b7-96c6-f9622d8344a4","019d6b28-084c-76dd-a1cb-5ac041bdee9a","","671","
                <div class=""stimulus-container"">
                    <img src=""semantic_sequence_notimeline/animals_semantic/animals_semantic_2.png"" class=""exp-image"">
                    <div class=""question-area"">
                        <p style=""font-size: 20px; font-weight: bold; margin: 0;"">Is there a person in this image?</p>
                    </div>
                </div>","1","main_experiment_trial","2","animals_semantic","semantic_sequence_notimeline","chronological","","","","","","",""
"","","","","","html-keyboard-response","21","92316","0.0-21.0","862DE92E02A74C3BAEE8EFBED4955858","019d6b50-c6ef-76b7-96c6-f9622d8344a4","019d6b28-084c-76dd-a1cb-5ac041bdee9a","","null","
                <div class=""stimulus-container"">
                    <img src=""semantic_sequence_notimeline/animals_semantic/animals_semantic_3.png"" class=""exp-image"">
                    <div class=""question-area""></div> 
                </div>","null","","","","","","","","","","","",""
"","","","","","html-button-response","22","92873","0.0-22.0","862DE92E02A74C3BAEE8EFBED4955858","019d6b50-c6ef-76b7-96c6-f9622d8344a4","019d6b28-084c-76dd-a1cb-5ac041bdee9a","","555","
                <div class=""stimulus-container"">
                    <img src=""semantic_sequence_notimeline/animals_semantic/animals_semantic_3.png"" class=""exp-image"">
                    <div class=""question-area"">
                        <p style=""font-size: 20px; font-weight: bold; margin: 0;"">Is there a person in this image?</p>
                    </div>
                </div>","1","main_experiment_trial","3","animals_semantic","semantic_sequence_notimeline","chronological","","","","","","",""
"","","","","","html-keyboard-response","23","97888","0.0-23.0","862DE92E02A74C3BAEE8EFBED4955858","019d6b50-c6ef-76b7-96c6-f9622d8344a4","019d6b28-084c-76dd-a1cb-5ac041bdee9a","","null","
                <div class=""stimulus-container"">
                    <img src=""semantic_sequence_notimeline/animals_semantic/animals_semantic_4.png"" class=""exp-image"">
                    <div class=""question-area""></div> 
                </div>","null","","","","","","","","","","","",""
"","","","","","html-button-response","24","98537","0.0-24.0","862DE92E02A74C3BAEE8EFBED4955858","019d6b50-c6ef-76b7-96c6-f9622d8344a4","019d6b28-084c-76dd-a1cb-5ac041bdee9a","","647","
                <div class=""stimulus-container"">
                    <img src=""semantic_sequence_notimeline/animals_semantic/animals_semantic_4.png"" class=""exp-image"">
                    <div class=""question-area"">
                        <p style=""font-size: 20px; font-weight: bold; margin: 0;"">Is there a person in this image?</p>
                    </div>
                </div>","1","main_experiment_trial","4","animals_semantic","semantic_sequence_notimeline","chronological","","","","","","",""
"","","","","","html-keyboard-response","25","103554","0.0-25.0","862DE92E02A74C3BAEE8EFBED4955858","019d6b50-c6ef-76b7-96c6-f9622d8344a4","019d6b28-084c-76dd-a1cb-5ac041bdee9a","","null","
                <div class=""stimulus-container"">
                    <img src=""semantic_sequence_notimeline/animals_semantic/animals_semantic_5.png"" class=""exp-image"">
                    <div class=""question-area""></div> 
                </div>","null","","","","","","","","","","","",""
"","","","","","html-button-response","26","104130","0.0-26.0","862DE92E02A74C3BAEE8EFBED4955858","019d6b50-c6ef-76b7-96c6-f9622d8344a4","019d6b28-084c-76dd-a1cb-5ac041bdee9a","","575","
                <div class=""stimulus-container"">
                    <img src=""semantic_sequence_notimeline/animals_semantic/animals_semantic_5.png"" class=""exp-image"">
                    <div class=""question-area"">
                        <p style=""font-size: 20px; font-weight: bold; margin: 0;"">Is there a person in this image?</p>
                    </div>
                </div>","1","main_experiment_trial","5","animals_semantic","semantic_sequence_notimeline","chronological","","","","","","",""
"","","","","","html-keyboard-response","27","109143","0.0-27.0","862DE92E02A74C3BAEE8EFBED4955858","019d6b50-c6ef-76b7-96c6-f9622d8344a4","019d6b28-084c-76dd-a1cb-5ac041bdee9a","","null","
                <div class=""stimulus-container"">
                    <img src=""semantic_sequence_notimeline/animals_semantic/animals_semantic_6.png"" class=""exp-image"">
                    <div class=""question-area""></div> 
                </div>","null","","","","","","","","","","","",""
"","","","","","html-button-response","28","109753","0.0-28.0","862DE92E02A74C3BAEE8EFBED4955858","019d6b50-c6ef-76b7-96c6-f9622d8344a4","019d6b28-084c-76dd-a1cb-5ac041bdee9a","","608","
                <div class=""stimulus-container"">
                    <img src=""semantic_sequence_notimeline/animals_semantic/animals_semantic_6.png"" class=""exp-image"">
                    <div class=""question-area"">
                        <p style=""font-size: 20px; font-weight: bold; margin: 0;"">Is there a person in this image?</p>
                    </div>
                </div>","1","main_experiment_trial","6","animals_semantic","semantic_sequence_notimeline","chronological","","","","","","",""
"","","","","","html-keyboard-response","29","114757","0.0-29.0","862DE92E02A74C3BAEE8EFBED4955858","019d6b50-c6ef-76b7-96c6-f9622d8344a4","019d6b28-084c-76dd-a1cb-5ac041bdee9a","","null","
                <div class=""stimulus-container"">
                    <img src=""semantic_sequence_notimeline/animals_semantic/animals_semantic_7.png"" class=""exp-image"">
                    <div class=""question-area""></div> 
                </div>","null","","","","","","","","","","","",""
"","","","","","html-button-response","30","115170","0.0-30.0","862DE92E02A74C3BAEE8EFBED4955858","019d6b50-c6ef-76b7-96c6-f9622d8344a4","019d6b28-084c-76dd-a1cb-5ac041bdee9a","","410","
                <div class=""stimulus-container"">
                    <img src=""semantic_sequence_notimeline/animals_semantic/animals_semantic_7.png"" class=""exp-image"">
                    <div class=""question-area"">
                        <p style=""font-size: 20px; font-weight: bold; margin: 0;"">Is there a person in this image?</p>
                    </div>
                </div>","1","main_experiment_trial","7","animals_semantic","semantic_sequence_notimeline","chronological","","","","","","",""
"","","","","","html-keyboard-response","31","120187","0.0-31.0","862DE92E02A74C3BAEE8EFBED4955858","019d6b50-c6ef-76b7-96c6-f9622d8344a4","019d6b28-084c-76dd-a1cb-5ac041bdee9a","","null","
                <div class=""stimulus-container"">
                    <img src=""semantic_sequence_notimeline/animals_semantic/animals_semantic_8.png"" class=""exp-image"">
                    <div class=""question-area""></div> 
                </div>","null","","","","","","","","","","","",""
"","","","","","html-button-response","32","120601","0.0-32.0","862DE92E02A74C3BAEE8EFBED4955858","019d6b50-c6ef-76b7-96c6-f9622d8344a4","019d6b28-084c-76dd-a1cb-5ac041bdee9a","","411","
                <div class=""stimulus-container"">
                    <img src=""semantic_sequence_notimeline/animals_semantic/animals_semantic_8.png"" class=""exp-image"">
                    <div class=""question-area"">
                        <p style=""font-size: 20px; font-weight: bold; margin: 0;"">Is there a person in this image?</p>
                    </div>
                </div>","1","main_experiment_trial","8","animals_semantic","semantic_sequence_notimeline","chronological","","","","","","",""
"","","","","","html-keyboard-response","33","125608","0.0-33.0","862DE92E02A74C3BAEE8EFBED4955858","019d6b50-c6ef-76b7-96c6-f9622d8344a4","019d6b28-084c-76dd-a1cb-5ac041bdee9a","","null","
                <div class=""stimulus-container"">
                    <img src=""semantic_sequence_notimeline/animals_semantic/animals_semantic_9.png"" class=""exp-image"">
                    <div class=""question-area""></div> 
                </div>","null","","","","","","","","","","","",""
"","","","","","html-button-response","34","126009","0.0-34.0","862DE92E02A74C3BAEE8EFBED4955858","019d6b50-c6ef-76b7-96c6-f9622d8344a4","019d6b28-084c-76dd-a1cb-5ac041bdee9a","","399","
                <div class=""stimulus-container"">
                    <img src=""semantic_sequence_notimeline/animals_semantic/animals_semantic_9.png"" class=""exp-image"">
                    <div class=""question-area"">
                        <p style=""font-size: 20px; font-weight: bold; margin: 0;"">Is there a person in this image?</p>
                    </div>
                </div>","1","main_experiment_trial","9","animals_semantic","semantic_sequence_notimeline","chronological","","","","","","",""
"","","","","","html-keyboard-response","35","131015","0.0-35.0","862DE92E02A74C3BAEE8EFBED4955858","019d6b50-c6ef-76b7-96c6-f9622d8344a4","019d6b28-084c-76dd-a1cb-5ac041bdee9a","","null","
                <div class=""stimulus-container"">
                    <img src=""semantic_sequence_notimeline/animals_semantic/animals_semantic_ten.png"" class=""exp-image"">
                    <div class=""question-area""></div> 
                </div>","null","","","","","","","","","","","",""
"","","","","","html-button-response","36","131451","0.0-36.0","862DE92E02A74C3BAEE8EFBED4955858","019d6b50-c6ef-76b7-96c6-f9622d8344a4","019d6b28-084c-76dd-a1cb-5ac041bdee9a","","434","
                <div class=""stimulus-container"">
                    <img src=""semantic_sequence_notimeline/animals_semantic/animals_semantic_ten.png"" class=""exp-image"">
                    <div class=""question-area"">
                        <p style=""font-size: 20px; font-weight: bold; margin: 0;"">Is there a person in this image?</p>
                    </div>
                </div>","1","main_experiment_trial","ten","animals_semantic","semantic_sequence_notimeline","chronological","","","","","","",""
"","","","","","html-keyboard-response","37","136451","0.0-37.0","862DE92E02A74C3BAEE8EFBED4955858","019d6b50-c6ef-76b7-96c6-f9622d8344a4","019d6b28-084c-76dd-a1cb-5ac041bdee9a","","null","<div style=""background-color: white; width: 100vw; height: 100vh;""></div>","null","","","","","","","","","","","",""
"","","","","","html-keyboard-response","38","141458","0.0-38.0","862DE92E02A74C3BAEE8EFBED4955858","019d6b50-c6ef-76b7-96c6-f9622d8344a4","019d6b28-084c-76dd-a1cb-5ac041bdee9a","","null","
                <div class=""stimulus-container"">
                    <img src=""semantic_sequence_notimeline/fruits_semantic/fruits_semantic_1.png"" class=""exp-image"">
                    <div class=""question-area""></div> 
                </div>","null","","","","","","","","","","","",""
"","","","","","html-button-response","39","142153","0.0-39.0","862DE92E02A74C3BAEE8EFBED4955858","019d6b50-c6ef-76b7-96c6-f9622d8344a4","019d6b28-084c-76dd-a1cb-5ac041bdee9a","","693","
                <div class=""stimulus-container"">
                    <img src=""semantic_sequence_notimeline/fruits_semantic/fruits_semantic_1.png"" class=""exp-image"">
                    <div class=""question-area"">
                        <p style=""font-size: 20px; font-weight: bold; margin: 0;"">Is there a person in this image?</p>
                    </div>
                </div>","1","main_experiment_trial","1","fruits_semantic","semantic_sequence_notimeline","chronological","","","","","","",""
"","","","","","html-keyboard-response","40","147159","0.0-40.0","862DE92E02A74C3BAEE8EFBED4955858","019d6b50-c6ef-76b7-96c6-f9622d8344a4","019d6b28-084c-76dd-a1cb-5ac041bdee9a","","null","
                <div class=""stimulus-container"">
                    <img src=""semantic_sequence_notimeline/fruits_semantic/fruits_semantic_2.png"" class=""exp-image"">
                    <div class=""question-area""></div> 
                </div>","null","","","","","","","","","","","",""
"","","","","","html-button-response","41","147577","0.0-41.0","862DE92E02A74C3BAEE8EFBED4955858","019d6b50-c6ef-76b7-96c6-f9622d8344a4","019d6b28-084c-76dd-a1cb-5ac041bdee9a","","416","
                <div class=""stimulus-container"">
                    <img src=""semantic_sequence_notimeline/fruits_semantic/fruits_semantic_2.png"" class=""exp-image"">
                    <div class=""question-area"">
                        <p style=""font-size: 20px; font-weight: bold; margin: 0;"">Is there a person in this image?</p>
                    </div>
                </div>","1","main_experiment_trial","2","fruits_semantic","semantic_sequence_notimeline","chronological","","","","","","",""
"","","","","","html-keyboard-response","42","152590","0.0-42.0","862DE92E02A74C3BAEE8EFBED4955858","019d6b50-c6ef-76b7-96c6-f9622d8344a4","019d6b28-084c-76dd-a1cb-5ac041bdee9a","","null","
                <div class=""stimulus-container"">
                    <img src=""semantic_sequence_notimeline/fruits_semantic/fruits_semantic_3.png"" class=""exp-image"">
                    <div class=""question-area""></div> 
                </div>","null","","","","","","","","","","","",""
"","","","","","html-button-response","43","152993","0.0-43.0","862DE92E02A74C3BAEE8EFBED4955858","019d6b50-c6ef-76b7-96c6-f9622d8344a4","019d6b28-084c-76dd-a1cb-5ac041bdee9a","","402","
                <div class=""stimulus-container"">
                    <img src=""semantic_sequence_notimeline/fruits_semantic/fruits_semantic_3.png"" class=""exp-image"">
                    <div class=""question-area"">
                        <p style=""font-size: 20px; font-weight: bold; margin: 0;"">Is there a person in this image?</p>
                    </div>
                </div>","1","main_experiment_trial","3","fruits_semantic","semantic_sequence_notimeline","chronological","","","","","","",""
"","","","","","html-keyboard-response","44","157999","0.0-44.0","862DE92E02A74C3BAEE8EFBED4955858","019d6b50-c6ef-76b7-96c6-f9622d8344a4","019d6b28-084c-76dd-a1cb-5ac041bdee9a","","null","
                <div class=""stimulus-container"">
                    <img src=""semantic_sequence_notimeline/fruits_semantic/fruits_semantic_4.png"" class=""exp-image"">
                    <div class=""question-area""></div> 
                </div>","null","","","","","","","","","","","",""
"","","","","","html-button-response","45","158346","0.0-45.0","862DE92E02A74C3BAEE8EFBED4955858","019d6b50-c6ef-76b7-96c6-f9622d8344a4","019d6b28-084c-76dd-a1cb-5ac041bdee9a","","345","
                <div class=""stimulus-container"">
                    <img src=""semantic_sequence_notimeline/fruits_semantic/fruits_semantic_4.png"" class=""exp-image"">
                    <div class=""question-area"">
                        <p style=""font-size: 20px; font-weight: bold; margin: 0;"">Is there a person in this image?</p>
                    </div>
                </div>","1","main_experiment_trial","4","fruits_semantic","semantic_sequence_notimeline","chronological","","","","","","",""
"","","","","","html-keyboard-response","46","163363","0.0-46.0","862DE92E02A74C3BAEE8EFBED4955858","019d6b50-c6ef-76b7-96c6-f9622d8344a4","019d6b28-084c-76dd-a1cb-5ac041bdee9a","","null","
                <div class=""stimulus-container"">
                    <img src=""semantic_sequence_notimeline/fruits_semantic/fruits_semantic_5.png"" class=""exp-image"">
                    <div class=""question-area""></div> 
                </div>","null","","","","","","","","","","","",""
"","","","","","html-button-response","47","163721","0.0-47.0","862DE92E02A74C3BAEE8EFBED4955858","019d6b50-c6ef-76b7-96c6-f9622d8344a4","019d6b28-084c-76dd-a1cb-5ac041bdee9a","","356","
                <div class=""stimulus-container"">
                    <img src=""semantic_sequence_notimeline/fruits_semantic/fruits_semantic_5.png"" class=""exp-image"">
                    <div class=""question-area"">
                        <p style=""font-size: 20px; font-weight: bold; margin: 0;"">Is there a person in this image?</p>
                    </div>
                </div>","1","main_experiment_trial","5","fruits_semantic","semantic_sequence_notimeline","chronological","","","","","","",""
"","","","","","html-keyboard-response","48","168734","0.0-48.0","862DE92E02A74C3BAEE8EFBED4955858","019d6b50-c6ef-76b7-96c6-f9622d8344a4","019d6b28-084c-76dd-a1cb-5ac041bdee9a","","null","
                <div class=""stimulus-container"">
                    <img src=""semantic_sequence_notimeline/fruits_semantic/fruits_semantic_6.png"" class=""exp-image"">
                    <div class=""question-area""></div> 
                </div>","null","","","","","","","","","","","",""
"","","","","","html-button-response","49","169098","0.0-49.0","862DE92E02A74C3BAEE8EFBED4955858","019d6b50-c6ef-76b7-96c6-f9622d8344a4","019d6b28-084c-76dd-a1cb-5ac041bdee9a","","362","
                <div class=""stimulus-container"">
                    <img src=""semantic_sequence_notimeline/fruits_semantic/fruits_semantic_6.png"" class=""exp-image"">
                    <div class=""question-area"">
                        <p style=""font-size: 20px; font-weight: bold; margin: 0;"">Is there a person in this image?</p>
                    </div>
                </div>","1","main_experiment_trial","6","fruits_semantic","semantic_sequence_notimeline","chronological","","","","","","",""
"","","","","","html-keyboard-response","50","174105","0.0-50.0","862DE92E02A74C3BAEE8EFBED4955858","019d6b50-c6ef-76b7-96c6-f9622d8344a4","019d6b28-084c-76dd-a1cb-5ac041bdee9a","","null","
                <div class=""stimulus-container"">
                    <img src=""semantic_sequence_notimeline/fruits_semantic/fruits_semantic_7.png"" class=""exp-image"">
                    <div class=""question-area""></div> 
                </div>","null","","","","","","","","","","","",""
"","","","","","html-button-response","51","174489","0.0-51.0","862DE92E02A74C3BAEE8EFBED4955858","019d6b50-c6ef-76b7-96c6-f9622d8344a4","019d6b28-084c-76dd-a1cb-5ac041bdee9a","","382","
                <div class=""stimulus-container"">
                    <img src=""semantic_sequence_notimeline/fruits_semantic/fruits_semantic_7.png"" class=""exp-image"">
                    <div class=""question-area"">
                        <p style=""font-size: 20px; font-weight: bold; margin: 0;"">Is there a person in this image?</p>
                    </div>
                </div>","1","main_experiment_trial","7","fruits_semantic","semantic_sequence_notimeline","chronological","","","","","","",""
"","","","","","html-keyboard-response","52","179496","0.0-52.0","862DE92E02A74C3BAEE8EFBED4955858","019d6b50-c6ef-76b7-96c6-f9622d8344a4","019d6b28-084c-76dd-a1cb-5ac041bdee9a","","null","
                <div class=""stimulus-container"">
                    <img src=""semantic_sequence_notimeline/fruits_semantic/fruits_semantic_8.png"" class=""exp-image"">
                    <div class=""question-area""></div> 
                </div>","null","","","","","","","","","","","",""
"","","","","","html-button-response","53","179866","0.0-53.0","862DE92E02A74C3BAEE8EFBED4955858","019d6b50-c6ef-76b7-96c6-f9622d8344a4","019d6b28-084c-76dd-a1cb-5ac041bdee9a","","370","
                <div class=""stimulus-container"">
                    <img src=""semantic_sequence_notimeline/fruits_semantic/fruits_semantic_8.png"" class=""exp-image"">
                    <div class=""question-area"">
                        <p style=""font-size: 20px; font-weight: bold; margin: 0;"">Is there a person in this image?</p>
                    </div>
                </div>","1","main_experiment_trial","8","fruits_semantic","semantic_sequence_notimeline","chronological","","","","","","",""
"","","","","","html-keyboard-response","54","184873","0.0-54.0","862DE92E02A74C3BAEE8EFBED4955858","019d6b50-c6ef-76b7-96c6-f9622d8344a4","019d6b28-084c-76dd-a1cb-5ac041bdee9a","","null","
                <div class=""stimulus-container"">
                    <img src=""semantic_sequence_notimeline/fruits_semantic/fruits_semantic_9.png"" class=""exp-image"">
                    <div class=""question-area""></div> 
                </div>","null","","","","","","","","","","","",""
"","","","","","html-button-response","55","185201","0.0-55.0","862DE92E02A74C3BAEE8EFBED4955858","019d6b50-c6ef-76b7-96c6-f9622d8344a4","019d6b28-084c-76dd-a1cb-5ac041bdee9a","","326","
                <div class=""stimulus-container"">
                    <img src=""semantic_sequence_notimeline/fruits_semantic/fruits_semantic_9.png"" class=""exp-image"">
                    <div class=""question-area"">
                        <p style=""font-size: 20px; font-weight: bold; margin: 0;"">Is there a person in this image?</p>
                    </div>
                </div>","1","main_experiment_trial","9","fruits_semantic","semantic_sequence_notimeline","chronological","","","","","","",""
"","","","","","html-keyboard-response","56","190205","0.0-56.0","862DE92E02A74C3BAEE8EFBED4955858","019d6b50-c6ef-76b7-96c6-f9622d8344a4","019d6b28-084c-76dd-a1cb-5ac041bdee9a","","null","
                <div class=""stimulus-container"">
                    <img src=""semantic_sequence_notimeline/fruits_semantic/fruits_semantic_ten.png"" class=""exp-image"">
                    <div class=""question-area""></div> 
                </div>","null","","","","","","","","","","","",""
"","","","","","html-button-response","57","190609","0.0-57.0","862DE92E02A74C3BAEE8EFBED4955858","019d6b50-c6ef-76b7-96c6-f9622d8344a4","019d6b28-084c-76dd-a1cb-5ac041bdee9a","","402","
                <div class=""stimulus-container"">
                    <img src=""semantic_sequence_notimeline/fruits_semantic/fruits_semantic_ten.png"" class=""exp-image"">
                    <div class=""question-area"">
                        <p style=""font-size: 20px; font-weight: bold; margin: 0;"">Is there a person in this image?</p>
                    </div>
                </div>","1","main_experiment_trial","ten","fruits_semantic","semantic_sequence_notimeline","chronological","","","","","","",""
"","","","","","html-keyboard-response","58","195617","0.0-58.0","862DE92E02A74C3BAEE8EFBED4955858","019d6b50-c6ef-76b7-96c6-f9622d8344a4","019d6b28-084c-76dd-a1cb-5ac041bdee9a","","null","<div style=""background-color: white; width: 100vw; height: 100vh;""></div>","null","","","","","","","","","","","",""
"","","","","","html-keyboard-response","59","200633","0.0-59.0","862DE92E02A74C3BAEE8EFBED4955858","019d6b50-c6ef-76b7-96c6-f9622d8344a4","019d6b28-084c-76dd-a1cb-5ac041bdee9a","","null","
                <div class=""stimulus-container"">
                    <img src=""semantic_sequence_notimeline/clothing_semantic/clothing_semantic_1.png"" class=""exp-image"">
                    <div class=""question-area""></div> 
                </div>","null","","","","","","","","","","","",""
"","","","","","html-button-response","60","201210","0.0-60.0","862DE92E02A74C3BAEE8EFBED4955858","019d6b50-c6ef-76b7-96c6-f9622d8344a4","019d6b28-084c-76dd-a1cb-5ac041bdee9a","","576","
                <div class=""stimulus-container"">
                    <img src=""semantic_sequence_notimeline/clothing_semantic/clothing_semantic_1.png"" class=""exp-image"">
                    <div class=""question-area"">
                        <p style=""font-size: 20px; font-weight: bold; margin: 0;"">Is there a person in this image?</p>
                    </div>
                </div>","1","main_experiment_trial","1","clothing_semantic","semantic_sequence_notimeline","chronological","","","","","","",""
"","","","","","html-keyboard-response","61","206215","0.0-61.0","862DE92E02A74C3BAEE8EFBED4955858","019d6b50-c6ef-76b7-96c6-f9622d8344a4","019d6b28-084c-76dd-a1cb-5ac041bdee9a","","null","
                <div class=""stimulus-container"">
                    <img src=""semantic_sequence_notimeline/clothing_semantic/clothing_semantic_2.png"" class=""exp-image"">
                    <div class=""question-area""></div> 
                </div>","null","","","","","","","","","","","",""
"","","","","","html-button-response","62","206545","0.0-62.0","862DE92E02A74C3BAEE8EFBED4955858","019d6b50-c6ef-76b7-96c6-f9622d8344a4","019d6b28-084c-76dd-a1cb-5ac041bdee9a","","329","
                <div class=""stimulus-container"">
                    <img src=""semantic_sequence_notimeline/clothing_semantic/clothing_semantic_2.png"" class=""exp-image"">
                    <div class=""question-area"">
                        <p style=""font-size: 20px; font-weight: bold; margin: 0;"">Is there a person in this image?</p>
                    </div>
                </div>","1","main_experiment_trial","2","clothing_semantic","semantic_sequence_notimeline","chronological","","","","","","",""
"","","","","","html-keyboard-response","63","211558","0.0-63.0","862DE92E02A74C3BAEE8EFBED4955858","019d6b50-c6ef-76b7-96c6-f9622d8344a4","019d6b28-084c-76dd-a1cb-5ac041bdee9a","","null","
                <div class=""stimulus-container"">
                    <img src=""semantic_sequence_notimeline/clothing_semantic/clothing_semantic_3.png"" class=""exp-image"">
                    <div class=""question-area""></div> 
                </div>","null","","","","","","","","","","","",""
"","","","","","html-button-response","64","211994","0.0-64.0","862DE92E02A74C3BAEE8EFBED4955858","019d6b50-c6ef-76b7-96c6-f9622d8344a4","019d6b28-084c-76dd-a1cb-5ac041bdee9a","","434","
                <div class=""stimulus-container"">
                    <img src=""semantic_sequence_notimeline/clothing_semantic/clothing_semantic_3.png"" class=""exp-image"">
                    <div class=""question-area"">
                        <p style=""font-size: 20px; font-weight: bold; margin: 0;"">Is there a person in this image?</p>
                    </div>
                </div>","1","main_experiment_trial","3","clothing_semantic","semantic_sequence_notimeline","chronological","","","","","","",""
"","","","","","html-keyboard-response","65","216996","0.0-65.0","862DE92E02A74C3BAEE8EFBED4955858","019d6b50-c6ef-76b7-96c6-f9622d8344a4","019d6b28-084c-76dd-a1cb-5ac041bdee9a","","null","
                <div class=""stimulus-container"">
                    <img src=""semantic_sequence_notimeline/clothing_semantic/clothing_semantic_4.png"" class=""exp-image"">
                    <div class=""question-area""></div> 
                </div>","null","","","","","","","","","","","",""
"","","","","","html-button-response","66","217393","0.0-66.0","862DE92E02A74C3BAEE8EFBED4955858","019d6b50-c6ef-76b7-96c6-f9622d8344a4","019d6b28-084c-76dd-a1cb-5ac041bdee9a","","396","
                <div class=""stimulus-container"">
                    <img src=""semantic_sequence_notimeline/clothing_semantic/clothing_semantic_4.png"" class=""exp-image"">
                    <div class=""question-area"">
                        <p style=""font-size: 20px; font-weight: bold; margin: 0;"">Is there a person in this image?</p>
                    </div>
                </div>","1","main_experiment_trial","4","clothing_semantic","semantic_sequence_notimeline","chronological","","","","","","",""
"","","","","","html-keyboard-response","67","222396","0.0-67.0","862DE92E02A74C3BAEE8EFBED4955858","019d6b50-c6ef-76b7-96c6-f9622d8344a4","019d6b28-084c-76dd-a1cb-5ac041bdee9a","","null","
                <div class=""stimulus-container"">
                    <img src=""semantic_sequence_notimeline/clothing_semantic/clothing_semantic_5.png"" class=""exp-image"">
                    <div class=""question-area""></div> 
                </div>","null","","","","","","","","","","","",""
"","","","","","html-button-response","68","222738","0.0-68.0","862DE92E02A74C3BAEE8EFBED4955858","019d6b50-c6ef-76b7-96c6-f9622d8344a4","019d6b28-084c-76dd-a1cb-5ac041bdee9a","","341","
                <div class=""stimulus-container"">
                    <img src=""semantic_sequence_notimeline/clothing_semantic/clothing_semantic_5.png"" class=""exp-image"">
                    <div class=""question-area"">
                        <p style=""font-size: 20px; font-weight: bold; margin: 0;"">Is there a person in this image?</p>
                    </div>
                </div>","1","main_experiment_trial","5","clothing_semantic","semantic_sequence_notimeline","chronological","","","","","","",""
"","","","","","html-keyboard-response","69","227750","0.0-69.0","862DE92E02A74C3BAEE8EFBED4955858","019d6b50-c6ef-76b7-96c6-f9622d8344a4","019d6b28-084c-76dd-a1cb-5ac041bdee9a","","null","
                <div class=""stimulus-container"">
                    <img src=""semantic_sequence_notimeline/clothing_semantic/clothing_semantic_6.png"" class=""exp-image"">
                    <div class=""question-area""></div> 
                </div>","null","","","","","","","","","","","",""
"","","","","","html-button-response","70","228099","0.0-70.0","862DE92E02A74C3BAEE8EFBED4955858","019d6b50-c6ef-76b7-96c6-f9622d8344a4","019d6b28-084c-76dd-a1cb-5ac041bdee9a","","349","
                <div class=""stimulus-container"">
                    <img src=""semantic_sequence_notimeline/clothing_semantic/clothing_semantic_6.png"" class=""exp-image"">
                    <div class=""question-area"">
                        <p style=""font-size: 20px; font-weight: bold; margin: 0;"">Is there a person in this image?</p>
                    </div>
                </div>","1","main_experiment_trial","6","clothing_semantic","semantic_sequence_notimeline","chronological","","","","","","",""
"","","","","","html-keyboard-response","71","233110","0.0-71.0","862DE92E02A74C3BAEE8EFBED4955858","019d6b50-c6ef-76b7-96c6-f9622d8344a4","019d6b28-084c-76dd-a1cb-5ac041bdee9a","","null","
                <div class=""stimulus-container"">
                    <img src=""semantic_sequence_notimeline/clothing_semantic/clothing_semantic_7.png"" class=""exp-image"">
                    <div class=""question-area""></div> 
                </div>","null","","","","","","","","","","","",""
"","","","","","html-button-response","72","233498","0.0-72.0","862DE92E02A74C3BAEE8EFBED4955858","019d6b50-c6ef-76b7-96c6-f9622d8344a4","019d6b28-084c-76dd-a1cb-5ac041bdee9a","","385","
                <div class=""stimulus-container"">
                    <img src=""semantic_sequence_notimeline/clothing_semantic/clothing_semantic_7.png"" class=""exp-image"">
                    <div class=""question-area"">
                        <p style=""font-size: 20px; font-weight: bold; margin: 0;"">Is there a person in this image?</p>
                    </div>
                </div>","1","main_experiment_trial","7","clothing_semantic","semantic_sequence_notimeline","chronological","","","","","","",""
"","","","","","html-keyboard-response","73","238513","0.0-73.0","862DE92E02A74C3BAEE8EFBED4955858","019d6b50-c6ef-76b7-96c6-f9622d8344a4","019d6b28-084c-76dd-a1cb-5ac041bdee9a","","null","
                <div class=""stimulus-container"">
                    <img src=""semantic_sequence_notimeline/clothing_semantic/clothing_semantic_8.png"" class=""exp-image"">
                    <div class=""question-area""></div> 
                </div>","null","","","","","","","","","","","",""
"","","","","","html-button-response","74","238960","0.0-74.0","862DE92E02A74C3BAEE8EFBED4955858","019d6b50-c6ef-76b7-96c6-f9622d8344a4","019d6b28-084c-76dd-a1cb-5ac041bdee9a","","445","
                <div class=""stimulus-container"">
                    <img src=""semantic_sequence_notimeline/clothing_semantic/clothing_semantic_8.png"" class=""exp-image"">
                    <div class=""question-area"">
                        <p style=""font-size: 20px; font-weight: bold; margin: 0;"">Is there a person in this image?</p>
                    </div>
                </div>","1","main_experiment_trial","8","clothing_semantic","semantic_sequence_notimeline","chronological","","","","","","",""
"","","","","","html-keyboard-response","75","243970","0.0-75.0","862DE92E02A74C3BAEE8EFBED4955858","019d6b50-c6ef-76b7-96c6-f9622d8344a4","019d6b28-084c-76dd-a1cb-5ac041bdee9a","","null","
                <div class=""stimulus-container"">
                    <img src=""semantic_sequence_notimeline/clothing_semantic/clothing_semantic_9.png"" class=""exp-image"">
                    <div class=""question-area""></div> 
                </div>","null","","","","","","","","","","","",""
"","","","","","html-button-response","76","244753","0.0-76.0","862DE92E02A74C3BAEE8EFBED4955858","019d6b50-c6ef-76b7-96c6-f9622d8344a4","019d6b28-084c-76dd-a1cb-5ac041bdee9a","","783","
                <div class=""stimulus-container"">
                    <img src=""semantic_sequence_notimeline/clothing_semantic/clothing_semantic_9.png"" class=""exp-image"">
                    <div class=""question-area"">
                        <p style=""font-size: 20px; font-weight: bold; margin: 0;"">Is there a person in this image?</p>
                    </div>
                </div>","1","main_experiment_trial","9","clothing_semantic","semantic_sequence_notimeline","chronological","","","","","","",""
"","","","","","html-keyboard-response","77","249758","0.0-77.0","862DE92E02A74C3BAEE8EFBED4955858","019d6b50-c6ef-76b7-96c6-f9622d8344a4","019d6b28-084c-76dd-a1cb-5ac041bdee9a","","null","
                <div class=""stimulus-container"">
                    <img src=""semantic_sequence_notimeline/clothing_semantic/clothing_semantic_ten.png"" class=""exp-image"">
                    <div class=""question-area""></div> 
                </div>","null","","","","","","","","","","","",""
"","","","","","html-button-response","78","250105","0.0-78.0","862DE92E02A74C3BAEE8EFBED4955858","019d6b50-c6ef-76b7-96c6-f9622d8344a4","019d6b28-084c-76dd-a1cb-5ac041bdee9a","","346","
                <div class=""stimulus-container"">
                    <img src=""semantic_sequence_notimeline/clothing_semantic/clothing_semantic_ten.png"" class=""exp-image"">
                    <div class=""question-area"">
                        <p style=""font-size: 20px; font-weight: bold; margin: 0;"">Is there a person in this image?</p>
                    </div>
                </div>","1","main_experiment_trial","ten","clothing_semantic","semantic_sequence_notimeline","chronological","","","","","","",""
"","","","","","html-keyboard-response","79","255110","0.0-79.0","862DE92E02A74C3BAEE8EFBED4955858","019d6b50-c6ef-76b7-96c6-f9622d8344a4","019d6b28-084c-76dd-a1cb-5ac041bdee9a","","null","<div style=""background-color: white; width: 100vw; height: 100vh;""></div>","null","","","","","","","","","","","",""
"","","","","","html-keyboard-response","80","260126","0.0-80.0","862DE92E02A74C3BAEE8EFBED4955858","019d6b50-c6ef-76b7-96c6-f9622d8344a4","019d6b28-084c-76dd-a1cb-5ac041bdee9a","","null","
                <div class=""stimulus-container"">
                    <img src=""semantic_sequence_notimeline/household_objects_semantic/household_objects_semantic_1.png"" class=""exp-image"">
                    <div class=""question-area""></div> 
                </div>","null","","","","","","","","","","","",""
"","","","","","html-button-response","81","260569","0.0-81.0","862DE92E02A74C3BAEE8EFBED4955858","019d6b50-c6ef-76b7-96c6-f9622d8344a4","019d6b28-084c-76dd-a1cb-5ac041bdee9a","","441","
                <div class=""stimulus-container"">
                    <img src=""semantic_sequence_notimeline/household_objects_semantic/household_objects_semantic_1.png"" class=""exp-image"">
                    <div class=""question-area"">
                        <p style=""font-size: 20px; font-weight: bold; margin: 0;"">Is there a person in this image?</p>
                    </div>
                </div>","1","main_experiment_trial","1","household_objects_semantic","semantic_sequence_notimeline","chronological","","","","","","",""
"","","","","","html-keyboard-response","82","265586","0.0-82.0","862DE92E02A74C3BAEE8EFBED4955858","019d6b50-c6ef-76b7-96c6-f9622d8344a4","019d6b28-084c-76dd-a1cb-5ac041bdee9a","","null","
                <div class=""stimulus-container"">
                    <img src=""semantic_sequence_notimeline/household_objects_semantic/household_objects_semantic_2.png"" class=""exp-image"">
                    <div class=""question-area""></div> 
                </div>","null","","","","","","","","","","","",""
"","","","","","html-button-response","83","266049","0.0-83.0","862DE92E02A74C3BAEE8EFBED4955858","019d6b50-c6ef-76b7-96c6-f9622d8344a4","019d6b28-084c-76dd-a1cb-5ac041bdee9a","","462","
                <div class=""stimulus-container"">
                    <img src=""semantic_sequence_notimeline/household_objects_semantic/household_objects_semantic_2.png"" class=""exp-image"">
                    <div class=""question-area"">
                        <p style=""font-size: 20px; font-weight: bold; margin: 0;"">Is there a person in this image?</p>
                    </div>
                </div>","1","main_experiment_trial","2","household_objects_semantic","semantic_sequence_notimeline","chronological","","","","","","",""
"","","","","","html-keyboard-response","84","271065","0.0-84.0","862DE92E02A74C3BAEE8EFBED4955858","019d6b50-c6ef-76b7-96c6-f9622d8344a4","019d6b28-084c-76dd-a1cb-5ac041bdee9a","","null","
                <div class=""stimulus-container"">
                    <img src=""semantic_sequence_notimeline/household_objects_semantic/household_objects_semantic_3.png"" class=""exp-image"">
                    <div class=""question-area""></div> 
                </div>","null","","","","","","","","","","","",""
"","","","","","html-button-response","85","271594","0.0-85.0","862DE92E02A74C3BAEE8EFBED4955858","019d6b50-c6ef-76b7-96c6-f9622d8344a4","019d6b28-084c-76dd-a1cb-5ac041bdee9a","","529","
                <div class=""stimulus-container"">
                    <img src=""semantic_sequence_notimeline/household_objects_semantic/household_objects_semantic_3.png"" class=""exp-image"">
                    <div class=""question-area"">
                        <p style=""font-size: 20px; font-weight: bold; margin: 0;"">Is there a person in this image?</p>
                    </div>
                </div>","1","main_experiment_trial","3","household_objects_semantic","semantic_sequence_notimeline","chronological","","","","","","",""
"","","","","","html-keyboard-response","86","276605","0.0-86.0","862DE92E02A74C3BAEE8EFBED4955858","019d6b50-c6ef-76b7-96c6-f9622d8344a4","019d6b28-084c-76dd-a1cb-5ac041bdee9a","","null","
                <div class=""stimulus-container"">
                    <img src=""semantic_sequence_notimeline/household_objects_semantic/household_objects_semantic_4.png"" class=""exp-image"">
                    <div class=""question-area""></div> 
                </div>","null","","","","","","","","","","","",""
"","","","","","html-button-response","87","276954","0.0-87.0","862DE92E02A74C3BAEE8EFBED4955858","019d6b50-c6ef-76b7-96c6-f9622d8344a4","019d6b28-084c-76dd-a1cb-5ac041bdee9a","","347","
                <div class=""stimulus-container"">
                    <img src=""semantic_sequence_notimeline/household_objects_semantic/household_objects_semantic_4.png"" class=""exp-image"">
                    <div class=""question-area"">
                        <p style=""font-size: 20px; font-weight: bold; margin: 0;"">Is there a person in this image?</p>
                    </div>
                </div>","1","main_experiment_trial","4","household_objects_semantic","semantic_sequence_notimeline","chronological","","","","","","",""
"","","","","","html-keyboard-response","88","281963","0.0-88.0","862DE92E02A74C3BAEE8EFBED4955858","019d6b50-c6ef-76b7-96c6-f9622d8344a4","019d6b28-084c-76dd-a1cb-5ac041bdee9a","","null","
                <div class=""stimulus-container"">
                    <img src=""semantic_sequence_notimeline/household_objects_semantic/household_objects_semantic_5.png"" class=""exp-image"">
                    <div class=""question-area""></div> 
                </div>","null","","","","","","","","","","","",""
"","","","","","html-button-response","89","282313","0.0-89.0","862DE92E02A74C3BAEE8EFBED4955858","019d6b50-c6ef-76b7-96c6-f9622d8344a4","019d6b28-084c-76dd-a1cb-5ac041bdee9a","","348","
                <div class=""stimulus-container"">
                    <img src=""semantic_sequence_notimeline/household_objects_semantic/household_objects_semantic_5.png"" class=""exp-image"">
                    <div class=""question-area"">
                        <p style=""font-size: 20px; font-weight: bold; margin: 0;"">Is there a person in this image?</p>
                    </div>
                </div>","1","main_experiment_trial","5","household_objects_semantic","semantic_sequence_notimeline","chronological","","","","","","",""
"","","","","","html-keyboard-response","90","287329","0.0-90.0","862DE92E02A74C3BAEE8EFBED4955858","019d6b50-c6ef-76b7-96c6-f9622d8344a4","019d6b28-084c-76dd-a1cb-5ac041bdee9a","","null","
                <div class=""stimulus-container"">
                    <img src=""semantic_sequence_notimeline/household_objects_semantic/household_objects_semantic_6.png"" class=""exp-image"">
                    <div class=""question-area""></div> 
                </div>","null","","","","","","","","","","","",""
"","","","","","html-button-response","91","287673","0.0-91.0","862DE92E02A74C3BAEE8EFBED4955858","019d6b50-c6ef-76b7-96c6-f9622d8344a4","019d6b28-084c-76dd-a1cb-5ac041bdee9a","","343","
                <div class=""stimulus-container"">
                    <img src=""semantic_sequence_notimeline/household_objects_semantic/household_objects_semantic_6.png"" class=""exp-image"">
                    <div class=""question-area"">
                        <p style=""font-size: 20px; font-weight: bold; margin: 0;"">Is there a person in this image?</p>
                    </div>
                </div>","1","main_experiment_trial","6","household_objects_semantic","semantic_sequence_notimeline","chronological","","","","","","",""
"","","","","","html-keyboard-response","92","292675","0.0-92.0","862DE92E02A74C3BAEE8EFBED4955858","019d6b50-c6ef-76b7-96c6-f9622d8344a4","019d6b28-084c-76dd-a1cb-5ac041bdee9a","","null","
                <div class=""stimulus-container"">
                    <img src=""semantic_sequence_notimeline/household_objects_semantic/household_objects_semantic_7.png"" class=""exp-image"">
                    <div class=""question-area""></div> 
                </div>","null","","","","","","","","","","","",""
"","","","","","html-button-response","93","293064","0.0-93.0","862DE92E02A74C3BAEE8EFBED4955858","019d6b50-c6ef-76b7-96c6-f9622d8344a4","019d6b28-084c-76dd-a1cb-5ac041bdee9a","","387","
                <div class=""stimulus-container"">
                    <img src=""semantic_sequence_notimeline/household_objects_semantic/household_objects_semantic_7.png"" class=""exp-image"">
                    <div class=""question-area"">
                        <p style=""font-size: 20px; font-weight: bold; margin: 0;"">Is there a person in this image?</p>
                    </div>
                </div>","1","main_experiment_trial","7","household_objects_semantic","semantic_sequence_notimeline","chronological","","","","","","",""
"","","","","","html-keyboard-response","94","298072","0.0-94.0","862DE92E02A74C3BAEE8EFBED4955858","019d6b50-c6ef-76b7-96c6-f9622d8344a4","019d6b28-084c-76dd-a1cb-5ac041bdee9a","","null","
                <div class=""stimulus-container"">
                    <img src=""semantic_sequence_notimeline/household_objects_semantic/household_objects_semantic_8.png"" class=""exp-image"">
                    <div class=""question-area""></div> 
                </div>","null","","","","","","","","","","","",""
"","","","","","html-button-response","95","298457","0.0-95.0","862DE92E02A74C3BAEE8EFBED4955858","019d6b50-c6ef-76b7-96c6-f9622d8344a4","019d6b28-084c-76dd-a1cb-5ac041bdee9a","","383","
                <div class=""stimulus-container"">
                    <img src=""semantic_sequence_notimeline/household_objects_semantic/household_objects_semantic_8.png"" class=""exp-image"">
                    <div class=""question-area"">
                        <p style=""font-size: 20px; font-weight: bold; margin: 0;"">Is there a person in this image?</p>
                    </div>
                </div>","1","main_experiment_trial","8","household_objects_semantic","semantic_sequence_notimeline","chronological","","","","","","",""
"","","","","","html-keyboard-response","96","303466","0.0-96.0","862DE92E02A74C3BAEE8EFBED4955858","019d6b50-c6ef-76b7-96c6-f9622d8344a4","019d6b28-084c-76dd-a1cb-5ac041bdee9a","","null","
                <div class=""stimulus-container"">
                    <img src=""semantic_sequence_notimeline/household_objects_semantic/household_objects_semantic_9.png"" class=""exp-image"">
                    <div class=""question-area""></div> 
                </div>","null","","","","","","","","","","","",""
"","","","","","html-button-response","97","303818","0.0-97.0","862DE92E02A74C3BAEE8EFBED4955858","019d6b50-c6ef-76b7-96c6-f9622d8344a4","019d6b28-084c-76dd-a1cb-5ac041bdee9a","","352","
                <div class=""stimulus-container"">
                    <img src=""semantic_sequence_notimeline/household_objects_semantic/household_objects_semantic_9.png"" class=""exp-image"">
                    <div class=""question-area"">
                        <p style=""font-size: 20px; font-weight: bold; margin: 0;"">Is there a person in this image?</p>
                    </div>
                </div>","1","main_experiment_trial","9","household_objects_semantic","semantic_sequence_notimeline","chronological","","","","","","",""
"","","","","","html-keyboard-response","98","308829","0.0-98.0","862DE92E02A74C3BAEE8EFBED4955858","019d6b50-c6ef-76b7-96c6-f9622d8344a4","019d6b28-084c-76dd-a1cb-5ac041bdee9a","","null","
                <div class=""stimulus-container"">
                    <img src=""semantic_sequence_notimeline/household_objects_semantic/household_objects_semantic_ten.png"" class=""exp-image"">
                    <div class=""question-area""></div> 
                </div>","null","","","","","","","","","","","",""
"","","","","","html-button-response","99","309186","0.0-99.0","862DE92E02A74C3BAEE8EFBED4955858","019d6b50-c6ef-76b7-96c6-f9622d8344a4","019d6b28-084c-76dd-a1cb-5ac041bdee9a","","356","
                <div class=""stimulus-container"">
                    <img src=""semantic_sequence_notimeline/household_objects_semantic/household_objects_semantic_ten.png"" class=""exp-image"">
                    <div class=""question-area"">
                        <p style=""font-size: 20px; font-weight: bold; margin: 0;"">Is there a person in this image?</p>
                    </div>
                </div>","1","main_experiment_trial","ten","household_objects_semantic","semantic_sequence_notimeline","chronological","","","","","","",""
"","","","","","html-keyboard-response","100","314191","0.0-100.0","862DE92E02A74C3BAEE8EFBED4955858","019d6b50-c6ef-76b7-96c6-f9622d8344a4","019d6b28-084c-76dd-a1cb-5ac041bdee9a","","null","<div style=""background-color: white; width: 100vw; height: 100vh;""></div>","null","","","","","","","","","","","",""
"","","","","","html-keyboard-response","101","319198","0.0-101.0","862DE92E02A74C3BAEE8EFBED4955858","019d6b50-c6ef-76b7-96c6-f9622d8344a4","019d6b28-084c-76dd-a1cb-5ac041bdee9a","","null","
                <div class=""stimulus-container"">
                    <img src=""images/causal_sequence/museum_causal/museum_causal_1.png"" class=""exp-image"">
                    <div class=""question-area""></div> 
                </div>","null","","","","","","","","","","","",""
"","","","","","html-button-response","102","319641","0.0-102.0","862DE92E02A74C3BAEE8EFBED4955858","019d6b50-c6ef-76b7-96c6-f9622d8344a4","019d6b28-084c-76dd-a1cb-5ac041bdee9a","","442","
                <div class=""stimulus-container"">
                    <img src=""images/causal_sequence/museum_causal/museum_causal_1.png"" class=""exp-image"">
                    <div class=""question-area"">
                        <p style=""font-size: 20px; font-weight: bold; margin: 0;"">Is there a person in this image?</p>
                    </div>
                </div>","0","main_experiment_trial","1","museum_causal","causal_sequence","chronological","","","","","","",""
"","","","","","html-keyboard-response","103","324648","0.0-103.0","862DE92E02A74C3BAEE8EFBED4955858","019d6b50-c6ef-76b7-96c6-f9622d8344a4","019d6b28-084c-76dd-a1cb-5ac041bdee9a","","null","
                <div class=""stimulus-container"">
                    <img src=""images/causal_sequence/museum_causal/museum_causal_2.png"" class=""exp-image"">
                    <div class=""question-area""></div> 
                </div>","null","","","","","","","","","","","",""
"","","","","","html-button-response","104","325057","0.0-104.0","862DE92E02A74C3BAEE8EFBED4955858","019d6b50-c6ef-76b7-96c6-f9622d8344a4","019d6b28-084c-76dd-a1cb-5ac041bdee9a","","409","
                <div class=""stimulus-container"">
                    <img src=""images/causal_sequence/museum_causal/museum_causal_2.png"" class=""exp-image"">
                    <div class=""question-area"">
                        <p style=""font-size: 20px; font-weight: bold; margin: 0;"">Is there a person in this image?</p>
                    </div>
                </div>","0","main_experiment_trial","2","museum_causal","causal_sequence","chronological","","","","","","",""
"","","","","","html-keyboard-response","105","330074","0.0-105.0","862DE92E02A74C3BAEE8EFBED4955858","019d6b50-c6ef-76b7-96c6-f9622d8344a4","019d6b28-084c-76dd-a1cb-5ac041bdee9a","","null","
                <div class=""stimulus-container"">
                    <img src=""images/causal_sequence/museum_causal/museum_causal_3.png"" class=""exp-image"">
                    <div class=""question-area""></div> 
                </div>","null","","","","","","","","","","","",""
"","","","","","html-button-response","106","330520","0.0-106.0","862DE92E02A74C3BAEE8EFBED4955858","019d6b50-c6ef-76b7-96c6-f9622d8344a4","019d6b28-084c-76dd-a1cb-5ac041bdee9a","","444","
                <div class=""stimulus-container"">
                    <img src=""images/causal_sequence/museum_causal/museum_causal_3.png"" class=""exp-image"">
                    <div class=""question-area"">
                        <p style=""font-size: 20px; font-weight: bold; margin: 0;"">Is there a person in this image?</p>
                    </div>
                </div>","0","main_experiment_trial","3","museum_causal","causal_sequence","chronological","","","","","","",""
"","","","","","html-keyboard-response","107","335537","0.0-107.0","862DE92E02A74C3BAEE8EFBED4955858","019d6b50-c6ef-76b7-96c6-f9622d8344a4","019d6b28-084c-76dd-a1cb-5ac041bdee9a","","null","
                <div class=""stimulus-container"">
                    <img src=""images/causal_sequence/museum_causal/museum_causal_4.png"" class=""exp-image"">
                    <div class=""question-area""></div> 
                </div>","null","","","","","","","","","","","",""
"","","","","","html-button-response","108","336345","0.0-108.0","862DE92E02A74C3BAEE8EFBED4955858","019d6b50-c6ef-76b7-96c6-f9622d8344a4","019d6b28-084c-76dd-a1cb-5ac041bdee9a","","806","
                <div class=""stimulus-container"">
                    <img src=""images/causal_sequence/museum_causal/museum_causal_4.png"" class=""exp-image"">
                    <div class=""question-area"">
                        <p style=""font-size: 20px; font-weight: bold; margin: 0;"">Is there a person in this image?</p>
                    </div>
                </div>","1","main_experiment_trial","4","museum_causal","causal_sequence","chronological","","","","","","",""
"","","","","","html-keyboard-response","109","341351","0.0-109.0","862DE92E02A74C3BAEE8EFBED4955858","019d6b50-c6ef-76b7-96c6-f9622d8344a4","019d6b28-084c-76dd-a1cb-5ac041bdee9a","","null","
                <div class=""stimulus-container"">
                    <img src=""images/causal_sequence/museum_causal/museum_causal_5.png"" class=""exp-image"">
                    <div class=""question-area""></div> 
                </div>","null","","","","","","","","","","","",""
"","","","","","html-button-response","110","341729","0.0-110.0","862DE92E02A74C3BAEE8EFBED4955858","019d6b50-c6ef-76b7-96c6-f9622d8344a4","019d6b28-084c-76dd-a1cb-5ac041bdee9a","","376","
                <div class=""stimulus-container"">
                    <img src=""images/causal_sequence/museum_causal/museum_causal_5.png"" class=""exp-image"">
                    <div class=""question-area"">
                        <p style=""font-size: 20px; font-weight: bold; margin: 0;"">Is there a person in this image?</p>
                    </div>
                </div>","0","main_experiment_trial","5","museum_causal","causal_sequence","chronological","","","","","","",""
"","","","","","html-keyboard-response","111","346732","0.0-111.0","862DE92E02A74C3BAEE8EFBED4955858","019d6b50-c6ef-76b7-96c6-f9622d8344a4","019d6b28-084c-76dd-a1cb-5ac041bdee9a","","null","
                <div class=""stimulus-container"">
                    <img src=""images/causal_sequence/museum_causal/museum_causal_6.png"" class=""exp-image"">
                    <div class=""question-area""></div> 
                </div>","null","","","","","","","","","","","",""
"","","","","","html-button-response","112","347119","0.0-112.0","862DE92E02A74C3BAEE8EFBED4955858","019d6b50-c6ef-76b7-96c6-f9622d8344a4","019d6b28-084c-76dd-a1cb-5ac041bdee9a","","384","
                <div class=""stimulus-container"">
                    <img src=""images/causal_sequence/museum_causal/museum_causal_6.png"" class=""exp-image"">
                    <div class=""question-area"">
                        <p style=""font-size: 20px; font-weight: bold; margin: 0;"">Is there a person in this image?</p>
                    </div>
                </div>","0","main_experiment_trial","6","museum_causal","causal_sequence","chronological","","","","","","",""
"","","","","","html-keyboard-response","113","352129","0.0-113.0","862DE92E02A74C3BAEE8EFBED4955858","019d6b50-c6ef-76b7-96c6-f9622d8344a4","019d6b28-084c-76dd-a1cb-5ac041bdee9a","","null","
                <div class=""stimulus-container"">
                    <img src=""images/causal_sequence/museum_causal/museum_causal_7.png"" class=""exp-image"">
                    <div class=""question-area""></div> 
                </div>","null","","","","","","","","","","","",""
"","","","","","html-button-response","114","352513","0.0-114.0","862DE92E02A74C3BAEE8EFBED4955858","019d6b50-c6ef-76b7-96c6-f9622d8344a4","019d6b28-084c-76dd-a1cb-5ac041bdee9a","","382","
                <div class=""stimulus-container"">
                    <img src=""images/causal_sequence/museum_causal/museum_causal_7.png"" class=""exp-image"">
                    <div class=""question-area"">
                        <p style=""font-size: 20px; font-weight: bold; margin: 0;"">Is there a person in this image?</p>
                    </div>
                </div>","1","main_experiment_trial","7","museum_causal","causal_sequence","chronological","","","","","","",""
"","","","","","html-keyboard-response","115","357527","0.0-115.0","862DE92E02A74C3BAEE8EFBED4955858","019d6b50-c6ef-76b7-96c6-f9622d8344a4","019d6b28-084c-76dd-a1cb-5ac041bdee9a","","null","
                <div class=""stimulus-container"">
                    <img src=""images/causal_sequence/museum_causal/museum_causal_8.png"" class=""exp-image"">
                    <div class=""question-area""></div> 
                </div>","null","","","","","","","","","","","",""
"","","","","","html-button-response","116","357913","0.0-116.0","862DE92E02A74C3BAEE8EFBED4955858","019d6b50-c6ef-76b7-96c6-f9622d8344a4","019d6b28-084c-76dd-a1cb-5ac041bdee9a","","385","
                <div class=""stimulus-container"">
                    <img src=""images/causal_sequence/museum_causal/museum_causal_8.png"" class=""exp-image"">
                    <div class=""question-area"">
                        <p style=""font-size: 20px; font-weight: bold; margin: 0;"">Is there a person in this image?</p>
                    </div>
                </div>","0","main_experiment_trial","8","museum_causal","causal_sequence","chronological","","","","","","",""
"","","","","","html-keyboard-response","117","362925","0.0-117.0","862DE92E02A74C3BAEE8EFBED4955858","019d6b50-c6ef-76b7-96c6-f9622d8344a4","019d6b28-084c-76dd-a1cb-5ac041bdee9a","","null","
                <div class=""stimulus-container"">
                    <img src=""images/causal_sequence/museum_causal/museum_causal_9.png"" class=""exp-image"">
                    <div class=""question-area""></div> 
                </div>","null","","","","","","","","","","","",""
"","","","","","html-button-response","118","363320","0.0-118.0","862DE92E02A74C3BAEE8EFBED4955858","019d6b50-c6ef-76b7-96c6-f9622d8344a4","019d6b28-084c-76dd-a1cb-5ac041bdee9a","","394","
                <div class=""stimulus-container"">
                    <img src=""images/causal_sequence/museum_causal/museum_causal_9.png"" class=""exp-image"">
                    <div class=""question-area"">
                        <p style=""font-size: 20px; font-weight: bold; margin: 0;"">Is there a person in this image?</p>
                    </div>
                </div>","1","main_experiment_trial","9","museum_causal","causal_sequence","chronological","","","","","","",""
"","","","","","html-keyboard-response","119","368327","0.0-119.0","862DE92E02A74C3BAEE8EFBED4955858","019d6b50-c6ef-76b7-96c6-f9622d8344a4","019d6b28-084c-76dd-a1cb-5ac041bdee9a","","null","
                <div class=""stimulus-container"">
                    <img src=""images/causal_sequence/museum_causal/museum_causal_ten.png"" class=""exp-image"">
                    <div class=""question-area""></div> 
                </div>","null","","","","","","","","","","","",""
"","","","","","html-button-response","120","368745","0.0-120.0","862DE92E02A74C3BAEE8EFBED4955858","019d6b50-c6ef-76b7-96c6-f9622d8344a4","019d6b28-084c-76dd-a1cb-5ac041bdee9a","","416","
                <div class=""stimulus-container"">
                    <img src=""images/causal_sequence/museum_causal/museum_causal_ten.png"" class=""exp-image"">
                    <div class=""question-area"">
                        <p style=""font-size: 20px; font-weight: bold; margin: 0;"">Is there a person in this image?</p>
                    </div>
                </div>","0","main_experiment_trial","ten","museum_causal","causal_sequence","chronological","","","","","","",""
"","","","","","html-keyboard-response","121","373762","0.0-121.0","862DE92E02A74C3BAEE8EFBED4955858","019d6b50-c6ef-76b7-96c6-f9622d8344a4","019d6b28-084c-76dd-a1cb-5ac041bdee9a","","null","<div style=""background-color: white; width: 100vw; height: 100vh;""></div>","null","","","","","","","","","","","",""
"","","","","","html-keyboard-response","122","378778","0.0-122.0","862DE92E02A74C3BAEE8EFBED4955858","019d6b50-c6ef-76b7-96c6-f9622d8344a4","019d6b28-084c-76dd-a1cb-5ac041bdee9a","","null","
                <div class=""stimulus-container"">
                    <img src=""images/causal_sequence/saving_a_cat_causal/saving_a_cat_causal_1.png"" class=""exp-image"">
                    <div class=""question-area""></div> 
                </div>","null","","","","","","","","","","","",""
"","","","","","html-button-response","123","379218","0.0-123.0","862DE92E02A74C3BAEE8EFBED4955858","019d6b50-c6ef-76b7-96c6-f9622d8344a4","019d6b28-084c-76dd-a1cb-5ac041bdee9a","","438","
                <div class=""stimulus-container"">
                    <img src=""images/causal_sequence/saving_a_cat_causal/saving_a_cat_causal_1.png"" class=""exp-image"">
                    <div class=""question-area"">
                        <p style=""font-size: 20px; font-weight: bold; margin: 0;"">Is there a person in this image?</p>
                    </div>
                </div>","0","main_experiment_trial","1","saving_a_cat_causal","causal_sequence","chronological","","","","","","",""
"","","","","","html-keyboard-response","124","384221","0.0-124.0","862DE92E02A74C3BAEE8EFBED4955858","019d6b50-c6ef-76b7-96c6-f9622d8344a4","019d6b28-084c-76dd-a1cb-5ac041bdee9a","","null","
                <div class=""stimulus-container"">
                    <img src=""images/causal_sequence/saving_a_cat_causal/saving_a_cat_causal_2.png"" class=""exp-image"">
                    <div class=""question-area""></div> 
                </div>","null","","","","","","","","","","","",""
"","","","","","html-button-response","125","384625","0.0-125.0","862DE92E02A74C3BAEE8EFBED4955858","019d6b50-c6ef-76b7-96c6-f9622d8344a4","019d6b28-084c-76dd-a1cb-5ac041bdee9a","","402","
                <div class=""stimulus-container"">
                    <img src=""images/causal_sequence/saving_a_cat_causal/saving_a_cat_causal_2.png"" class=""exp-image"">
                    <div class=""question-area"">
                        <p style=""font-size: 20px; font-weight: bold; margin: 0;"">Is there a person in this image?</p>
                    </div>
                </div>","1","main_experiment_trial","2","saving_a_cat_causal","causal_sequence","chronological","","","","","","",""
"","","","","","html-keyboard-response","126","389636","0.0-126.0","862DE92E02A74C3BAEE8EFBED4955858","019d6b50-c6ef-76b7-96c6-f9622d8344a4","019d6b28-084c-76dd-a1cb-5ac041bdee9a","","null","
                <div class=""stimulus-container"">
                    <img src=""images/causal_sequence/saving_a_cat_causal/saving_a_cat_causal_3.png"" class=""exp-image"">
                    <div class=""question-area""></div> 
                </div>","null","","","","","","","","","","","",""
"","","","","","html-button-response","127","390003","0.0-127.0","862DE92E02A74C3BAEE8EFBED4955858","019d6b50-c6ef-76b7-96c6-f9622d8344a4","019d6b28-084c-76dd-a1cb-5ac041bdee9a","","365","
                <div class=""stimulus-container"">
                    <img src=""images/causal_sequence/saving_a_cat_causal/saving_a_cat_causal_3.png"" class=""exp-image"">
                    <div class=""question-area"">
                        <p style=""font-size: 20px; font-weight: bold; margin: 0;"">Is there a person in this image?</p>
                    </div>
                </div>","1","main_experiment_trial","3","saving_a_cat_causal","causal_sequence","chronological","","","","","","",""
"","","","","","html-keyboard-response","128","395006","0.0-128.0","862DE92E02A74C3BAEE8EFBED4955858","019d6b50-c6ef-76b7-96c6-f9622d8344a4","019d6b28-084c-76dd-a1cb-5ac041bdee9a","","null","
                <div class=""stimulus-container"">
                    <img src=""images/causal_sequence/saving_a_cat_causal/saving_a_cat_causal_4.png"" class=""exp-image"">
                    <div class=""question-area""></div> 
                </div>","null","","","","","","","","","","","",""
"","","","","","html-button-response","129","395410","0.0-129.0","862DE92E02A74C3BAEE8EFBED4955858","019d6b50-c6ef-76b7-96c6-f9622d8344a4","019d6b28-084c-76dd-a1cb-5ac041bdee9a","","403","
                <div class=""stimulus-container"">
                    <img src=""images/causal_sequence/saving_a_cat_causal/saving_a_cat_causal_4.png"" class=""exp-image"">
                    <div class=""question-area"">
                        <p style=""font-size: 20px; font-weight: bold; margin: 0;"">Is there a person in this image?</p>
                    </div>
                </div>","0","main_experiment_trial","4","saving_a_cat_causal","causal_sequence","chronological","","","","","","",""
"","","","","","html-keyboard-response","130","400427","0.0-130.0","862DE92E02A74C3BAEE8EFBED4955858","019d6b50-c6ef-76b7-96c6-f9622d8344a4","019d6b28-084c-76dd-a1cb-5ac041bdee9a","","null","
                <div class=""stimulus-container"">
                    <img src=""images/causal_sequence/saving_a_cat_causal/saving_a_cat_causal_5.png"" class=""exp-image"">
                    <div class=""question-area""></div> 
                </div>","null","","","","","","","","","","","",""
"","","","","","html-button-response","131","400842","0.0-131.0","862DE92E02A74C3BAEE8EFBED4955858","019d6b50-c6ef-76b7-96c6-f9622d8344a4","019d6b28-084c-76dd-a1cb-5ac041bdee9a","","413","
                <div class=""stimulus-container"">
                    <img src=""images/causal_sequence/saving_a_cat_causal/saving_a_cat_causal_5.png"" class=""exp-image"">
                    <div class=""question-area"">
                        <p style=""font-size: 20px; font-weight: bold; margin: 0;"">Is there a person in this image?</p>
                    </div>
                </div>","0","main_experiment_trial","5","saving_a_cat_causal","causal_sequence","chronological","","","","","","",""
"","","","","","html-keyboard-response","132","405855","0.0-132.0","862DE92E02A74C3BAEE8EFBED4955858","019d6b50-c6ef-76b7-96c6-f9622d8344a4","019d6b28-084c-76dd-a1cb-5ac041bdee9a","","null","
                <div class=""stimulus-container"">
                    <img src=""images/causal_sequence/saving_a_cat_causal/saving_a_cat_causal_6.png"" class=""exp-image"">
                    <div class=""question-area""></div> 
                </div>","null","","","","","","","","","","","",""
"","","","","","html-button-response","133","406225","0.0-133.0","862DE92E02A74C3BAEE8EFBED4955858","019d6b50-c6ef-76b7-96c6-f9622d8344a4","019d6b28-084c-76dd-a1cb-5ac041bdee9a","","368","
                <div class=""stimulus-container"">
                    <img src=""images/causal_sequence/saving_a_cat_causal/saving_a_cat_causal_6.png"" class=""exp-image"">
                    <div class=""question-area"">
                        <p style=""font-size: 20px; font-weight: bold; margin: 0;"">Is there a person in this image?</p>
                    </div>
                </div>","0","main_experiment_trial","6","saving_a_cat_causal","causal_sequence","chronological","","","","","","",""
"","","","","","html-keyboard-response","134","411234","0.0-134.0","862DE92E02A74C3BAEE8EFBED4955858","019d6b50-c6ef-76b7-96c6-f9622d8344a4","019d6b28-084c-76dd-a1cb-5ac041bdee9a","","null","
                <div class=""stimulus-container"">
                    <img src=""images/causal_sequence/saving_a_cat_causal/saving_a_cat_causal_7.png"" class=""exp-image"">
                    <div class=""question-area""></div> 
                </div>","null","","","","","","","","","","","",""
"","","","","","html-button-response","135","411561","0.0-135.0","862DE92E02A74C3BAEE8EFBED4955858","019d6b50-c6ef-76b7-96c6-f9622d8344a4","019d6b28-084c-76dd-a1cb-5ac041bdee9a","","325","
                <div class=""stimulus-container"">
                    <img src=""images/causal_sequence/saving_a_cat_causal/saving_a_cat_causal_7.png"" class=""exp-image"">
                    <div class=""question-area"">
                        <p style=""font-size: 20px; font-weight: bold; margin: 0;"">Is there a person in this image?</p>
                    </div>
                </div>","0","main_experiment_trial","7","saving_a_cat_causal","causal_sequence","chronological","","","","","","",""
"","","","","","html-keyboard-response","136","416576","0.0-136.0","862DE92E02A74C3BAEE8EFBED4955858","019d6b50-c6ef-76b7-96c6-f9622d8344a4","019d6b28-084c-76dd-a1cb-5ac041bdee9a","","null","
                <div class=""stimulus-container"">
                    <img src=""images/causal_sequence/saving_a_cat_causal/saving_a_cat_causal_8.png"" class=""exp-image"">
                    <div class=""question-area""></div> 
                </div>","null","","","","","","","","","","","",""
"","","","","","html-button-response","137","416986","0.0-137.0","862DE92E02A74C3BAEE8EFBED4955858","019d6b50-c6ef-76b7-96c6-f9622d8344a4","019d6b28-084c-76dd-a1cb-5ac041bdee9a","","407","
                <div class=""stimulus-container"">
                    <img src=""images/causal_sequence/saving_a_cat_causal/saving_a_cat_causal_8.png"" class=""exp-image"">
                    <div class=""question-area"">
                        <p style=""font-size: 20px; font-weight: bold; margin: 0;"">Is there a person in this image?</p>
                    </div>
                </div>","0","main_experiment_trial","8","saving_a_cat_causal","causal_sequence","chronological","","","","","","",""
"","","","","","html-keyboard-response","138","422000","0.0-138.0","862DE92E02A74C3BAEE8EFBED4955858","019d6b50-c6ef-76b7-96c6-f9622d8344a4","019d6b28-084c-76dd-a1cb-5ac041bdee9a","","null","
                <div class=""stimulus-container"">
                    <img src=""images/causal_sequence/saving_a_cat_causal/saving_a_cat_causal_9.png"" class=""exp-image"">
                    <div class=""question-area""></div> 
                </div>","null","","","","","","","","","","","",""
"","","","","","html-button-response","139","422384","0.0-139.0","862DE92E02A74C3BAEE8EFBED4955858","019d6b50-c6ef-76b7-96c6-f9622d8344a4","019d6b28-084c-76dd-a1cb-5ac041bdee9a","","384","
                <div class=""stimulus-container"">
                    <img src=""images/causal_sequence/saving_a_cat_causal/saving_a_cat_causal_9.png"" class=""exp-image"">
                    <div class=""question-area"">
                        <p style=""font-size: 20px; font-weight: bold; margin: 0;"">Is there a person in this image?</p>
                    </div>
                </div>","0","main_experiment_trial","9","saving_a_cat_causal","causal_sequence","chronological","","","","","","",""
"","","","","","html-keyboard-response","140","427396","0.0-140.0","862DE92E02A74C3BAEE8EFBED4955858","019d6b50-c6ef-76b7-96c6-f9622d8344a4","019d6b28-084c-76dd-a1cb-5ac041bdee9a","","null","
                <div class=""stimulus-container"">
                    <img src=""images/causal_sequence/saving_a_cat_causal/saving_a_cat_causal_ten.png"" class=""exp-image"">
                    <div class=""question-area""></div> 
                </div>","null","","","","","","","","","","","",""
"","","","","","html-button-response","141","427737","0.0-141.0","862DE92E02A74C3BAEE8EFBED4955858","019d6b50-c6ef-76b7-96c6-f9622d8344a4","019d6b28-084c-76dd-a1cb-5ac041bdee9a","","341","
                <div class=""stimulus-container"">
                    <img src=""images/causal_sequence/saving_a_cat_causal/saving_a_cat_causal_ten.png"" class=""exp-image"">
                    <div class=""question-area"">
                        <p style=""font-size: 20px; font-weight: bold; margin: 0;"">Is there a person in this image?</p>
                    </div>
                </div>","0","main_experiment_trial","ten","saving_a_cat_causal","causal_sequence","chronological","","","","","","",""
"","","","","","html-keyboard-response","142","432745","0.0-142.0","862DE92E02A74C3BAEE8EFBED4955858","019d6b50-c6ef-76b7-96c6-f9622d8344a4","019d6b28-084c-76dd-a1cb-5ac041bdee9a","","null","<div style=""background-color: white; width: 100vw; height: 100vh;""></div>","null","","","","","","","","","","","",""
"","","","","","html-keyboard-response","143","437751","0.0-143.0","862DE92E02A74C3BAEE8EFBED4955858","019d6b50-c6ef-76b7-96c6-f9622d8344a4","019d6b28-084c-76dd-a1cb-5ac041bdee9a","","null","
                <div class=""stimulus-container"">
                    <img src=""images/causal_sequence/coin_causal/coin_causal_1.png"" class=""exp-image"">
                    <div class=""question-area""></div> 
                </div>","null","","","","","","","","","","","",""
"","","","","","html-button-response","144","438185","0.0-144.0","862DE92E02A74C3BAEE8EFBED4955858","019d6b50-c6ef-76b7-96c6-f9622d8344a4","019d6b28-084c-76dd-a1cb-5ac041bdee9a","","433","
                <div class=""stimulus-container"">
                    <img src=""images/causal_sequence/coin_causal/coin_causal_1.png"" class=""exp-image"">
                    <div class=""question-area"">
                        <p style=""font-size: 20px; font-weight: bold; margin: 0;"">Is there a person in this image?</p>
                    </div>
                </div>","0","main_experiment_trial","1","coin_causal","causal_sequence","chronological","","","","","","",""
"","","","","","html-keyboard-response","145","443201","0.0-145.0","862DE92E02A74C3BAEE8EFBED4955858","019d6b50-c6ef-76b7-96c6-f9622d8344a4","019d6b28-084c-76dd-a1cb-5ac041bdee9a","","null","
                <div class=""stimulus-container"">
                    <img src=""images/causal_sequence/coin_causal/coin_causal_2.png"" class=""exp-image"">
                    <div class=""question-area""></div> 
                </div>","null","","","","","","","","","","","",""
"","","","","","html-button-response","146","443801","0.0-146.0","862DE92E02A74C3BAEE8EFBED4955858","019d6b50-c6ef-76b7-96c6-f9622d8344a4","019d6b28-084c-76dd-a1cb-5ac041bdee9a","","599","
                <div class=""stimulus-container"">
                    <img src=""images/causal_sequence/coin_causal/coin_causal_2.png"" class=""exp-image"">
                    <div class=""question-area"">
                        <p style=""font-size: 20px; font-weight: bold; margin: 0;"">Is there a person in this image?</p>
                    </div>
                </div>","0","main_experiment_trial","2","coin_causal","causal_sequence","chronological","","","","","","",""
"","","","","","html-keyboard-response","147","448816","0.0-147.0","862DE92E02A74C3BAEE8EFBED4955858","019d6b50-c6ef-76b7-96c6-f9622d8344a4","019d6b28-084c-76dd-a1cb-5ac041bdee9a","","null","
                <div class=""stimulus-container"">
                    <img src=""images/causal_sequence/coin_causal/coin_causal_3.png"" class=""exp-image"">
                    <div class=""question-area""></div> 
                </div>","null","","","","","","","","","","","",""
"","","","","","html-button-response","148","449489","0.0-148.0","862DE92E02A74C3BAEE8EFBED4955858","019d6b50-c6ef-76b7-96c6-f9622d8344a4","019d6b28-084c-76dd-a1cb-5ac041bdee9a","","671","
                <div class=""stimulus-container"">
                    <img src=""images/causal_sequence/coin_causal/coin_causal_3.png"" class=""exp-image"">
                    <div class=""question-area"">
                        <p style=""font-size: 20px; font-weight: bold; margin: 0;"">Is there a person in this image?</p>
                    </div>
                </div>","0","main_experiment_trial","3","coin_causal","causal_sequence","chronological","","","","","","",""
"","","","","","html-keyboard-response","149","454502","0.0-149.0","862DE92E02A74C3BAEE8EFBED4955858","019d6b50-c6ef-76b7-96c6-f9622d8344a4","019d6b28-084c-76dd-a1cb-5ac041bdee9a","","null","
                <div class=""stimulus-container"">
                    <img src=""images/causal_sequence/coin_causal/coin_causal_4.png"" class=""exp-image"">
                    <div class=""question-area""></div> 
                </div>","null","","","","","","","","","","","",""
"","","","","","html-button-response","150","455121","0.0-150.0","862DE92E02A74C3BAEE8EFBED4955858","019d6b50-c6ef-76b7-96c6-f9622d8344a4","019d6b28-084c-76dd-a1cb-5ac041bdee9a","","617","
                <div class=""stimulus-container"">
                    <img src=""images/causal_sequence/coin_causal/coin_causal_4.png"" class=""exp-image"">
                    <div class=""question-area"">
                        <p style=""font-size: 20px; font-weight: bold; margin: 0;"">Is there a person in this image?</p>
                    </div>
                </div>","0","main_experiment_trial","4","coin_causal","causal_sequence","chronological","","","","","","",""
"","","","","","html-keyboard-response","151","460136","0.0-151.0","862DE92E02A74C3BAEE8EFBED4955858","019d6b50-c6ef-76b7-96c6-f9622d8344a4","019d6b28-084c-76dd-a1cb-5ac041bdee9a","","null","
                <div class=""stimulus-container"">
                    <img src=""images/causal_sequence/coin_causal/coin_causal_5.png"" class=""exp-image"">
                    <div class=""question-area""></div> 
                </div>","null","","","","","","","","","","","",""
"","","","","","html-button-response","152","460561","0.0-152.0","862DE92E02A74C3BAEE8EFBED4955858","019d6b50-c6ef-76b7-96c6-f9622d8344a4","019d6b28-084c-76dd-a1cb-5ac041bdee9a","","423","
                <div class=""stimulus-container"">
                    <img src=""images/causal_sequence/coin_causal/coin_causal_5.png"" class=""exp-image"">
                    <div class=""question-area"">
                        <p style=""font-size: 20px; font-weight: bold; margin: 0;"">Is there a person in this image?</p>
                    </div>
                </div>","0","main_experiment_trial","5","coin_causal","causal_sequence","chronological","","","","","","",""
"","","","","","html-keyboard-response","153","465565","0.0-153.0","862DE92E02A74C3BAEE8EFBED4955858","019d6b50-c6ef-76b7-96c6-f9622d8344a4","019d6b28-084c-76dd-a1cb-5ac041bdee9a","","null","
                <div class=""stimulus-container"">
                    <img src=""images/causal_sequence/coin_causal/coin_causal_6.png"" class=""exp-image"">
                    <div class=""question-area""></div> 
                </div>","null","","","","","","","","","","","",""
"","","","","","html-button-response","154","465906","0.0-154.0","862DE92E02A74C3BAEE8EFBED4955858","019d6b50-c6ef-76b7-96c6-f9622d8344a4","019d6b28-084c-76dd-a1cb-5ac041bdee9a","","339","
                <div class=""stimulus-container"">
                    <img src=""images/causal_sequence/coin_causal/coin_causal_6.png"" class=""exp-image"">
                    <div class=""question-area"">
                        <p style=""font-size: 20px; font-weight: bold; margin: 0;"">Is there a person in this image?</p>
                    </div>
                </div>","0","main_experiment_trial","6","coin_causal","causal_sequence","chronological","","","","","","",""
"","","","","","html-keyboard-response","155","470921","0.0-155.0","862DE92E02A74C3BAEE8EFBED4955858","019d6b50-c6ef-76b7-96c6-f9622d8344a4","019d6b28-084c-76dd-a1cb-5ac041bdee9a","","null","
                <div class=""stimulus-container"">
                    <img src=""images/causal_sequence/coin_causal/coin_causal_7.png"" class=""exp-image"">
                    <div class=""question-area""></div> 
                </div>","null","","","","","","","","","","","",""
"","","","","","html-button-response","156","471425","0.0-156.0","862DE92E02A74C3BAEE8EFBED4955858","019d6b50-c6ef-76b7-96c6-f9622d8344a4","019d6b28-084c-76dd-a1cb-5ac041bdee9a","","502","
                <div class=""stimulus-container"">
                    <img src=""images/causal_sequence/coin_causal/coin_causal_7.png"" class=""exp-image"">
                    <div class=""question-area"">
                        <p style=""font-size: 20px; font-weight: bold; margin: 0;"">Is there a person in this image?</p>
                    </div>
                </div>","1","main_experiment_trial","7","coin_causal","causal_sequence","chronological","","","","","","",""
"","","","","","html-keyboard-response","157","476430","0.0-157.0","862DE92E02A74C3BAEE8EFBED4955858","019d6b50-c6ef-76b7-96c6-f9622d8344a4","019d6b28-084c-76dd-a1cb-5ac041bdee9a","","null","
                <div class=""stimulus-container"">
                    <img src=""images/causal_sequence/coin_causal/coin_causal_8.png"" class=""exp-image"">
                    <div class=""question-area""></div> 
                </div>","null","","","","","","","","","","","",""
"","","","","","html-button-response","158","476833","0.0-158.0","862DE92E02A74C3BAEE8EFBED4955858","019d6b50-c6ef-76b7-96c6-f9622d8344a4","019d6b28-084c-76dd-a1cb-5ac041bdee9a","","400","
                <div class=""stimulus-container"">
                    <img src=""images/causal_sequence/coin_causal/coin_causal_8.png"" class=""exp-image"">
                    <div class=""question-area"">
                        <p style=""font-size: 20px; font-weight: bold; margin: 0;"">Is there a person in this image?</p>
                    </div>
                </div>","0","main_experiment_trial","8","coin_causal","causal_sequence","chronological","","","","","","",""
"","","","","","html-keyboard-response","159","481847","0.0-159.0","862DE92E02A74C3BAEE8EFBED4955858","019d6b50-c6ef-76b7-96c6-f9622d8344a4","019d6b28-084c-76dd-a1cb-5ac041bdee9a","","null","
                <div class=""stimulus-container"">
                    <img src=""images/causal_sequence/coin_causal/coin_causal_9.png"" class=""exp-image"">
                    <div class=""question-area""></div> 
                </div>","null","","","","","","","","","","","",""
"","","","","","html-button-response","160","482153","0.0-160.0","862DE92E02A74C3BAEE8EFBED4955858","019d6b50-c6ef-76b7-96c6-f9622d8344a4","019d6b28-084c-76dd-a1cb-5ac041bdee9a","","305","
                <div class=""stimulus-container"">
                    <img src=""images/causal_sequence/coin_causal/coin_causal_9.png"" class=""exp-image"">
                    <div class=""question-area"">
                        <p style=""font-size: 20px; font-weight: bold; margin: 0;"">Is there a person in this image?</p>
                    </div>
                </div>","0","main_experiment_trial","9","coin_causal","causal_sequence","chronological","","","","","","",""
"","","","","","html-keyboard-response","161","487161","0.0-161.0","862DE92E02A74C3BAEE8EFBED4955858","019d6b50-c6ef-76b7-96c6-f9622d8344a4","019d6b28-084c-76dd-a1cb-5ac041bdee9a","","null","
                <div class=""stimulus-container"">
                    <img src=""images/causal_sequence/coin_causal/coin_causal_ten.png"" class=""exp-image"">
                    <div class=""question-area""></div> 
                </div>","null","","","","","","","","","","","",""
"","","","","","html-button-response","162","487722","0.0-162.0","862DE92E02A74C3BAEE8EFBED4955858","019d6b50-c6ef-76b7-96c6-f9622d8344a4","019d6b28-084c-76dd-a1cb-5ac041bdee9a","","557","
                <div class=""stimulus-container"">
                    <img src=""images/causal_sequence/coin_causal/coin_causal_ten.png"" class=""exp-image"">
                    <div class=""question-area"">
                        <p style=""font-size: 20px; font-weight: bold; margin: 0;"">Is there a person in this image?</p>
                    </div>
                </div>","0","main_experiment_trial","ten","coin_causal","causal_sequence","chronological","","","","","","",""
"","","","","","html-keyboard-response","163","492723","0.0-163.0","862DE92E02A74C3BAEE8EFBED4955858","019d6b50-c6ef-76b7-96c6-f9622d8344a4","019d6b28-084c-76dd-a1cb-5ac041bdee9a","","null","<div style=""background-color: white; width: 100vw; height: 100vh;""></div>","null","","","","","","","","","","","",""
"","","","","","html-keyboard-response","164","497735","0.0-164.0","862DE92E02A74C3BAEE8EFBED4955858","019d6b50-c6ef-76b7-96c6-f9622d8344a4","019d6b28-084c-76dd-a1cb-5ac041bdee9a","","null","
                <div class=""stimulus-container"">
                    <img src=""semantic_sequence_notimeline/transportation_semantic/transportation_semantic_1.png"" class=""exp-image"">
                    <div class=""question-area""></div> 
                </div>","null","","","","","","","","","","","",""
"","","","","","html-button-response","165","498338","0.0-165.0","862DE92E02A74C3BAEE8EFBED4955858","019d6b50-c6ef-76b7-96c6-f9622d8344a4","019d6b28-084c-76dd-a1cb-5ac041bdee9a","","600","
                <div class=""stimulus-container"">
                    <img src=""semantic_sequence_notimeline/transportation_semantic/transportation_semantic_1.png"" class=""exp-image"">
                    <div class=""question-area"">
                        <p style=""font-size: 20px; font-weight: bold; margin: 0;"">Is there a person in this image?</p>
                    </div>
                </div>","1","main_experiment_trial","1","transportation_semantic","semantic_sequence_notimeline","chronological","","","","","","",""
"","","","","","html-keyboard-response","166","503354","0.0-166.0","862DE92E02A74C3BAEE8EFBED4955858","019d6b50-c6ef-76b7-96c6-f9622d8344a4","019d6b28-084c-76dd-a1cb-5ac041bdee9a","","null","
                <div class=""stimulus-container"">
                    <img src=""semantic_sequence_notimeline/transportation_semantic/transportation_semantic_2.png"" class=""exp-image"">
                    <div class=""question-area""></div> 
                </div>","null","","","","","","","","","","","",""
"","","","","","html-button-response","167","503722","0.0-167.0","862DE92E02A74C3BAEE8EFBED4955858","019d6b50-c6ef-76b7-96c6-f9622d8344a4","019d6b28-084c-76dd-a1cb-5ac041bdee9a","","365","
                <div class=""stimulus-container"">
                    <img src=""semantic_sequence_notimeline/transportation_semantic/transportation_semantic_2.png"" class=""exp-image"">
                    <div class=""question-area"">
                        <p style=""font-size: 20px; font-weight: bold; margin: 0;"">Is there a person in this image?</p>
                    </div>
                </div>","1","main_experiment_trial","2","transportation_semantic","semantic_sequence_notimeline","chronological","","","","","","",""
"","","","","","html-keyboard-response","168","508730","0.0-168.0","862DE92E02A74C3BAEE8EFBED4955858","019d6b50-c6ef-76b7-96c6-f9622d8344a4","019d6b28-084c-76dd-a1cb-5ac041bdee9a","","null","
                <div class=""stimulus-container"">
                    <img src=""semantic_sequence_notimeline/transportation_semantic/transportation_semantic_3.png"" class=""exp-image"">
                    <div class=""question-area""></div> 
                </div>","null","","","","","","","","","","","",""
"","","","","","html-button-response","169","509193","0.0-169.0","862DE92E02A74C3BAEE8EFBED4955858","019d6b50-c6ef-76b7-96c6-f9622d8344a4","019d6b28-084c-76dd-a1cb-5ac041bdee9a","","462","
                <div class=""stimulus-container"">
                    <img src=""semantic_sequence_notimeline/transportation_semantic/transportation_semantic_3.png"" class=""exp-image"">
                    <div class=""question-area"">
                        <p style=""font-size: 20px; font-weight: bold; margin: 0;"">Is there a person in this image?</p>
                    </div>
                </div>","1","main_experiment_trial","3","transportation_semantic","semantic_sequence_notimeline","chronological","","","","","","",""
"","","","","","html-keyboard-response","170","514195","0.0-170.0","862DE92E02A74C3BAEE8EFBED4955858","019d6b50-c6ef-76b7-96c6-f9622d8344a4","019d6b28-084c-76dd-a1cb-5ac041bdee9a","","null","
                <div class=""stimulus-container"">
                    <img src=""semantic_sequence_notimeline/transportation_semantic/transportation_semantic_4.png"" class=""exp-image"">
                    <div class=""question-area""></div> 
                </div>","null","","","","","","","","","","","",""
"","","","","","html-button-response","171","514648","0.0-171.0","862DE92E02A74C3BAEE8EFBED4955858","019d6b50-c6ef-76b7-96c6-f9622d8344a4","019d6b28-084c-76dd-a1cb-5ac041bdee9a","","452","
                <div class=""stimulus-container"">
                    <img src=""semantic_sequence_notimeline/transportation_semantic/transportation_semantic_4.png"" class=""exp-image"">
                    <div class=""question-area"">
                        <p style=""font-size: 20px; font-weight: bold; margin: 0;"">Is there a person in this image?</p>
                    </div>
                </div>","1","main_experiment_trial","4","transportation_semantic","semantic_sequence_notimeline","chronological","","","","","","",""
"","","","","","html-keyboard-response","172","519661","0.0-172.0","862DE92E02A74C3BAEE8EFBED4955858","019d6b50-c6ef-76b7-96c6-f9622d8344a4","019d6b28-084c-76dd-a1cb-5ac041bdee9a","","null","
                <div class=""stimulus-container"">
                    <img src=""semantic_sequence_notimeline/transportation_semantic/transportation_semantic_5.png"" class=""exp-image"">
                    <div class=""question-area""></div> 
                </div>","null","","","","","","","","","","","",""
"","","","","","html-button-response","173","519993","0.0-173.0","862DE92E02A74C3BAEE8EFBED4955858","019d6b50-c6ef-76b7-96c6-f9622d8344a4","019d6b28-084c-76dd-a1cb-5ac041bdee9a","","329","
                <div class=""stimulus-container"">
                    <img src=""semantic_sequence_notimeline/transportation_semantic/transportation_semantic_5.png"" class=""exp-image"">
                    <div class=""question-area"">
                        <p style=""font-size: 20px; font-weight: bold; margin: 0;"">Is there a person in this image?</p>
                    </div>
                </div>","1","main_experiment_trial","5","transportation_semantic","semantic_sequence_notimeline","chronological","","","","","","",""
"","","","","","html-keyboard-response","174","525001","0.0-174.0","862DE92E02A74C3BAEE8EFBED4955858","019d6b50-c6ef-76b7-96c6-f9622d8344a4","019d6b28-084c-76dd-a1cb-5ac041bdee9a","","null","
                <div class=""stimulus-container"">
                    <img src=""semantic_sequence_notimeline/transportation_semantic/transportation_semantic_6.png"" class=""exp-image"">
                    <div class=""question-area""></div> 
                </div>","null","","","","","","","","","","","",""
"","","","","","html-button-response","175","525833","0.0-175.0","862DE92E02A74C3BAEE8EFBED4955858","019d6b50-c6ef-76b7-96c6-f9622d8344a4","019d6b28-084c-76dd-a1cb-5ac041bdee9a","","829","
                <div class=""stimulus-container"">
                    <img src=""semantic_sequence_notimeline/transportation_semantic/transportation_semantic_6.png"" class=""exp-image"">
                    <div class=""question-area"">
                        <p style=""font-size: 20px; font-weight: bold; margin: 0;"">Is there a person in this image?</p>
                    </div>
                </div>","0","main_experiment_trial","6","transportation_semantic","semantic_sequence_notimeline","chronological","","","","","","",""
"","","","","","html-keyboard-response","176","530843","0.0-176.0","862DE92E02A74C3BAEE8EFBED4955858","019d6b50-c6ef-76b7-96c6-f9622d8344a4","019d6b28-084c-76dd-a1cb-5ac041bdee9a","","null","
                <div class=""stimulus-container"">
                    <img src=""semantic_sequence_notimeline/transportation_semantic/transportation_semantic_7.png"" class=""exp-image"">
                    <div class=""question-area""></div> 
                </div>","null","","","","","","","","","","","",""
