"success","timeout","failed_images","failed_audio","failed_video","trial_type","trial_index","time_elapsed","internal_node_id","subject_id","study_id","session_id","view_history","rt","stimulus","response","task","image_index","folder","sequence_type","valuable_image_index","reward_type","chosen_image_index","target_X","correct_choice"
"true","false","[]","[]","[]","preload","0","3380","0.0-0.0","D167BA4F050545C6A8099735FFF272BB","019cf0b1-5529-7310-b4fa-290e383a719f","019cf037-5203-781a-b900-108ccb1cab86","","","","","","","","","","","","",""
"","","","","","instructions","1","4995","0.0-1.0","D167BA4F050545C6A8099735FFF272BB","019cf0b1-5529-7310-b4fa-290e383a719f","019cf037-5203-781a-b900-108ccb1cab86","[{""page_index"":0,""viewing_time"":1615}]","1615","","","","","","","","","","",""
"","","","","","instructions","2","9763","0.0-2.0","D167BA4F050545C6A8099735FFF272BB","019cf0b1-5529-7310-b4fa-290e383a719f","019cf037-5203-781a-b900-108ccb1cab86","[{""page_index"":0,""viewing_time"":4767}]","4768","","","","","","","","","","",""
"true","","","","","fullscreen","3","12702","0.0-3.0","D167BA4F050545C6A8099735FFF272BB","019cf0b1-5529-7310-b4fa-290e383a719f","019cf037-5203-781a-b900-108ccb1cab86","","1936","","","","","","","","","","",""
"","","","","","instructions","4","30715","0.0-4.0","D167BA4F050545C6A8099735FFF272BB","019cf0b1-5529-7310-b4fa-290e383a719f","019cf037-5203-781a-b900-108ccb1cab86","[{""page_index"":0,""viewing_time"":18012}]","18012","","","","","","","","","","",""
"","","","","","instructions","5","85282","0.0-5.0","D167BA4F050545C6A8099735FFF272BB","019cf0b1-5529-7310-b4fa-290e383a719f","019cf037-5203-781a-b900-108ccb1cab86","[{""page_index"":0,""viewing_time"":54568}]","54568","","","","","","","","","","",""
"","","","","","html-keyboard-response","6","89297","0.0-6.0","D167BA4F050545C6A8099735FFF272BB","019cf0b1-5529-7310-b4fa-290e383a719f","019cf037-5203-781a-b900-108ccb1cab86","","null","
                <div class=""stimulus-container"">
                    <img src=""images/instructions/movie_1.png"" class=""exp-image"">
                    <div class=""question-area""></div> 
                </div>","null","","","","","","","","",""
"","","","","","html-button-response","7","92300","0.0-7.0","D167BA4F050545C6A8099735FFF272BB","019cf0b1-5529-7310-b4fa-290e383a719f","019cf037-5203-781a-b900-108ccb1cab86","","null","
                <div class=""stimulus-container"">
                    <img src=""images/instructions/movie_1.png"" class=""exp-image"">
                    <div class=""question-area"">
                        <p style=""font-size: 20px; font-weight: bold; margin: 0;"">Was there a person in this image?</p>
                    </div>
                </div>","null","example_question","1","","","","","","",""
"","","","","","html-keyboard-response","8","96315","0.0-8.0","D167BA4F050545C6A8099735FFF272BB","019cf0b1-5529-7310-b4fa-290e383a719f","019cf037-5203-781a-b900-108ccb1cab86","","null","
                <div class=""stimulus-container"">
                    <img src=""images/instructions/movie_2.png"" class=""exp-image"">
                    <div class=""question-area""></div> 
                </div>","null","","","","","","","","",""
"","","","","","html-button-response","9","97267","0.0-9.0","D167BA4F050545C6A8099735FFF272BB","019cf0b1-5529-7310-b4fa-290e383a719f","019cf037-5203-781a-b900-108ccb1cab86","","952","
                <div class=""stimulus-container"">
                    <img src=""images/instructions/movie_2.png"" class=""exp-image"">
                    <div class=""question-area"">
                        <p style=""font-size: 20px; font-weight: bold; margin: 0;"">Was there a person in this image?</p>
                    </div>
                </div>","0","example_question","2","","","","","","",""
"","","","","","html-keyboard-response","10","101274","0.0-10.0","D167BA4F050545C6A8099735FFF272BB","019cf0b1-5529-7310-b4fa-290e383a719f","019cf037-5203-781a-b900-108ccb1cab86","","null","
                <div class=""stimulus-container"">
                    <img src=""images/instructions/movie_3.png"" class=""exp-image"">
                    <div class=""question-area""></div> 
                </div>","null","","","","","","","","",""
"","","","","","html-button-response","11","102227","0.0-11.0","D167BA4F050545C6A8099735FFF272BB","019cf0b1-5529-7310-b4fa-290e383a719f","019cf037-5203-781a-b900-108ccb1cab86","","953","
                <div class=""stimulus-container"">
                    <img src=""images/instructions/movie_3.png"" class=""exp-image"">
                    <div class=""question-area"">
                        <p style=""font-size: 20px; font-weight: bold; margin: 0;"">Was there a person in this image?</p>
                    </div>
                </div>","0","example_question","3","","","","","","",""
"","","","","","html-keyboard-response","12","106235","0.0-12.0","D167BA4F050545C6A8099735FFF272BB","019cf0b1-5529-7310-b4fa-290e383a719f","019cf037-5203-781a-b900-108ccb1cab86","","null","
                <div class=""stimulus-container"">
                    <img src=""images/instructions/movie_4.png"" class=""exp-image"">
                    <div class=""question-area""></div> 
                </div>","null","","","","","","","","",""
"","","","","","html-button-response","13","107019","0.0-13.0","D167BA4F050545C6A8099735FFF272BB","019cf0b1-5529-7310-b4fa-290e383a719f","019cf037-5203-781a-b900-108ccb1cab86","","783","
                <div class=""stimulus-container"">
                    <img src=""images/instructions/movie_4.png"" class=""exp-image"">
                    <div class=""question-area"">
                        <p style=""font-size: 20px; font-weight: bold; margin: 0;"">Was there a person in this image?</p>
                    </div>
                </div>","0","example_question","4","","","","","","",""
"","","","","","instructions","14","109251","0.0-14.0","D167BA4F050545C6A8099735FFF272BB","019cf0b1-5529-7310-b4fa-290e383a719f","019cf037-5203-781a-b900-108ccb1cab86","[{""page_index"":0,""viewing_time"":2232}]","2232","","","","","","","","","","",""
"","","","","","instructions","15","135227","0.0-15.0","D167BA4F050545C6A8099735FFF272BB","019cf0b1-5529-7310-b4fa-290e383a719f","019cf037-5203-781a-b900-108ccb1cab86","[{""page_index"":0,""viewing_time"":25976}]","25976","","","","","","","","","","",""
"","","","","","html-keyboard-response","16","136230","0.0-16.0","D167BA4F050545C6A8099735FFF272BB","019cf0b1-5529-7310-b4fa-290e383a719f","019cf037-5203-781a-b900-108ccb1cab86","","null","<div style=""background-color: white; width: 100vw; height: 100vh;""></div>","null","","","","","","","","",""
"","","","","","html-keyboard-response","17","141242","0.0-17.0","D167BA4F050545C6A8099735FFF272BB","019cf0b1-5529-7310-b4fa-290e383a719f","019cf037-5203-781a-b900-108ccb1cab86","","null","
                <div class=""stimulus-container"">
                    <img src=""images/schematic_sequence/restaurant_scheme/restaurant_scheme_1.png"" class=""exp-image"">
                    <div class=""question-area""></div> 
                </div>","null","","","","","","","","",""
"","","","","","html-button-response","18","142035","0.0-18.0","D167BA4F050545C6A8099735FFF272BB","019cf0b1-5529-7310-b4fa-290e383a719f","019cf037-5203-781a-b900-108ccb1cab86","","793","
                <div class=""stimulus-container"">
                    <img src=""images/schematic_sequence/restaurant_scheme/restaurant_scheme_1.png"" class=""exp-image"">
                    <div class=""question-area"">
                        <p style=""font-size: 20px; font-weight: bold; margin: 0;"">Is there a person in this image?</p>
                    </div>
                </div>","0","main_experiment_trial","1","restaurant_scheme","schematic_sequence","","","","",""
"","","","","","html-keyboard-response","19","147042","0.0-19.0","D167BA4F050545C6A8099735FFF272BB","019cf0b1-5529-7310-b4fa-290e383a719f","019cf037-5203-781a-b900-108ccb1cab86","","null","
                <div class=""stimulus-container"">
                    <img src=""images/schematic_sequence/restaurant_scheme/restaurant_scheme_2.png"" class=""exp-image"">
                    <div class=""question-area""></div> 
                </div>","null","","","","","","","","",""
"","","","","","html-button-response","20","147875","0.0-20.0","D167BA4F050545C6A8099735FFF272BB","019cf0b1-5529-7310-b4fa-290e383a719f","019cf037-5203-781a-b900-108ccb1cab86","","832","
                <div class=""stimulus-container"">
                    <img src=""images/schematic_sequence/restaurant_scheme/restaurant_scheme_2.png"" class=""exp-image"">
                    <div class=""question-area"">
                        <p style=""font-size: 20px; font-weight: bold; margin: 0;"">Is there a person in this image?</p>
                    </div>
                </div>","1","main_experiment_trial","2","restaurant_scheme","schematic_sequence","","","","",""
"","","","","","html-keyboard-response","21","152890","0.0-21.0","D167BA4F050545C6A8099735FFF272BB","019cf0b1-5529-7310-b4fa-290e383a719f","019cf037-5203-781a-b900-108ccb1cab86","","null","
                <div class=""stimulus-container"">
                    <img src=""images/schematic_sequence/restaurant_scheme/restaurant_scheme_3.png"" class=""exp-image"">
                    <div class=""question-area""></div> 
                </div>","null","","","","","","","","",""
"","","","","","html-button-response","22","153555","0.0-22.0","D167BA4F050545C6A8099735FFF272BB","019cf0b1-5529-7310-b4fa-290e383a719f","019cf037-5203-781a-b900-108ccb1cab86","","664","
                <div class=""stimulus-container"">
                    <img src=""images/schematic_sequence/restaurant_scheme/restaurant_scheme_3.png"" class=""exp-image"">
                    <div class=""question-area"">
                        <p style=""font-size: 20px; font-weight: bold; margin: 0;"">Is there a person in this image?</p>
                    </div>
                </div>","1","main_experiment_trial","3","restaurant_scheme","schematic_sequence","","","","",""
"","","","","","html-keyboard-response","23","158561","0.0-23.0","D167BA4F050545C6A8099735FFF272BB","019cf0b1-5529-7310-b4fa-290e383a719f","019cf037-5203-781a-b900-108ccb1cab86","","null","
                <div class=""stimulus-container"">
                    <img src=""images/schematic_sequence/restaurant_scheme/restaurant_scheme_4.png"" class=""exp-image"">
                    <div class=""question-area""></div> 
                </div>","null","","","","","","","","",""
"","","","","","html-button-response","24","159171","0.0-24.0","D167BA4F050545C6A8099735FFF272BB","019cf0b1-5529-7310-b4fa-290e383a719f","019cf037-5203-781a-b900-108ccb1cab86","","609","
                <div class=""stimulus-container"">
                    <img src=""images/schematic_sequence/restaurant_scheme/restaurant_scheme_4.png"" class=""exp-image"">
                    <div class=""question-area"">
                        <p style=""font-size: 20px; font-weight: bold; margin: 0;"">Is there a person in this image?</p>
                    </div>
                </div>","0","main_experiment_trial","4","restaurant_scheme","schematic_sequence","","","","",""
"","","","","","html-keyboard-response","25","164182","0.0-25.0","D167BA4F050545C6A8099735FFF272BB","019cf0b1-5529-7310-b4fa-290e383a719f","019cf037-5203-781a-b900-108ccb1cab86","","null","
                <div class=""stimulus-container"">
                    <img src=""images/schematic_sequence/restaurant_scheme/restaurant_scheme_5.png"" class=""exp-image"">
                    <div class=""question-area""></div> 
                </div>","null","","","","","","","","",""
"","","","","","html-button-response","26","165251","0.0-26.0","D167BA4F050545C6A8099735FFF272BB","019cf0b1-5529-7310-b4fa-290e383a719f","019cf037-5203-781a-b900-108ccb1cab86","","1068","
                <div class=""stimulus-container"">
                    <img src=""images/schematic_sequence/restaurant_scheme/restaurant_scheme_5.png"" class=""exp-image"">
                    <div class=""question-area"">
                        <p style=""font-size: 20px; font-weight: bold; margin: 0;"">Is there a person in this image?</p>
                    </div>
                </div>","0","main_experiment_trial","5","restaurant_scheme","schematic_sequence","","","","",""
"","","","","","html-keyboard-response","27","170256","0.0-27.0","D167BA4F050545C6A8099735FFF272BB","019cf0b1-5529-7310-b4fa-290e383a719f","019cf037-5203-781a-b900-108ccb1cab86","","null","
                <div class=""stimulus-container"">
                    <img src=""images/schematic_sequence/restaurant_scheme/restaurant_scheme_6.png"" class=""exp-image"">
                    <div class=""question-area""></div> 
                </div>","null","","","","","","","","",""
"","","","","","html-button-response","28","170986","0.0-28.0","D167BA4F050545C6A8099735FFF272BB","019cf0b1-5529-7310-b4fa-290e383a719f","019cf037-5203-781a-b900-108ccb1cab86","","731","
                <div class=""stimulus-container"">
                    <img src=""images/schematic_sequence/restaurant_scheme/restaurant_scheme_6.png"" class=""exp-image"">
                    <div class=""question-area"">
                        <p style=""font-size: 20px; font-weight: bold; margin: 0;"">Is there a person in this image?</p>
                    </div>
                </div>","1","main_experiment_trial","6","restaurant_scheme","schematic_sequence","","","","",""
"","","","","","html-keyboard-response","29","175997","0.0-29.0","D167BA4F050545C6A8099735FFF272BB","019cf0b1-5529-7310-b4fa-290e383a719f","019cf037-5203-781a-b900-108ccb1cab86","","null","
                <div class=""stimulus-container"">
                    <img src=""images/schematic_sequence/restaurant_scheme/restaurant_scheme_7.png"" class=""exp-image"">
                    <div class=""question-area""></div> 
                </div>","null","","","","","","","","",""
"","","","","","html-button-response","30","176543","0.0-30.0","D167BA4F050545C6A8099735FFF272BB","019cf0b1-5529-7310-b4fa-290e383a719f","019cf037-5203-781a-b900-108ccb1cab86","","545","
                <div class=""stimulus-container"">
                    <img src=""images/schematic_sequence/restaurant_scheme/restaurant_scheme_7.png"" class=""exp-image"">
                    <div class=""question-area"">
                        <p style=""font-size: 20px; font-weight: bold; margin: 0;"">Is there a person in this image?</p>
                    </div>
                </div>","1","main_experiment_trial","7","restaurant_scheme","schematic_sequence","","","","",""
"","","","","","html-keyboard-response","31","181557","0.0-31.0","D167BA4F050545C6A8099735FFF272BB","019cf0b1-5529-7310-b4fa-290e383a719f","019cf037-5203-781a-b900-108ccb1cab86","","null","
                <div class=""stimulus-container"">
                    <img src=""images/schematic_sequence/restaurant_scheme/restaurant_scheme_8.png"" class=""exp-image"">
                    <div class=""question-area""></div> 
                </div>","null","","","","","","","","",""
"","","","","","html-button-response","32","182114","0.0-32.0","D167BA4F050545C6A8099735FFF272BB","019cf0b1-5529-7310-b4fa-290e383a719f","019cf037-5203-781a-b900-108ccb1cab86","","557","
                <div class=""stimulus-container"">
                    <img src=""images/schematic_sequence/restaurant_scheme/restaurant_scheme_8.png"" class=""exp-image"">
                    <div class=""question-area"">
                        <p style=""font-size: 20px; font-weight: bold; margin: 0;"">Is there a person in this image?</p>
                    </div>
                </div>","0","main_experiment_trial","8","restaurant_scheme","schematic_sequence","","","","",""
"","","","","","html-keyboard-response","33","187123","0.0-33.0","D167BA4F050545C6A8099735FFF272BB","019cf0b1-5529-7310-b4fa-290e383a719f","019cf037-5203-781a-b900-108ccb1cab86","","null","
                <div class=""stimulus-container"">
                    <img src=""images/schematic_sequence/restaurant_scheme/restaurant_scheme_9.png"" class=""exp-image"">
                    <div class=""question-area""></div> 
                </div>","null","","","","","","","","",""
"","","","","","html-button-response","34","187787","0.0-34.0","D167BA4F050545C6A8099735FFF272BB","019cf0b1-5529-7310-b4fa-290e383a719f","019cf037-5203-781a-b900-108ccb1cab86","","663","
                <div class=""stimulus-container"">
                    <img src=""images/schematic_sequence/restaurant_scheme/restaurant_scheme_9.png"" class=""exp-image"">
                    <div class=""question-area"">
                        <p style=""font-size: 20px; font-weight: bold; margin: 0;"">Is there a person in this image?</p>
                    </div>
                </div>","0","main_experiment_trial","9","restaurant_scheme","schematic_sequence","","","","",""
"","","","","","html-keyboard-response","35","192792","0.0-35.0","D167BA4F050545C6A8099735FFF272BB","019cf0b1-5529-7310-b4fa-290e383a719f","019cf037-5203-781a-b900-108ccb1cab86","","null","
                <div class=""stimulus-container"">
                    <img src=""images/schematic_sequence/restaurant_scheme/restaurant_scheme_ten.png"" class=""exp-image"">
                    <div class=""question-area""></div> 
                </div>","null","","","","","","","","",""
"","","","","","html-button-response","36","193306","0.0-36.0","D167BA4F050545C6A8099735FFF272BB","019cf0b1-5529-7310-b4fa-290e383a719f","019cf037-5203-781a-b900-108ccb1cab86","","514","
                <div class=""stimulus-container"">
                    <img src=""images/schematic_sequence/restaurant_scheme/restaurant_scheme_ten.png"" class=""exp-image"">
                    <div class=""question-area"">
                        <p style=""font-size: 20px; font-weight: bold; margin: 0;"">Is there a person in this image?</p>
                    </div>
                </div>","0","main_experiment_trial","ten","restaurant_scheme","schematic_sequence","","","","",""
"","","","","","html-keyboard-response","37","194313","0.0-37.0","D167BA4F050545C6A8099735FFF272BB","019cf0b1-5529-7310-b4fa-290e383a719f","019cf037-5203-781a-b900-108ccb1cab86","","null","<div style=""background-color: white; width: 100vw; height: 100vh;""></div>","null","","","","","","","","",""
"","","","","","html-keyboard-response","38","199327","0.0-38.0","D167BA4F050545C6A8099735FFF272BB","019cf0b1-5529-7310-b4fa-290e383a719f","019cf037-5203-781a-b900-108ccb1cab86","","null","
                <div class=""stimulus-container"">
                    <img src=""images/schematic_sequence/supermarket_scheme/supermarket_scheme_1.png"" class=""exp-image"">
                    <div class=""question-area""></div> 
                </div>","null","","","","","","","","",""
"","","","","","html-button-response","39","200202","0.0-39.0","D167BA4F050545C6A8099735FFF272BB","019cf0b1-5529-7310-b4fa-290e383a719f","019cf037-5203-781a-b900-108ccb1cab86","","874","
                <div class=""stimulus-container"">
                    <img src=""images/schematic_sequence/supermarket_scheme/supermarket_scheme_1.png"" class=""exp-image"">
                    <div class=""question-area"">
                        <p style=""font-size: 20px; font-weight: bold; margin: 0;"">Is there a person in this image?</p>
                    </div>
                </div>","1","main_experiment_trial","1","supermarket_scheme","schematic_sequence","","","","",""
"","","","","","html-keyboard-response","40","205218","0.0-40.0","D167BA4F050545C6A8099735FFF272BB","019cf0b1-5529-7310-b4fa-290e383a719f","019cf037-5203-781a-b900-108ccb1cab86","","null","
                <div class=""stimulus-container"">
                    <img src=""images/schematic_sequence/supermarket_scheme/supermarket_scheme_2.png"" class=""exp-image"">
                    <div class=""question-area""></div> 
                </div>","null","","","","","","","","",""
"","","","","","html-button-response","41","205906","0.0-41.0","D167BA4F050545C6A8099735FFF272BB","019cf0b1-5529-7310-b4fa-290e383a719f","019cf037-5203-781a-b900-108ccb1cab86","","688","
                <div class=""stimulus-container"">
                    <img src=""images/schematic_sequence/supermarket_scheme/supermarket_scheme_2.png"" class=""exp-image"">
                    <div class=""question-area"">
                        <p style=""font-size: 20px; font-weight: bold; margin: 0;"">Is there a person in this image?</p>
                    </div>
                </div>","1","main_experiment_trial","2","supermarket_scheme","schematic_sequence","","","","",""
"","","","","","html-keyboard-response","42","210911","0.0-42.0","D167BA4F050545C6A8099735FFF272BB","019cf0b1-5529-7310-b4fa-290e383a719f","019cf037-5203-781a-b900-108ccb1cab86","","null","
                <div class=""stimulus-container"">
                    <img src=""images/schematic_sequence/supermarket_scheme/supermarket_scheme_3.png"" class=""exp-image"">
                    <div class=""question-area""></div> 
                </div>","null","","","","","","","","",""
"","","","","","html-button-response","43","211554","0.0-43.0","D167BA4F050545C6A8099735FFF272BB","019cf0b1-5529-7310-b4fa-290e383a719f","019cf037-5203-781a-b900-108ccb1cab86","","643","
                <div class=""stimulus-container"">
                    <img src=""images/schematic_sequence/supermarket_scheme/supermarket_scheme_3.png"" class=""exp-image"">
                    <div class=""question-area"">
                        <p style=""font-size: 20px; font-weight: bold; margin: 0;"">Is there a person in this image?</p>
                    </div>
                </div>","1","main_experiment_trial","3","supermarket_scheme","schematic_sequence","","","","",""
"","","","","","html-keyboard-response","44","216559","0.0-44.0","D167BA4F050545C6A8099735FFF272BB","019cf0b1-5529-7310-b4fa-290e383a719f","019cf037-5203-781a-b900-108ccb1cab86","","null","
                <div class=""stimulus-container"">
                    <img src=""images/schematic_sequence/supermarket_scheme/supermarket_scheme_4.png"" class=""exp-image"">
                    <div class=""question-area""></div> 
                </div>","null","","","","","","","","",""
"","","","","","html-button-response","45","217514","0.0-45.0","D167BA4F050545C6A8099735FFF272BB","019cf0b1-5529-7310-b4fa-290e383a719f","019cf037-5203-781a-b900-108ccb1cab86","","955","
                <div class=""stimulus-container"">
                    <img src=""images/schematic_sequence/supermarket_scheme/supermarket_scheme_4.png"" class=""exp-image"">
                    <div class=""question-area"">
                        <p style=""font-size: 20px; font-weight: bold; margin: 0;"">Is there a person in this image?</p>
                    </div>
                </div>","0","main_experiment_trial","4","supermarket_scheme","schematic_sequence","","","","",""
"","","","","","html-keyboard-response","46","222523","0.0-46.0","D167BA4F050545C6A8099735FFF272BB","019cf0b1-5529-7310-b4fa-290e383a719f","019cf037-5203-781a-b900-108ccb1cab86","","null","
                <div class=""stimulus-container"">
                    <img src=""images/schematic_sequence/supermarket_scheme/supermarket_scheme_5.png"" class=""exp-image"">
                    <div class=""question-area""></div> 
                </div>","null","","","","","","","","",""
"","","","","","html-button-response","47","223443","0.0-47.0","D167BA4F050545C6A8099735FFF272BB","019cf0b1-5529-7310-b4fa-290e383a719f","019cf037-5203-781a-b900-108ccb1cab86","","919","
                <div class=""stimulus-container"">
                    <img src=""images/schematic_sequence/supermarket_scheme/supermarket_scheme_5.png"" class=""exp-image"">
                    <div class=""question-area"">
                        <p style=""font-size: 20px; font-weight: bold; margin: 0;"">Is there a person in this image?</p>
                    </div>
                </div>","1","main_experiment_trial","5","supermarket_scheme","schematic_sequence","","","","",""
"","","","","","html-keyboard-response","48","228448","0.0-48.0","D167BA4F050545C6A8099735FFF272BB","019cf0b1-5529-7310-b4fa-290e383a719f","019cf037-5203-781a-b900-108ccb1cab86","","null","
                <div class=""stimulus-container"">
                    <img src=""images/schematic_sequence/supermarket_scheme/supermarket_scheme_6.png"" class=""exp-image"">
                    <div class=""question-area""></div> 
                </div>","null","","","","","","","","",""
"","","","","","html-button-response","49","229315","0.0-49.0","D167BA4F050545C6A8099735FFF272BB","019cf0b1-5529-7310-b4fa-290e383a719f","019cf037-5203-781a-b900-108ccb1cab86","","866","
                <div class=""stimulus-container"">
                    <img src=""images/schematic_sequence/supermarket_scheme/supermarket_scheme_6.png"" class=""exp-image"">
                    <div class=""question-area"">
                        <p style=""font-size: 20px; font-weight: bold; margin: 0;"">Is there a person in this image?</p>
                    </div>
                </div>","0","main_experiment_trial","6","supermarket_scheme","schematic_sequence","","","","",""
"","","","","","html-keyboard-response","50","234317","0.0-50.0","D167BA4F050545C6A8099735FFF272BB","019cf0b1-5529-7310-b4fa-290e383a719f","019cf037-5203-781a-b900-108ccb1cab86","","null","
                <div class=""stimulus-container"">
                    <img src=""images/schematic_sequence/supermarket_scheme/supermarket_scheme_7.png"" class=""exp-image"">
                    <div class=""question-area""></div> 
                </div>","null","","","","","","","","",""
"","","","","","html-button-response","51","235139","0.0-51.0","D167BA4F050545C6A8099735FFF272BB","019cf0b1-5529-7310-b4fa-290e383a719f","019cf037-5203-781a-b900-108ccb1cab86","","821","
                <div class=""stimulus-container"">
                    <img src=""images/schematic_sequence/supermarket_scheme/supermarket_scheme_7.png"" class=""exp-image"">
                    <div class=""question-area"">
                        <p style=""font-size: 20px; font-weight: bold; margin: 0;"">Is there a person in this image?</p>
                    </div>
                </div>","0","main_experiment_trial","7","supermarket_scheme","schematic_sequence","","","","",""
"","","","","","html-keyboard-response","52","240144","0.0-52.0","D167BA4F050545C6A8099735FFF272BB","019cf0b1-5529-7310-b4fa-290e383a719f","019cf037-5203-781a-b900-108ccb1cab86","","null","
                <div class=""stimulus-container"">
                    <img src=""images/schematic_sequence/supermarket_scheme/supermarket_scheme_8.png"" class=""exp-image"">
                    <div class=""question-area""></div> 
                </div>","null","","","","","","","","",""
"","","","","","html-button-response","53","240995","0.0-53.0","D167BA4F050545C6A8099735FFF272BB","019cf0b1-5529-7310-b4fa-290e383a719f","019cf037-5203-781a-b900-108ccb1cab86","","850","
                <div class=""stimulus-container"">
                    <img src=""images/schematic_sequence/supermarket_scheme/supermarket_scheme_8.png"" class=""exp-image"">
                    <div class=""question-area"">
                        <p style=""font-size: 20px; font-weight: bold; margin: 0;"">Is there a person in this image?</p>
                    </div>
                </div>","0","main_experiment_trial","8","supermarket_scheme","schematic_sequence","","","","",""
"","","","","","html-keyboard-response","54","246003","0.0-54.0","D167BA4F050545C6A8099735FFF272BB","019cf0b1-5529-7310-b4fa-290e383a719f","019cf037-5203-781a-b900-108ccb1cab86","","null","
                <div class=""stimulus-container"">
                    <img src=""images/schematic_sequence/supermarket_scheme/supermarket_scheme_9.png"" class=""exp-image"">
                    <div class=""question-area""></div> 
                </div>","null","","","","","","","","",""
"","","","","","html-button-response","55","246794","0.0-55.0","D167BA4F050545C6A8099735FFF272BB","019cf0b1-5529-7310-b4fa-290e383a719f","019cf037-5203-781a-b900-108ccb1cab86","","791","
                <div class=""stimulus-container"">
                    <img src=""images/schematic_sequence/supermarket_scheme/supermarket_scheme_9.png"" class=""exp-image"">
                    <div class=""question-area"">
                        <p style=""font-size: 20px; font-weight: bold; margin: 0;"">Is there a person in this image?</p>
                    </div>
                </div>","0","main_experiment_trial","9","supermarket_scheme","schematic_sequence","","","","",""
"","","","","","html-keyboard-response","56","251810","0.0-56.0","D167BA4F050545C6A8099735FFF272BB","019cf0b1-5529-7310-b4fa-290e383a719f","019cf037-5203-781a-b900-108ccb1cab86","","null","
                <div class=""stimulus-container"">
                    <img src=""images/schematic_sequence/supermarket_scheme/supermarket_scheme_ten.png"" class=""exp-image"">
                    <div class=""question-area""></div> 
                </div>","null","","","","","","","","",""
"","","","","","html-button-response","57","252498","0.0-57.0","D167BA4F050545C6A8099735FFF272BB","019cf0b1-5529-7310-b4fa-290e383a719f","019cf037-5203-781a-b900-108ccb1cab86","","688","
                <div class=""stimulus-container"">
                    <img src=""images/schematic_sequence/supermarket_scheme/supermarket_scheme_ten.png"" class=""exp-image"">
                    <div class=""question-area"">
                        <p style=""font-size: 20px; font-weight: bold; margin: 0;"">Is there a person in this image?</p>
                    </div>
                </div>","1","main_experiment_trial","ten","supermarket_scheme","schematic_sequence","","","","",""
"","","","","","html-keyboard-response","58","253505","0.0-58.0","D167BA4F050545C6A8099735FFF272BB","019cf0b1-5529-7310-b4fa-290e383a719f","019cf037-5203-781a-b900-108ccb1cab86","","null","<div style=""background-color: white; width: 100vw; height: 100vh;""></div>","null","","","","","","","","",""
"","","","","","html-keyboard-response","59","258514","0.0-59.0","D167BA4F050545C6A8099735FFF272BB","019cf0b1-5529-7310-b4fa-290e383a719f","019cf037-5203-781a-b900-108ccb1cab86","","null","
                <div class=""stimulus-container"">
                    <img src=""images/causal_sequence/coin_causal/coin_causal_1.png"" class=""exp-image"">
                    <div class=""question-area""></div> 
                </div>","null","","","","","","","","",""
"","","","","","html-button-response","60","259514","0.0-60.0","D167BA4F050545C6A8099735FFF272BB","019cf0b1-5529-7310-b4fa-290e383a719f","019cf037-5203-781a-b900-108ccb1cab86","","999","
                <div class=""stimulus-container"">
                    <img src=""images/causal_sequence/coin_causal/coin_causal_1.png"" class=""exp-image"">
                    <div class=""question-area"">
                        <p style=""font-size: 20px; font-weight: bold; margin: 0;"">Is there a person in this image?</p>
                    </div>
                </div>","0","main_experiment_trial","1","coin_causal","causal_sequence","","","","",""
"","","","","","html-keyboard-response","61","264524","0.0-61.0","D167BA4F050545C6A8099735FFF272BB","019cf0b1-5529-7310-b4fa-290e383a719f","019cf037-5203-781a-b900-108ccb1cab86","","null","
                <div class=""stimulus-container"">
                    <img src=""images/causal_sequence/coin_causal/coin_causal_2.png"" class=""exp-image"">
                    <div class=""question-area""></div> 
                </div>","null","","","","","","","","",""
"","","","","","html-button-response","62","265442","0.0-62.0","D167BA4F050545C6A8099735FFF272BB","019cf0b1-5529-7310-b4fa-290e383a719f","019cf037-5203-781a-b900-108ccb1cab86","","918","
                <div class=""stimulus-container"">
                    <img src=""images/causal_sequence/coin_causal/coin_causal_2.png"" class=""exp-image"">
                    <div class=""question-area"">
                        <p style=""font-size: 20px; font-weight: bold; margin: 0;"">Is there a person in this image?</p>
                    </div>
                </div>","0","main_experiment_trial","2","coin_causal","causal_sequence","","","","",""
"","","","","","html-keyboard-response","63","270456","0.0-63.0","D167BA4F050545C6A8099735FFF272BB","019cf0b1-5529-7310-b4fa-290e383a719f","019cf037-5203-781a-b900-108ccb1cab86","","null","
                <div class=""stimulus-container"">
                    <img src=""images/causal_sequence/coin_causal/coin_causal_3.png"" class=""exp-image"">
                    <div class=""question-area""></div> 
                </div>","null","","","","","","","","",""
"","","","","","html-button-response","64","270995","0.0-64.0","D167BA4F050545C6A8099735FFF272BB","019cf0b1-5529-7310-b4fa-290e383a719f","019cf037-5203-781a-b900-108ccb1cab86","","538","
                <div class=""stimulus-container"">
                    <img src=""images/causal_sequence/coin_causal/coin_causal_3.png"" class=""exp-image"">
                    <div class=""question-area"">
                        <p style=""font-size: 20px; font-weight: bold; margin: 0;"">Is there a person in this image?</p>
                    </div>
                </div>","0","main_experiment_trial","3","coin_causal","causal_sequence","","","","",""
"","","","","","html-keyboard-response","65","275997","0.0-65.0","D167BA4F050545C6A8099735FFF272BB","019cf0b1-5529-7310-b4fa-290e383a719f","019cf037-5203-781a-b900-108ccb1cab86","","null","
                <div class=""stimulus-container"">
                    <img src=""images/causal_sequence/coin_causal/coin_causal_4.png"" class=""exp-image"">
                    <div class=""question-area""></div> 
                </div>","null","","","","","","","","",""
"","","","","","html-button-response","66","276466","0.0-66.0","D167BA4F050545C6A8099735FFF272BB","019cf0b1-5529-7310-b4fa-290e383a719f","019cf037-5203-781a-b900-108ccb1cab86","","469","
                <div class=""stimulus-container"">
                    <img src=""images/causal_sequence/coin_causal/coin_causal_4.png"" class=""exp-image"">
                    <div class=""question-area"">
                        <p style=""font-size: 20px; font-weight: bold; margin: 0;"">Is there a person in this image?</p>
                    </div>
                </div>","0","main_experiment_trial","4","coin_causal","causal_sequence","","","","",""
"","","","","","html-keyboard-response","67","281479","0.0-67.0","D167BA4F050545C6A8099735FFF272BB","019cf0b1-5529-7310-b4fa-290e383a719f","019cf037-5203-781a-b900-108ccb1cab86","","null","
                <div class=""stimulus-container"">
                    <img src=""images/causal_sequence/coin_causal/coin_causal_5.png"" class=""exp-image"">
                    <div class=""question-area""></div> 
                </div>","null","","","","","","","","",""
"","","","","","html-button-response","68","282667","0.0-68.0","D167BA4F050545C6A8099735FFF272BB","019cf0b1-5529-7310-b4fa-290e383a719f","019cf037-5203-781a-b900-108ccb1cab86","","1187","
                <div class=""stimulus-container"">
                    <img src=""images/causal_sequence/coin_causal/coin_causal_5.png"" class=""exp-image"">
                    <div class=""question-area"">
                        <p style=""font-size: 20px; font-weight: bold; margin: 0;"">Is there a person in this image?</p>
                    </div>
                </div>","0","main_experiment_trial","5","coin_causal","causal_sequence","","","","",""
"","","","","","html-keyboard-response","69","287675","0.0-69.0","D167BA4F050545C6A8099735FFF272BB","019cf0b1-5529-7310-b4fa-290e383a719f","019cf037-5203-781a-b900-108ccb1cab86","","null","
                <div class=""stimulus-container"">
                    <img src=""images/causal_sequence/coin_causal/coin_causal_6.png"" class=""exp-image"">
                    <div class=""question-area""></div> 
                </div>","null","","","","","","","","",""
"","","","","","html-button-response","70","288402","0.0-70.0","D167BA4F050545C6A8099735FFF272BB","019cf0b1-5529-7310-b4fa-290e383a719f","019cf037-5203-781a-b900-108ccb1cab86","","727","
                <div class=""stimulus-container"">
                    <img src=""images/causal_sequence/coin_causal/coin_causal_6.png"" class=""exp-image"">
                    <div class=""question-area"">
                        <p style=""font-size: 20px; font-weight: bold; margin: 0;"">Is there a person in this image?</p>
                    </div>
                </div>","0","main_experiment_trial","6","coin_causal","causal_sequence","","","","",""
"","","","","","html-keyboard-response","71","293406","0.0-71.0","D167BA4F050545C6A8099735FFF272BB","019cf0b1-5529-7310-b4fa-290e383a719f","019cf037-5203-781a-b900-108ccb1cab86","","null","
                <div class=""stimulus-container"">
                    <img src=""images/causal_sequence/coin_causal/coin_causal_7.png"" class=""exp-image"">
                    <div class=""question-area""></div> 
                </div>","null","","","","","","","","",""
"","","","","","html-button-response","72","294842","0.0-72.0","D167BA4F050545C6A8099735FFF272BB","019cf0b1-5529-7310-b4fa-290e383a719f","019cf037-5203-781a-b900-108ccb1cab86","","1435","
                <div class=""stimulus-container"">
                    <img src=""images/causal_sequence/coin_causal/coin_causal_7.png"" class=""exp-image"">
                    <div class=""question-area"">
                        <p style=""font-size: 20px; font-weight: bold; margin: 0;"">Is there a person in this image?</p>
                    </div>
                </div>","1","main_experiment_trial","7","coin_causal","causal_sequence","","","","",""
"","","","","","html-keyboard-response","73","299853","0.0-73.0","D167BA4F050545C6A8099735FFF272BB","019cf0b1-5529-7310-b4fa-290e383a719f","019cf037-5203-781a-b900-108ccb1cab86","","null","
                <div class=""stimulus-container"">
                    <img src=""images/causal_sequence/coin_causal/coin_causal_8.png"" class=""exp-image"">
                    <div class=""question-area""></div> 
                </div>","null","","","","","","","","",""
"","","","","","html-button-response","74","301282","0.0-74.0","D167BA4F050545C6A8099735FFF272BB","019cf0b1-5529-7310-b4fa-290e383a719f","019cf037-5203-781a-b900-108ccb1cab86","","1429","
                <div class=""stimulus-container"">
                    <img src=""images/causal_sequence/coin_causal/coin_causal_8.png"" class=""exp-image"">
                    <div class=""question-area"">
                        <p style=""font-size: 20px; font-weight: bold; margin: 0;"">Is there a person in this image?</p>
                    </div>
                </div>","0","main_experiment_trial","8","coin_causal","causal_sequence","","","","",""
"","","","","","html-keyboard-response","75","306292","0.0-75.0","D167BA4F050545C6A8099735FFF272BB","019cf0b1-5529-7310-b4fa-290e383a719f","019cf037-5203-781a-b900-108ccb1cab86","","null","
                <div class=""stimulus-container"">
                    <img src=""images/causal_sequence/coin_causal/coin_causal_9.png"" class=""exp-image"">
                    <div class=""question-area""></div> 
                </div>","null","","","","","","","","",""
"","","","","","html-button-response","76","307274","0.0-76.0","D167BA4F050545C6A8099735FFF272BB","019cf0b1-5529-7310-b4fa-290e383a719f","019cf037-5203-781a-b900-108ccb1cab86","","982","
                <div class=""stimulus-container"">
                    <img src=""images/causal_sequence/coin_causal/coin_causal_9.png"" class=""exp-image"">
                    <div class=""question-area"">
                        <p style=""font-size: 20px; font-weight: bold; margin: 0;"">Is there a person in this image?</p>
                    </div>
                </div>","0","main_experiment_trial","9","coin_causal","causal_sequence","","","","",""
"","","","","","html-keyboard-response","77","312289","0.0-77.0","D167BA4F050545C6A8099735FFF272BB","019cf0b1-5529-7310-b4fa-290e383a719f","019cf037-5203-781a-b900-108ccb1cab86","","null","
                <div class=""stimulus-container"">
                    <img src=""images/causal_sequence/coin_causal/coin_causal_ten.png"" class=""exp-image"">
                    <div class=""question-area""></div> 
                </div>","null","","","","","","","","",""
"","","","","","html-button-response","78","313090","0.0-78.0","D167BA4F050545C6A8099735FFF272BB","019cf0b1-5529-7310-b4fa-290e383a719f","019cf037-5203-781a-b900-108ccb1cab86","","801","
                <div class=""stimulus-container"">
                    <img src=""images/causal_sequence/coin_causal/coin_causal_ten.png"" class=""exp-image"">
                    <div class=""question-area"">
                        <p style=""font-size: 20px; font-weight: bold; margin: 0;"">Is there a person in this image?</p>
                    </div>
                </div>","0","main_experiment_trial","ten","coin_causal","causal_sequence","","","","",""
"","","","","","html-keyboard-response","79","314097","0.0-79.0","D167BA4F050545C6A8099735FFF272BB","019cf0b1-5529-7310-b4fa-290e383a719f","019cf037-5203-781a-b900-108ccb1cab86","","null","<div style=""background-color: white; width: 100vw; height: 100vh;""></div>","null","","","","","","","","",""
"","","","","","html-keyboard-response","80","319104","0.0-80.0","D167BA4F050545C6A8099735FFF272BB","019cf0b1-5529-7310-b4fa-290e383a719f","019cf037-5203-781a-b900-108ccb1cab86","","null","
                <div class=""stimulus-container"">
                    <img src=""images/causal_sequence/museum_causal/museum_causal_1.png"" class=""exp-image"">
                    <div class=""question-area""></div> 
                </div>","null","","","","","","","","",""
"","","","","","html-button-response","81","320122","0.0-81.0","D167BA4F050545C6A8099735FFF272BB","019cf0b1-5529-7310-b4fa-290e383a719f","019cf037-5203-781a-b900-108ccb1cab86","","1018","
                <div class=""stimulus-container"">
                    <img src=""images/causal_sequence/museum_causal/museum_causal_1.png"" class=""exp-image"">
                    <div class=""question-area"">
                        <p style=""font-size: 20px; font-weight: bold; margin: 0;"">Is there a person in this image?</p>
                    </div>
                </div>","0","main_experiment_trial","1","museum_causal","causal_sequence","","","","",""
"","","","","","html-keyboard-response","82","325124","0.0-82.0","D167BA4F050545C6A8099735FFF272BB","019cf0b1-5529-7310-b4fa-290e383a719f","019cf037-5203-781a-b900-108ccb1cab86","","null","
                <div class=""stimulus-container"">
                    <img src=""images/causal_sequence/museum_causal/museum_causal_2.png"" class=""exp-image"">
                    <div class=""question-area""></div> 
                </div>","null","","","","","","","","",""
"","","","","","html-button-response","83","326122","0.0-83.0","D167BA4F050545C6A8099735FFF272BB","019cf0b1-5529-7310-b4fa-290e383a719f","019cf037-5203-781a-b900-108ccb1cab86","","998","
                <div class=""stimulus-container"">
                    <img src=""images/causal_sequence/museum_causal/museum_causal_2.png"" class=""exp-image"">
                    <div class=""question-area"">
                        <p style=""font-size: 20px; font-weight: bold; margin: 0;"">Is there a person in this image?</p>
                    </div>
                </div>","0","main_experiment_trial","2","museum_causal","causal_sequence","","","","",""
"","","","","","html-keyboard-response","84","331134","0.0-84.0","D167BA4F050545C6A8099735FFF272BB","019cf0b1-5529-7310-b4fa-290e383a719f","019cf037-5203-781a-b900-108ccb1cab86","","null","
                <div class=""stimulus-container"">
                    <img src=""images/causal_sequence/museum_causal/museum_causal_3.png"" class=""exp-image"">
                    <div class=""question-area""></div> 
                </div>","null","","","","","","","","",""
"","","","","","html-button-response","85","332043","0.0-85.0","D167BA4F050545C6A8099735FFF272BB","019cf0b1-5529-7310-b4fa-290e383a719f","019cf037-5203-781a-b900-108ccb1cab86","","908","
                <div class=""stimulus-container"">
                    <img src=""images/causal_sequence/museum_causal/museum_causal_3.png"" class=""exp-image"">
                    <div class=""question-area"">
                        <p style=""font-size: 20px; font-weight: bold; margin: 0;"">Is there a person in this image?</p>
                    </div>
                </div>","0","main_experiment_trial","3","museum_causal","causal_sequence","","","","",""
"","","","","","html-keyboard-response","86","337044","0.0-86.0","D167BA4F050545C6A8099735FFF272BB","019cf0b1-5529-7310-b4fa-290e383a719f","019cf037-5203-781a-b900-108ccb1cab86","","null","
                <div class=""stimulus-container"">
                    <img src=""images/causal_sequence/museum_causal/museum_causal_4.png"" class=""exp-image"">
                    <div class=""question-area""></div> 
                </div>","null","","","","","","","","",""
"","","","","","html-button-response","87","337538","0.0-87.0","D167BA4F050545C6A8099735FFF272BB","019cf0b1-5529-7310-b4fa-290e383a719f","019cf037-5203-781a-b900-108ccb1cab86","","494","
                <div class=""stimulus-container"">
                    <img src=""images/causal_sequence/museum_causal/museum_causal_4.png"" class=""exp-image"">
                    <div class=""question-area"">
                        <p style=""font-size: 20px; font-weight: bold; margin: 0;"">Is there a person in this image?</p>
                    </div>
                </div>","1","main_experiment_trial","4","museum_causal","causal_sequence","","","","",""
"","","","","","html-keyboard-response","88","342541","0.0-88.0","D167BA4F050545C6A8099735FFF272BB","019cf0b1-5529-7310-b4fa-290e383a719f","019cf037-5203-781a-b900-108ccb1cab86","","null","
                <div class=""stimulus-container"">
                    <img src=""images/causal_sequence/museum_causal/museum_causal_5.png"" class=""exp-image"">
                    <div class=""question-area""></div> 
                </div>","null","","","","","","","","",""
"","","","","","html-button-response","89","343202","0.0-89.0","D167BA4F050545C6A8099735FFF272BB","019cf0b1-5529-7310-b4fa-290e383a719f","019cf037-5203-781a-b900-108ccb1cab86","","661","
                <div class=""stimulus-container"">
                    <img src=""images/causal_sequence/museum_causal/museum_causal_5.png"" class=""exp-image"">
                    <div class=""question-area"">
                        <p style=""font-size: 20px; font-weight: bold; margin: 0;"">Is there a person in this image?</p>
                    </div>
                </div>","0","main_experiment_trial","5","museum_causal","causal_sequence","","","","",""
"","","","","","html-keyboard-response","90","348210","0.0-90.0","D167BA4F050545C6A8099735FFF272BB","019cf0b1-5529-7310-b4fa-290e383a719f","019cf037-5203-781a-b900-108ccb1cab86","","null","
                <div class=""stimulus-container"">
                    <img src=""images/causal_sequence/museum_causal/museum_causal_6.png"" class=""exp-image"">
                    <div class=""question-area""></div> 
                </div>","null","","","","","","","","",""
"","","","","","html-button-response","91","348954","0.0-91.0","D167BA4F050545C6A8099735FFF272BB","019cf0b1-5529-7310-b4fa-290e383a719f","019cf037-5203-781a-b900-108ccb1cab86","","743","
                <div class=""stimulus-container"">
                    <img src=""images/causal_sequence/museum_causal/museum_causal_6.png"" class=""exp-image"">
                    <div class=""question-area"">
                        <p style=""font-size: 20px; font-weight: bold; margin: 0;"">Is there a person in this image?</p>
                    </div>
                </div>","0","main_experiment_trial","6","museum_causal","causal_sequence","","","","",""
"","","","","","html-keyboard-response","92","353965","0.0-92.0","D167BA4F050545C6A8099735FFF272BB","019cf0b1-5529-7310-b4fa-290e383a719f","019cf037-5203-781a-b900-108ccb1cab86","","null","
                <div class=""stimulus-container"">
                    <img src=""images/causal_sequence/museum_causal/museum_causal_7.png"" class=""exp-image"">
                    <div class=""question-area""></div> 
                </div>","null","","","","","","","","",""
"","","","","","html-button-response","93","354730","0.0-93.0","D167BA4F050545C6A8099735FFF272BB","019cf0b1-5529-7310-b4fa-290e383a719f","019cf037-5203-781a-b900-108ccb1cab86","","765","
                <div class=""stimulus-container"">
                    <img src=""images/causal_sequence/museum_causal/museum_causal_7.png"" class=""exp-image"">
                    <div class=""question-area"">
                        <p style=""font-size: 20px; font-weight: bold; margin: 0;"">Is there a person in this image?</p>
                    </div>
                </div>","1","main_experiment_trial","7","museum_causal","causal_sequence","","","","",""
"","","","","","html-keyboard-response","94","359741","0.0-94.0","D167BA4F050545C6A8099735FFF272BB","019cf0b1-5529-7310-b4fa-290e383a719f","019cf037-5203-781a-b900-108ccb1cab86","","null","
                <div class=""stimulus-container"">
                    <img src=""images/causal_sequence/museum_causal/museum_causal_8.png"" class=""exp-image"">
                    <div class=""question-area""></div> 
                </div>","null","","","","","","","","",""
"","","","","","html-button-response","95","360707","0.0-95.0","D167BA4F050545C6A8099735FFF272BB","019cf0b1-5529-7310-b4fa-290e383a719f","019cf037-5203-781a-b900-108ccb1cab86","","965","
                <div class=""stimulus-container"">
                    <img src=""images/causal_sequence/museum_causal/museum_causal_8.png"" class=""exp-image"">
                    <div class=""question-area"">
                        <p style=""font-size: 20px; font-weight: bold; margin: 0;"">Is there a person in this image?</p>
                    </div>
                </div>","0","main_experiment_trial","8","museum_causal","causal_sequence","","","","",""
"","","","","","html-keyboard-response","96","365707","0.0-96.0","D167BA4F050545C6A8099735FFF272BB","019cf0b1-5529-7310-b4fa-290e383a719f","019cf037-5203-781a-b900-108ccb1cab86","","null","
                <div class=""stimulus-container"">
                    <img src=""images/causal_sequence/museum_causal/museum_causal_9.png"" class=""exp-image"">
                    <div class=""question-area""></div> 
                </div>","null","","","","","","","","",""
"","","","","","html-button-response","97","366579","0.0-97.0","D167BA4F050545C6A8099735FFF272BB","019cf0b1-5529-7310-b4fa-290e383a719f","019cf037-5203-781a-b900-108ccb1cab86","","871","
                <div class=""stimulus-container"">
                    <img src=""images/causal_sequence/museum_causal/museum_causal_9.png"" class=""exp-image"">
                    <div class=""question-area"">
                        <p style=""font-size: 20px; font-weight: bold; margin: 0;"">Is there a person in this image?</p>
                    </div>
                </div>","1","main_experiment_trial","9","museum_causal","causal_sequence","","","","",""
"","","","","","html-keyboard-response","98","371589","0.0-98.0","D167BA4F050545C6A8099735FFF272BB","019cf0b1-5529-7310-b4fa-290e383a719f","019cf037-5203-781a-b900-108ccb1cab86","","null","
                <div class=""stimulus-container"">
                    <img src=""images/causal_sequence/museum_causal/museum_causal_ten.png"" class=""exp-image"">
                    <div class=""question-area""></div> 
                </div>","null","","","","","","","","",""
"","","","","","html-button-response","99","372410","0.0-99.0","D167BA4F050545C6A8099735FFF272BB","019cf0b1-5529-7310-b4fa-290e383a719f","019cf037-5203-781a-b900-108ccb1cab86","","821","
                <div class=""stimulus-container"">
                    <img src=""images/causal_sequence/museum_causal/museum_causal_ten.png"" class=""exp-image"">
                    <div class=""question-area"">
                        <p style=""font-size: 20px; font-weight: bold; margin: 0;"">Is there a person in this image?</p>
                    </div>
                </div>","0","main_experiment_trial","ten","museum_causal","causal_sequence","","","","",""
"","","","","","html-keyboard-response","100","373423","0.0-100.0","D167BA4F050545C6A8099735FFF272BB","019cf0b1-5529-7310-b4fa-290e383a719f","019cf037-5203-781a-b900-108ccb1cab86","","null","<div style=""background-color: white; width: 100vw; height: 100vh;""></div>","null","","","","","","","","",""
"","","","","","html-keyboard-response","101","378428","0.0-101.0","D167BA4F050545C6A8099735FFF272BB","019cf0b1-5529-7310-b4fa-290e383a719f","019cf037-5203-781a-b900-108ccb1cab86","","null","
                <div class=""stimulus-container"">
                    <img src=""images/schematic_sequence/flight_scheme/flight_scheme_1.png"" class=""exp-image"">
                    <div class=""question-area""></div> 
                </div>","null","","","","","","","","",""
"","","","","","html-button-response","102","379339","0.0-102.0","D167BA4F050545C6A8099735FFF272BB","019cf0b1-5529-7310-b4fa-290e383a719f","019cf037-5203-781a-b900-108ccb1cab86","","910","
                <div class=""stimulus-container"">
                    <img src=""images/schematic_sequence/flight_scheme/flight_scheme_1.png"" class=""exp-image"">
                    <div class=""question-area"">
                        <p style=""font-size: 20px; font-weight: bold; margin: 0;"">Is there a person in this image?</p>
                    </div>
                </div>","0","main_experiment_trial","1","flight_scheme","schematic_sequence","","","","",""
"","","","","","html-keyboard-response","103","384350","0.0-103.0","D167BA4F050545C6A8099735FFF272BB","019cf0b1-5529-7310-b4fa-290e383a719f","019cf037-5203-781a-b900-108ccb1cab86","","null","
                <div class=""stimulus-container"">
                    <img src=""images/schematic_sequence/flight_scheme/flight_scheme_2.png"" class=""exp-image"">
                    <div class=""question-area""></div> 
                </div>","null","","","","","","","","",""
"","","","","","html-button-response","104","385218","0.0-104.0","D167BA4F050545C6A8099735FFF272BB","019cf0b1-5529-7310-b4fa-290e383a719f","019cf037-5203-781a-b900-108ccb1cab86","","868","
                <div class=""stimulus-container"">
                    <img src=""images/schematic_sequence/flight_scheme/flight_scheme_2.png"" class=""exp-image"">
                    <div class=""question-area"">
                        <p style=""font-size: 20px; font-weight: bold; margin: 0;"">Is there a person in this image?</p>
                    </div>
                </div>","1","main_experiment_trial","2","flight_scheme","schematic_sequence","","","","",""
"","","","","","html-keyboard-response","105","390222","0.0-105.0","D167BA4F050545C6A8099735FFF272BB","019cf0b1-5529-7310-b4fa-290e383a719f","019cf037-5203-781a-b900-108ccb1cab86","","null","
                <div class=""stimulus-container"">
                    <img src=""images/schematic_sequence/flight_scheme/flight_scheme_3.png"" class=""exp-image"">
                    <div class=""question-area""></div> 
                </div>","null","","","","","","","","",""
"","","","","","html-button-response","106","391306","0.0-106.0","D167BA4F050545C6A8099735FFF272BB","019cf0b1-5529-7310-b4fa-290e383a719f","019cf037-5203-781a-b900-108ccb1cab86","","1084","
                <div class=""stimulus-container"">
                    <img src=""images/schematic_sequence/flight_scheme/flight_scheme_3.png"" class=""exp-image"">
                    <div class=""question-area"">
                        <p style=""font-size: 20px; font-weight: bold; margin: 0;"">Is there a person in this image?</p>
                    </div>
                </div>","0","main_experiment_trial","3","flight_scheme","schematic_sequence","","","","",""
"","","","","","html-keyboard-response","107","396308","0.0-107.0","D167BA4F050545C6A8099735FFF272BB","019cf0b1-5529-7310-b4fa-290e383a719f","019cf037-5203-781a-b900-108ccb1cab86","","null","
                <div class=""stimulus-container"">
                    <img src=""images/schematic_sequence/flight_scheme/flight_scheme_4.png"" class=""exp-image"">
                    <div class=""question-area""></div> 
                </div>","null","","","","","","","","",""
"","","","","","html-button-response","108","397714","0.0-108.0","D167BA4F050545C6A8099735FFF272BB","019cf0b1-5529-7310-b4fa-290e383a719f","019cf037-5203-781a-b900-108ccb1cab86","","1406","
                <div class=""stimulus-container"">
                    <img src=""images/schematic_sequence/flight_scheme/flight_scheme_4.png"" class=""exp-image"">
                    <div class=""question-area"">
                        <p style=""font-size: 20px; font-weight: bold; margin: 0;"">Is there a person in this image?</p>
                    </div>
                </div>","0","main_experiment_trial","4","flight_scheme","schematic_sequence","","","","",""
"","","","","","html-keyboard-response","109","402723","0.0-109.0","D167BA4F050545C6A8099735FFF272BB","019cf0b1-5529-7310-b4fa-290e383a719f","019cf037-5203-781a-b900-108ccb1cab86","","null","
                <div class=""stimulus-container"">
                    <img src=""images/schematic_sequence/flight_scheme/flight_scheme_5.png"" class=""exp-image"">
                    <div class=""question-area""></div> 
                </div>","null","","","","","","","","",""
"","","","","","html-button-response","110","403322","0.0-110.0","D167BA4F050545C6A8099735FFF272BB","019cf0b1-5529-7310-b4fa-290e383a719f","019cf037-5203-781a-b900-108ccb1cab86","","599","
                <div class=""stimulus-container"">
                    <img src=""images/schematic_sequence/flight_scheme/flight_scheme_5.png"" class=""exp-image"">
                    <div class=""question-area"">
                        <p style=""font-size: 20px; font-weight: bold; margin: 0;"">Is there a person in this image?</p>
                    </div>
                </div>","0","main_experiment_trial","5","flight_scheme","schematic_sequence","","","","",""
"","","","","","html-keyboard-response","111","408331","0.0-111.0","D167BA4F050545C6A8099735FFF272BB","019cf0b1-5529-7310-b4fa-290e383a719f","019cf037-5203-781a-b900-108ccb1cab86","","null","
                <div class=""stimulus-container"">
                    <img src=""images/schematic_sequence/flight_scheme/flight_scheme_6.png"" class=""exp-image"">
                    <div class=""question-area""></div> 
                </div>","null","","","","","","","","",""
"","","","","","html-button-response","112","409066","0.0-112.0","D167BA4F050545C6A8099735FFF272BB","019cf0b1-5529-7310-b4fa-290e383a719f","019cf037-5203-781a-b900-108ccb1cab86","","735","
                <div class=""stimulus-container"">
                    <img src=""images/schematic_sequence/flight_scheme/flight_scheme_6.png"" class=""exp-image"">
                    <div class=""question-area"">
                        <p style=""font-size: 20px; font-weight: bold; margin: 0;"">Is there a person in this image?</p>
                    </div>
                </div>","1","main_experiment_trial","6","flight_scheme","schematic_sequence","","","","",""
"","","","","","html-keyboard-response","113","414074","0.0-113.0","D167BA4F050545C6A8099735FFF272BB","019cf0b1-5529-7310-b4fa-290e383a719f","019cf037-5203-781a-b900-108ccb1cab86","","null","
                <div class=""stimulus-container"">
                    <img src=""images/schematic_sequence/flight_scheme/flight_scheme_7.png"" class=""exp-image"">
                    <div class=""question-area""></div> 
                </div>","null","","","","","","","","",""
"","","","","","html-button-response","114","414690","0.0-114.0","D167BA4F050545C6A8099735FFF272BB","019cf0b1-5529-7310-b4fa-290e383a719f","019cf037-5203-781a-b900-108ccb1cab86","","616","
                <div class=""stimulus-container"">
                    <img src=""images/schematic_sequence/flight_scheme/flight_scheme_7.png"" class=""exp-image"">
                    <div class=""question-area"">
                        <p style=""font-size: 20px; font-weight: bold; margin: 0;"">Is there a person in this image?</p>
                    </div>
                </div>","0","main_experiment_trial","7","flight_scheme","schematic_sequence","","","","",""
"","","","","","html-keyboard-response","115","419696","0.0-115.0","D167BA4F050545C6A8099735FFF272BB","019cf0b1-5529-7310-b4fa-290e383a719f","019cf037-5203-781a-b900-108ccb1cab86","","null","
                <div class=""stimulus-container"">
                    <img src=""images/schematic_sequence/flight_scheme/flight_scheme_8.png"" class=""exp-image"">
                    <div class=""question-area""></div> 
                </div>","null","","","","","","","","",""
"","","","","","html-button-response","116","421250","0.0-116.0","D167BA4F050545C6A8099735FFF272BB","019cf0b1-5529-7310-b4fa-290e383a719f","019cf037-5203-781a-b900-108ccb1cab86","","1554","
                <div class=""stimulus-container"">
                    <img src=""images/schematic_sequence/flight_scheme/flight_scheme_8.png"" class=""exp-image"">
                    <div class=""question-area"">
                        <p style=""font-size: 20px; font-weight: bold; margin: 0;"">Is there a person in this image?</p>
                    </div>
                </div>","1","main_experiment_trial","8","flight_scheme","schematic_sequence","","","","",""
"","","","","","html-keyboard-response","117","426261","0.0-117.0","D167BA4F050545C6A8099735FFF272BB","019cf0b1-5529-7310-b4fa-290e383a719f","019cf037-5203-781a-b900-108ccb1cab86","","null","
                <div class=""stimulus-container"">
                    <img src=""images/schematic_sequence/flight_scheme/flight_scheme_9.png"" class=""exp-image"">
                    <div class=""question-area""></div> 
                </div>","null","","","","","","","","",""
"","","","","","html-button-response","118","427210","0.0-118.0","D167BA4F050545C6A8099735FFF272BB","019cf0b1-5529-7310-b4fa-290e383a719f","019cf037-5203-781a-b900-108ccb1cab86","","949","
                <div class=""stimulus-container"">
                    <img src=""images/schematic_sequence/flight_scheme/flight_scheme_9.png"" class=""exp-image"">
                    <div class=""question-area"">
                        <p style=""font-size: 20px; font-weight: bold; margin: 0;"">Is there a person in this image?</p>
                    </div>
                </div>","0","main_experiment_trial","9","flight_scheme","schematic_sequence","","","","",""
"","","","","","html-keyboard-response","119","432225","0.0-119.0","D167BA4F050545C6A8099735FFF272BB","019cf0b1-5529-7310-b4fa-290e383a719f","019cf037-5203-781a-b900-108ccb1cab86","","null","
                <div class=""stimulus-container"">
                    <img src=""images/schematic_sequence/flight_scheme/flight_scheme_ten.png"" class=""exp-image"">
                    <div class=""question-area""></div> 
                </div>","null","","","","","","","","",""
"","","","","","html-button-response","120","433082","0.0-120.0","D167BA4F050545C6A8099735FFF272BB","019cf0b1-5529-7310-b4fa-290e383a719f","019cf037-5203-781a-b900-108ccb1cab86","","857","
                <div class=""stimulus-container"">
                    <img src=""images/schematic_sequence/flight_scheme/flight_scheme_ten.png"" class=""exp-image"">
                    <div class=""question-area"">
                        <p style=""font-size: 20px; font-weight: bold; margin: 0;"">Is there a person in this image?</p>
                    </div>
                </div>","0","main_experiment_trial","ten","flight_scheme","schematic_sequence","","","","",""
"","","","","","html-keyboard-response","121","434092","0.0-121.0","D167BA4F050545C6A8099735FFF272BB","019cf0b1-5529-7310-b4fa-290e383a719f","019cf037-5203-781a-b900-108ccb1cab86","","null","<div style=""background-color: white; width: 100vw; height: 100vh;""></div>","null","","","","","","","","",""
"","","","","","html-keyboard-response","122","439102","0.0-122.0","D167BA4F050545C6A8099735FFF272BB","019cf0b1-5529-7310-b4fa-290e383a719f","019cf037-5203-781a-b900-108ccb1cab86","","null","
                <div class=""stimulus-container"">
                    <img src=""images/schematic_sequence/hotel_scheme/hotel_scheme_1.png"" class=""exp-image"">
                    <div class=""question-area""></div> 
                </div>","null","","","","","","","","",""
"","","","","","html-button-response","123","440810","0.0-123.0","D167BA4F050545C6A8099735FFF272BB","019cf0b1-5529-7310-b4fa-290e383a719f","019cf037-5203-781a-b900-108ccb1cab86","","1708","
                <div class=""stimulus-container"">
                    <img src=""images/schematic_sequence/hotel_scheme/hotel_scheme_1.png"" class=""exp-image"">
                    <div class=""question-area"">
                        <p style=""font-size: 20px; font-weight: bold; margin: 0;"">Is there a person in this image?</p>
                    </div>
                </div>","1","main_experiment_trial","1","hotel_scheme","schematic_sequence","","","","",""
"","","","","","html-keyboard-response","124","445820","0.0-124.0","D167BA4F050545C6A8099735FFF272BB","019cf0b1-5529-7310-b4fa-290e383a719f","019cf037-5203-781a-b900-108ccb1cab86","","null","
                <div class=""stimulus-container"">
                    <img src=""images/schematic_sequence/hotel_scheme/hotel_scheme_2.png"" class=""exp-image"">
                    <div class=""question-area""></div> 
                </div>","null","","","","","","","","",""
"","","","","","html-button-response","125","446920","0.0-125.0","D167BA4F050545C6A8099735FFF272BB","019cf0b1-5529-7310-b4fa-290e383a719f","019cf037-5203-781a-b900-108ccb1cab86","","1099","
                <div class=""stimulus-container"">
                    <img src=""images/schematic_sequence/hotel_scheme/hotel_scheme_2.png"" class=""exp-image"">
                    <div class=""question-area"">
                        <p style=""font-size: 20px; font-weight: bold; margin: 0;"">Is there a person in this image?</p>
                    </div>
                </div>","0","main_experiment_trial","2","hotel_scheme","schematic_sequence","","","","",""
"","","","","","html-keyboard-response","126","451930","0.0-126.0","D167BA4F050545C6A8099735FFF272BB","019cf0b1-5529-7310-b4fa-290e383a719f","019cf037-5203-781a-b900-108ccb1cab86","","null","
                <div class=""stimulus-container"">
                    <img src=""images/schematic_sequence/hotel_scheme/hotel_scheme_3.png"" class=""exp-image"">
                    <div class=""question-area""></div> 
                </div>","null","","","","","","","","",""
"","","","","","html-button-response","127","453178","0.0-127.0","D167BA4F050545C6A8099735FFF272BB","019cf0b1-5529-7310-b4fa-290e383a719f","019cf037-5203-781a-b900-108ccb1cab86","","1248","
                <div class=""stimulus-container"">
                    <img src=""images/schematic_sequence/hotel_scheme/hotel_scheme_3.png"" class=""exp-image"">
                    <div class=""question-area"">
                        <p style=""font-size: 20px; font-weight: bold; margin: 0;"">Is there a person in this image?</p>
                    </div>
                </div>","0","main_experiment_trial","3","hotel_scheme","schematic_sequence","","","","",""
"","","","","","html-keyboard-response","128","458184","0.0-128.0","D167BA4F050545C6A8099735FFF272BB","019cf0b1-5529-7310-b4fa-290e383a719f","019cf037-5203-781a-b900-108ccb1cab86","","null","
                <div class=""stimulus-container"">
                    <img src=""images/schematic_sequence/hotel_scheme/hotel_scheme_4.png"" class=""exp-image"">
                    <div class=""question-area""></div> 
                </div>","null","","","","","","","","",""
"","","","","","html-button-response","129","459242","0.0-129.0","D167BA4F050545C6A8099735FFF272BB","019cf0b1-5529-7310-b4fa-290e383a719f","019cf037-5203-781a-b900-108ccb1cab86","","1058","
                <div class=""stimulus-container"">
                    <img src=""images/schematic_sequence/hotel_scheme/hotel_scheme_4.png"" class=""exp-image"">
                    <div class=""question-area"">
                        <p style=""font-size: 20px; font-weight: bold; margin: 0;"">Is there a person in this image?</p>
                    </div>
                </div>","1","main_experiment_trial","4","hotel_scheme","schematic_sequence","","","","",""
"","","","","","html-keyboard-response","130","464247","0.0-130.0","D167BA4F050545C6A8099735FFF272BB","019cf0b1-5529-7310-b4fa-290e383a719f","019cf037-5203-781a-b900-108ccb1cab86","","null","
                <div class=""stimulus-container"">
                    <img src=""images/schematic_sequence/hotel_scheme/hotel_scheme_5.png"" class=""exp-image"">
                    <div class=""question-area""></div> 
                </div>","null","","","","","","","","",""
"","","","","","html-button-response","131","465306","0.0-131.0","D167BA4F050545C6A8099735FFF272BB","019cf0b1-5529-7310-b4fa-290e383a719f","019cf037-5203-781a-b900-108ccb1cab86","","1059","
                <div class=""stimulus-container"">
                    <img src=""images/schematic_sequence/hotel_scheme/hotel_scheme_5.png"" class=""exp-image"">
                    <div class=""question-area"">
                        <p style=""font-size: 20px; font-weight: bold; margin: 0;"">Is there a person in this image?</p>
                    </div>
                </div>","0","main_experiment_trial","5","hotel_scheme","schematic_sequence","","","","",""
"","","","","","html-keyboard-response","132","470312","0.0-132.0","D167BA4F050545C6A8099735FFF272BB","019cf0b1-5529-7310-b4fa-290e383a719f","019cf037-5203-781a-b900-108ccb1cab86","","null","
                <div class=""stimulus-container"">
                    <img src=""images/schematic_sequence/hotel_scheme/hotel_scheme_6.png"" class=""exp-image"">
                    <div class=""question-area""></div> 
                </div>","null","","","","","","","","",""
"","","","","","html-button-response","133","471506","0.0-133.0","D167BA4F050545C6A8099735FFF272BB","019cf0b1-5529-7310-b4fa-290e383a719f","019cf037-5203-781a-b900-108ccb1cab86","","1194","
                <div class=""stimulus-container"">
                    <img src=""images/schematic_sequence/hotel_scheme/hotel_scheme_6.png"" class=""exp-image"">
                    <div class=""question-area"">
                        <p style=""font-size: 20px; font-weight: bold; margin: 0;"">Is there a person in this image?</p>
                    </div>
                </div>","0","main_experiment_trial","6","hotel_scheme","schematic_sequence","","","","",""
"","","","","","html-keyboard-response","134","476509","0.0-134.0","D167BA4F050545C6A8099735FFF272BB","019cf0b1-5529-7310-b4fa-290e383a719f","019cf037-5203-781a-b900-108ccb1cab86","","null","
                <div class=""stimulus-container"">
                    <img src=""images/schematic_sequence/hotel_scheme/hotel_scheme_7.png"" class=""exp-image"">
                    <div class=""question-area""></div> 
                </div>","null","","","","","","","","",""
"","","","","","html-button-response","135","477654","0.0-135.0","D167BA4F050545C6A8099735FFF272BB","019cf0b1-5529-7310-b4fa-290e383a719f","019cf037-5203-781a-b900-108ccb1cab86","","1144","
                <div class=""stimulus-container"">
                    <img src=""images/schematic_sequence/hotel_scheme/hotel_scheme_7.png"" class=""exp-image"">
                    <div class=""question-area"">
                        <p style=""font-size: 20px; font-weight: bold; margin: 0;"">Is there a person in this image?</p>
                    </div>
                </div>","0","main_experiment_trial","7","hotel_scheme","schematic_sequence","","","","",""
"","","","","","html-keyboard-response","136","482669","0.0-136.0","D167BA4F050545C6A8099735FFF272BB","019cf0b1-5529-7310-b4fa-290e383a719f","019cf037-5203-781a-b900-108ccb1cab86","","null","
                <div class=""stimulus-container"">
                    <img src=""images/schematic_sequence/hotel_scheme/hotel_scheme_8.png"" class=""exp-image"">
                    <div class=""question-area""></div> 
                </div>","null","","","","","","","","",""
"","","","","","html-button-response","137","483754","0.0-137.0","D167BA4F050545C6A8099735FFF272BB","019cf0b1-5529-7310-b4fa-290e383a719f","019cf037-5203-781a-b900-108ccb1cab86","","1084","
                <div class=""stimulus-container"">
                    <img src=""images/schematic_sequence/hotel_scheme/hotel_scheme_8.png"" class=""exp-image"">
                    <div class=""question-area"">
                        <p style=""font-size: 20px; font-weight: bold; margin: 0;"">Is there a person in this image?</p>
                    </div>
                </div>","0","main_experiment_trial","8","hotel_scheme","schematic_sequence","","","","",""
"","","","","","html-keyboard-response","138","488758","0.0-138.0","D167BA4F050545C6A8099735FFF272BB","019cf0b1-5529-7310-b4fa-290e383a719f","019cf037-5203-781a-b900-108ccb1cab86","","null","
                <div class=""stimulus-container"">
                    <img src=""images/schematic_sequence/hotel_scheme/hotel_scheme_9.png"" class=""exp-image"">
                    <div class=""question-area""></div> 
                </div>","null","","","","","","","","",""
"","","","","","html-button-response","139","489722","0.0-139.0","D167BA4F050545C6A8099735FFF272BB","019cf0b1-5529-7310-b4fa-290e383a719f","019cf037-5203-781a-b900-108ccb1cab86","","964","
                <div class=""stimulus-container"">
                    <img src=""images/schematic_sequence/hotel_scheme/hotel_scheme_9.png"" class=""exp-image"">
                    <div class=""question-area"">
                        <p style=""font-size: 20px; font-weight: bold; margin: 0;"">Is there a person in this image?</p>
                    </div>
                </div>","0","main_experiment_trial","9","hotel_scheme","schematic_sequence","","","","",""
"","","","","","html-keyboard-response","140","494734","0.0-140.0","D167BA4F050545C6A8099735FFF272BB","019cf0b1-5529-7310-b4fa-290e383a719f","019cf037-5203-781a-b900-108ccb1cab86","","null","
                <div class=""stimulus-container"">
                    <img src=""images/schematic_sequence/hotel_scheme/hotel_scheme_ten.png"" class=""exp-image"">
                    <div class=""question-area""></div> 
                </div>","null","","","","","","","","",""
"","","","","","html-button-response","141","495802","0.0-141.0","D167BA4F050545C6A8099735FFF272BB","019cf0b1-5529-7310-b4fa-290e383a719f","019cf037-5203-781a-b900-108ccb1cab86","","1068","
                <div class=""stimulus-container"">
                    <img src=""images/schematic_sequence/hotel_scheme/hotel_scheme_ten.png"" class=""exp-image"">
                    <div class=""question-area"">
                        <p style=""font-size: 20px; font-weight: bold; margin: 0;"">Is there a person in this image?</p>
                    </div>
                </div>","0","main_experiment_trial","ten","hotel_scheme","schematic_sequence","","","","",""
"","","","","","html-keyboard-response","142","496807","0.0-142.0","D167BA4F050545C6A8099735FFF272BB","019cf0b1-5529-7310-b4fa-290e383a719f","019cf037-5203-781a-b900-108ccb1cab86","","null","<div style=""background-color: white; width: 100vw; height: 100vh;""></div>","null","","","","","","","","",""
"","","","","","html-keyboard-response","143","501817","0.0-143.0","D167BA4F050545C6A8099735FFF272BB","019cf0b1-5529-7310-b4fa-290e383a719f","019cf037-5203-781a-b900-108ccb1cab86","","null","
                <div class=""stimulus-container"">
                    <img src=""images/causal_sequence/dog_causal/dog_causal_1.png"" class=""exp-image"">
                    <div class=""question-area""></div> 
                </div>","null","","","","","","","","",""
"","","","","","html-button-response","144","502682","0.0-144.0","D167BA4F050545C6A8099735FFF272BB","019cf0b1-5529-7310-b4fa-290e383a719f","019cf037-5203-781a-b900-108ccb1cab86","","865","
                <div class=""stimulus-container"">
                    <img src=""images/causal_sequence/dog_causal/dog_causal_1.png"" class=""exp-image"">
                    <div class=""question-area"">
                        <p style=""font-size: 20px; font-weight: bold; margin: 0;"">Is there a person in this image?</p>
                    </div>
                </div>","0","main_experiment_trial","1","dog_causal","causal_sequence","","","","",""
"","","","","","html-keyboard-response","145","507687","0.0-145.0","D167BA4F050545C6A8099735FFF272BB","019cf0b1-5529-7310-b4fa-290e383a719f","019cf037-5203-781a-b900-108ccb1cab86","","null","
                <div class=""stimulus-container"">
                    <img src=""images/causal_sequence/dog_causal/dog_causal_2.png"" class=""exp-image"">
                    <div class=""question-area""></div> 
                </div>","null","","","","","","","","",""
"","","","","","html-button-response","146","508595","0.0-146.0","D167BA4F050545C6A8099735FFF272BB","019cf0b1-5529-7310-b4fa-290e383a719f","019cf037-5203-781a-b900-108ccb1cab86","","907","
                <div class=""stimulus-container"">
                    <img src=""images/causal_sequence/dog_causal/dog_causal_2.png"" class=""exp-image"">
                    <div class=""question-area"">
                        <p style=""font-size: 20px; font-weight: bold; margin: 0;"">Is there a person in this image?</p>
                    </div>
                </div>","0","main_experiment_trial","2","dog_causal","causal_sequence","","","","",""
"","","","","","html-keyboard-response","147","513603","0.0-147.0","D167BA4F050545C6A8099735FFF272BB","019cf0b1-5529-7310-b4fa-290e383a719f","019cf037-5203-781a-b900-108ccb1cab86","","null","
                <div class=""stimulus-container"">
                    <img src=""images/causal_sequence/dog_causal/dog_causal_3.png"" class=""exp-image"">
                    <div class=""question-area""></div> 
                </div>","null","","","","","","","","",""
"","","","","","html-button-response","148","514586","0.0-148.0","D167BA4F050545C6A8099735FFF272BB","019cf0b1-5529-7310-b4fa-290e383a719f","019cf037-5203-781a-b900-108ccb1cab86","","983","
                <div class=""stimulus-container"">
                    <img src=""images/causal_sequence/dog_causal/dog_causal_3.png"" class=""exp-image"">
                    <div class=""question-area"">
                        <p style=""font-size: 20px; font-weight: bold; margin: 0;"">Is there a person in this image?</p>
                    </div>
                </div>","0","main_experiment_trial","3","dog_causal","causal_sequence","","","","",""
"","","","","","html-keyboard-response","149","519593","0.0-149.0","D167BA4F050545C6A8099735FFF272BB","019cf0b1-5529-7310-b4fa-290e383a719f","019cf037-5203-781a-b900-108ccb1cab86","","null","
                <div class=""stimulus-container"">
                    <img src=""images/causal_sequence/dog_causal/dog_causal_4.png"" class=""exp-image"">
                    <div class=""question-area""></div> 
                </div>","null","","","","","","","","",""
"","","","","","html-button-response","150","520426","0.0-150.0","D167BA4F050545C6A8099735FFF272BB","019cf0b1-5529-7310-b4fa-290e383a719f","019cf037-5203-781a-b900-108ccb1cab86","","832","
                <div class=""stimulus-container"">
                    <img src=""images/causal_sequence/dog_causal/dog_causal_4.png"" class=""exp-image"">
                    <div class=""question-area"">
                        <p style=""font-size: 20px; font-weight: bold; margin: 0;"">Is there a person in this image?</p>
                    </div>
                </div>","0","main_experiment_trial","4","dog_causal","causal_sequence","","","","",""
"","","","","","html-keyboard-response","151","525428","0.0-151.0","D167BA4F050545C6A8099735FFF272BB","019cf0b1-5529-7310-b4fa-290e383a719f","019cf037-5203-781a-b900-108ccb1cab86","","null","
                <div class=""stimulus-container"">
                    <img src=""images/causal_sequence/dog_causal/dog_causal_5.png"" class=""exp-image"">
                    <div class=""question-area""></div> 
                </div>","null","","","","","","","","",""
"","","","","","html-button-response","152","526282","0.0-152.0","D167BA4F050545C6A8099735FFF272BB","019cf0b1-5529-7310-b4fa-290e383a719f","019cf037-5203-781a-b900-108ccb1cab86","","854","
                <div class=""stimulus-container"">
                    <img src=""images/causal_sequence/dog_causal/dog_causal_5.png"" class=""exp-image"">
                    <div class=""question-area"">
                        <p style=""font-size: 20px; font-weight: bold; margin: 0;"">Is there a person in this image?</p>
                    </div>
                </div>","0","main_experiment_trial","5","dog_causal","causal_sequence","","","","",""
"","","","","","html-keyboard-response","153","531291","0.0-153.0","D167BA4F050545C6A8099735FFF272BB","019cf0b1-5529-7310-b4fa-290e383a719f","019cf037-5203-781a-b900-108ccb1cab86","","null","
                <div class=""stimulus-container"">
                    <img src=""images/causal_sequence/dog_causal/dog_causal_6.png"" class=""exp-image"">
                    <div class=""question-area""></div> 
                </div>","null","","","","","","","","",""
"","","","","","html-button-response","154","532562","0.0-154.0","D167BA4F050545C6A8099735FFF272BB","019cf0b1-5529-7310-b4fa-290e383a719f","019cf037-5203-781a-b900-108ccb1cab86","","1271","
                <div class=""stimulus-container"">
                    <img src=""images/causal_sequence/dog_causal/dog_causal_6.png"" class=""exp-image"">
                    <div class=""question-area"">
                        <p style=""font-size: 20px; font-weight: bold; margin: 0;"">Is there a person in this image?</p>
                    </div>
                </div>","0","main_experiment_trial","6","dog_causal","causal_sequence","","","","",""
"","","","","","html-keyboard-response","155","537568","0.0-155.0","D167BA4F050545C6A8099735FFF272BB","019cf0b1-5529-7310-b4fa-290e383a719f","019cf037-5203-781a-b900-108ccb1cab86","","null","
                <div class=""stimulus-container"">
                    <img src=""images/causal_sequence/dog_causal/dog_causal_7.png"" class=""exp-image"">
                    <div class=""question-area""></div> 
                </div>","null","","","","","","","","",""
"","","","","","html-button-response","156","538642","0.0-156.0","D167BA4F050545C6A8099735FFF272BB","019cf0b1-5529-7310-b4fa-290e383a719f","019cf037-5203-781a-b900-108ccb1cab86","","1074","
                <div class=""stimulus-container"">
                    <img src=""images/causal_sequence/dog_causal/dog_causal_7.png"" class=""exp-image"">
                    <div class=""question-area"">
                        <p style=""font-size: 20px; font-weight: bold; margin: 0;"">Is there a person in this image?</p>
                    </div>
                </div>","0","main_experiment_trial","7","dog_causal","causal_sequence","","","","",""
"","","","","","html-keyboard-response","157","543649","0.0-157.0","D167BA4F050545C6A8099735FFF272BB","019cf0b1-5529-7310-b4fa-290e383a719f","019cf037-5203-781a-b900-108ccb1cab86","","null","
                <div class=""stimulus-container"">
                    <img src=""images/causal_sequence/dog_causal/dog_causal_8.png"" class=""exp-image"">
                    <div class=""question-area""></div> 
                </div>","null","","","","","","","","",""
"","","","","","html-button-response","158","545394","0.0-158.0","D167BA4F050545C6A8099735FFF272BB","019cf0b1-5529-7310-b4fa-290e383a719f","019cf037-5203-781a-b900-108ccb1cab86","","1745","
                <div class=""stimulus-container"">
                    <img src=""images/causal_sequence/dog_causal/dog_causal_8.png"" class=""exp-image"">
                    <div class=""question-area"">
                        <p style=""font-size: 20px; font-weight: bold; margin: 0;"">Is there a person in this image?</p>
                    </div>
                </div>","0","main_experiment_trial","8","dog_causal","causal_sequence","","","","",""
"","","","","","html-keyboard-response","159","550405","0.0-159.0","D167BA4F050545C6A8099735FFF272BB","019cf0b1-5529-7310-b4fa-290e383a719f","019cf037-5203-781a-b900-108ccb1cab86","","null","
                <div class=""stimulus-container"">
                    <img src=""images/causal_sequence/dog_causal/dog_causal_9.png"" class=""exp-image"">
                    <div class=""question-area""></div> 
                </div>","null","","","","","","","","",""
"","","","","","html-button-response","160","551618","0.0-160.0","D167BA4F050545C6A8099735FFF272BB","019cf0b1-5529-7310-b4fa-290e383a719f","019cf037-5203-781a-b900-108ccb1cab86","","1213","
                <div class=""stimulus-container"">
                    <img src=""images/causal_sequence/dog_causal/dog_causal_9.png"" class=""exp-image"">
                    <div class=""question-area"">
                        <p style=""font-size: 20px; font-weight: bold; margin: 0;"">Is there a person in this image?</p>
                    </div>
                </div>","0","main_experiment_trial","9","dog_causal","causal_sequence","","","","",""
"","","","","","html-keyboard-response","161","556629","0.0-161.0","D167BA4F050545C6A8099735FFF272BB","019cf0b1-5529-7310-b4fa-290e383a719f","019cf037-5203-781a-b900-108ccb1cab86","","null","
                <div class=""stimulus-container"">
                    <img src=""images/causal_sequence/dog_causal/dog_causal_ten.png"" class=""exp-image"">
                    <div class=""question-area""></div> 
                </div>","null","","","","","","","","",""
"","","","","","html-button-response","162","558106","0.0-162.0","D167BA4F050545C6A8099735FFF272BB","019cf0b1-5529-7310-b4fa-290e383a719f","019cf037-5203-781a-b900-108ccb1cab86","","1477","
                <div class=""stimulus-container"">
                    <img src=""images/causal_sequence/dog_causal/dog_causal_ten.png"" class=""exp-image"">
                    <div class=""question-area"">
                        <p style=""font-size: 20px; font-weight: bold; margin: 0;"">Is there a person in this image?</p>
                    </div>
                </div>","0","main_experiment_trial","ten","dog_causal","causal_sequence","","","","",""
"","","","","","html-keyboard-response","163","559117","0.0-163.0","D167BA4F050545C6A8099735FFF272BB","019cf0b1-5529-7310-b4fa-290e383a719f","019cf037-5203-781a-b900-108ccb1cab86","","null","<div style=""background-color: white; width: 100vw; height: 100vh;""></div>","null","","","","","","","","",""
"","","","","","html-keyboard-response","164","564124","0.0-164.0","D167BA4F050545C6A8099735FFF272BB","019cf0b1-5529-7310-b4fa-290e383a719f","019cf037-5203-781a-b900-108ccb1cab86","","null","
                <div class=""stimulus-container"">
                    <img src=""images/schematic_sequence/interview_scheme/interview_scheme_1.png"" class=""exp-image"">
                    <div class=""question-area""></div> 
                </div>","null","","","","","","","","",""
"","","","","","html-button-response","165","565402","0.0-165.0","D167BA4F050545C6A8099735FFF272BB","019cf0b1-5529-7310-b4fa-290e383a719f","019cf037-5203-781a-b900-108ccb1cab86","","1278","
                <div class=""stimulus-container"">
                    <img src=""images/schematic_sequence/interview_scheme/interview_scheme_1.png"" class=""exp-image"">
                    <div class=""question-area"">
                        <p style=""font-size: 20px; font-weight: bold; margin: 0;"">Is there a person in this image?</p>
                    </div>
                </div>","1","main_experiment_trial","1","interview_scheme","schematic_sequence","","","","",""
"","","","","","html-keyboard-response","166","570414","0.0-166.0","D167BA4F050545C6A8099735FFF272BB","019cf0b1-5529-7310-b4fa-290e383a719f","019cf037-5203-781a-b900-108ccb1cab86","","null","
                <div class=""stimulus-container"">
                    <img src=""images/schematic_sequence/interview_scheme/interview_scheme_2.png"" class=""exp-image"">
                    <div class=""question-area""></div> 
                </div>","null","","","","","","","","",""
"","","","","","html-button-response","167","572562","0.0-167.0","D167BA4F050545C6A8099735FFF272BB","019cf0b1-5529-7310-b4fa-290e383a719f","019cf037-5203-781a-b900-108ccb1cab86","","2148","
                <div class=""stimulus-container"">
                    <img src=""images/schematic_sequence/interview_scheme/interview_scheme_2.png"" class=""exp-image"">
                    <div class=""question-area"">
                        <p style=""font-size: 20px; font-weight: bold; margin: 0;"">Is there a person in this image?</p>
                    </div>
                </div>","0","main_experiment_trial","2","interview_scheme","schematic_sequence","","","","",""
"","","","","","html-keyboard-response","168","577569","0.0-168.0","D167BA4F050545C6A8099735FFF272BB","019cf0b1-5529-7310-b4fa-290e383a719f","019cf037-5203-781a-b900-108ccb1cab86","","null","
                <div class=""stimulus-container"">
                    <img src=""images/schematic_sequence/interview_scheme/interview_scheme_3.png"" class=""exp-image"">
                    <div class=""question-area""></div> 
                </div>","null","","","","","","","","",""
"","","","","","html-button-response","169","578442","0.0-169.0","D167BA4F050545C6A8099735FFF272BB","019cf0b1-5529-7310-b4fa-290e383a719f","019cf037-5203-781a-b900-108ccb1cab86","","873","
                <div class=""stimulus-container"">
                    <img src=""images/schematic_sequence/interview_scheme/interview_scheme_3.png"" class=""exp-image"">
                    <div class=""question-area"">
                        <p style=""font-size: 20px; font-weight: bold; margin: 0;"">Is there a person in this image?</p>
                    </div>
                </div>","1","main_experiment_trial","3","interview_scheme","schematic_sequence","","","","",""
"","","","","","html-keyboard-response","170","583443","0.0-170.0","D167BA4F050545C6A8099735FFF272BB","019cf0b1-5529-7310-b4fa-290e383a719f","019cf037-5203-781a-b900-108ccb1cab86","","null","
                <div class=""stimulus-container"">
                    <img src=""images/schematic_sequence/interview_scheme/interview_scheme_4.png"" class=""exp-image"">
                    <div class=""question-area""></div> 
                </div>","null","","","","","","","","",""
"","","","","","html-button-response","171","584546","0.0-171.0","D167BA4F050545C6A8099735FFF272BB","019cf0b1-5529-7310-b4fa-290e383a719f","019cf037-5203-781a-b900-108ccb1cab86","","1103","
                <div class=""stimulus-container"">
                    <img src=""images/schematic_sequence/interview_scheme/interview_scheme_4.png"" class=""exp-image"">
                    <div class=""question-area"">
                        <p style=""font-size: 20px; font-weight: bold; margin: 0;"">Is there a person in this image?</p>
                    </div>
                </div>","1","main_experiment_trial","4","interview_scheme","schematic_sequence","","","","",""
"","","","","","html-keyboard-response","172","589549","0.0-172.0","D167BA4F050545C6A8099735FFF272BB","019cf0b1-5529-7310-b4fa-290e383a719f","019cf037-5203-781a-b900-108ccb1cab86","","null","
                <div class=""stimulus-container"">
                    <img src=""images/schematic_sequence/interview_scheme/interview_scheme_5.png"" class=""exp-image"">
                    <div class=""question-area""></div> 
                </div>","null","","","","","","","","",""
"","","","","","html-button-response","173","590434","0.0-173.0","D167BA4F050545C6A8099735FFF272BB","019cf0b1-5529-7310-b4fa-290e383a719f","019cf037-5203-781a-b900-108ccb1cab86","","884","
                <div class=""stimulus-container"">
                    <img src=""images/schematic_sequence/interview_scheme/interview_scheme_5.png"" class=""exp-image"">
                    <div class=""question-area"">
                        <p style=""font-size: 20px; font-weight: bold; margin: 0;"">Is there a person in this image?</p>
                    </div>
                </div>","0","main_experiment_trial","5","interview_scheme","schematic_sequence","","","","",""
"","","","","","html-keyboard-response","174","595449","0.0-174.0","D167BA4F050545C6A8099735FFF272BB","019cf0b1-5529-7310-b4fa-290e383a719f","019cf037-5203-781a-b900-108ccb1cab86","","null","
                <div class=""stimulus-container"">
                    <img src=""images/schematic_sequence/interview_scheme/interview_scheme_6.png"" class=""exp-image"">
                    <div class=""question-area""></div> 
                </div>","null","","","","","","","","",""
"","","","","","html-button-response","175","596690","0.0-175.0","D167BA4F050545C6A8099735FFF272BB","019cf0b1-5529-7310-b4fa-290e383a719f","019cf037-5203-781a-b900-108ccb1cab86","","1240","
                <div class=""stimulus-container"">
                    <img src=""images/schematic_sequence/interview_scheme/interview_scheme_6.png"" class=""exp-image"">
                    <div class=""question-area"">
                        <p style=""font-size: 20px; font-weight: bold; margin: 0;"">Is there a person in this image?</p>
                    </div>
                </div>","0","main_experiment_trial","6","interview_scheme","schematic_sequence","","","","",""
"","","","","","html-keyboard-response","176","601698","0.0-176.0","D167BA4F050545C6A8099735FFF272BB","019cf0b1-5529-7310-b4fa-290e383a719f","019cf037-5203-781a-b900-108ccb1cab86","","null","
                <div class=""stimulus-container"">
                    <img src=""images/schematic_sequence/interview_scheme/interview_scheme_7.png"" class=""exp-image"">
                    <div class=""question-area""></div> 
                </div>","null","","","","","","","","",""
"","","","","","html-button-response","177","602962","0.0-177.0","D167BA4F050545C6A8099735FFF272BB","019cf0b1-5529-7310-b4fa-290e383a719f","019cf037-5203-781a-b900-108ccb1cab86","","1264","
                <div class=""stimulus-container"">
                    <img src=""images/schematic_sequence/interview_scheme/interview_scheme_7.png"" class=""exp-image"">
                    <div class=""question-area"">
                        <p style=""font-size: 20px; font-weight: bold; margin: 0;"">Is there a person in this image?</p>
                    </div>
                </div>","0","main_experiment_trial","7","interview_scheme","schematic_sequence","","","","",""
"","","","","","html-keyboard-response","178","607977","0.0-178.0","D167BA4F050545C6A8099735FFF272BB","019cf0b1-5529-7310-b4fa-290e383a719f","019cf037-5203-781a-b900-108ccb1cab86","","null","
                <div class=""stimulus-container"">
                    <img src=""images/schematic_sequence/interview_scheme/interview_scheme_8.png"" class=""exp-image"">
                    <div class=""question-area""></div> 
                </div>","null","","","","","","","","",""
"","","","","","html-button-response","179","608946","0.0-179.0","D167BA4F050545C6A8099735FFF272BB","019cf0b1-5529-7310-b4fa-290e383a719f","019cf037-5203-781a-b900-108ccb1cab86","","969","
                <div class=""stimulus-container"">
                    <img src=""images/schematic_sequence/interview_scheme/interview_scheme_8.png"" class=""exp-image"">
                    <div class=""question-area"">
                        <p style=""font-size: 20px; font-weight: bold; margin: 0;"">Is there a person in this image?</p>
                    </div>
                </div>","0","main_experiment_trial","8","interview_scheme","schematic_sequence","","","","",""
"","","","","","html-keyboard-response","180","613960","0.0-180.0","D167BA4F050545C6A8099735FFF272BB","019cf0b1-5529-7310-b4fa-290e383a719f","019cf037-5203-781a-b900-108ccb1cab86","","null","
                <div class=""stimulus-container"">
                    <img src=""images/schematic_sequence/interview_scheme/interview_scheme_9.png"" class=""exp-image"">
                    <div class=""question-area""></div> 
                </div>","null","","","","","","","","",""
"","","","","","html-button-response","181","614970","0.0-181.0","D167BA4F050545C6A8099735FFF272BB","019cf0b1-5529-7310-b4fa-290e383a719f","019cf037-5203-781a-b900-108ccb1cab86","","1010","
                <div class=""stimulus-container"">
                    <img src=""images/schematic_sequence/interview_scheme/interview_scheme_9.png"" class=""exp-image"">
                    <div class=""question-area"">
                        <p style=""font-size: 20px; font-weight: bold; margin: 0;"">Is there a person in this image?</p>
                    </div>
                </div>","0","main_experiment_trial","9","interview_scheme","schematic_sequence","","","","",""
"","","","","","html-keyboard-response","182","619985","0.0-182.0","D167BA4F050545C6A8099735FFF272BB","019cf0b1-5529-7310-b4fa-290e383a719f","019cf037-5203-781a-b900-108ccb1cab86","","null","
                <div class=""stimulus-container"">
                    <img src=""images/schematic_sequence/interview_scheme/interview_scheme_ten.png"" class=""exp-image"">
                    <div class=""question-area""></div> 
                </div>","null","","","","","","","","",""
"","","","","","html-button-response","183","621474","0.0-183.0","D167BA4F050545C6A8099735FFF272BB","019cf0b1-5529-7310-b4fa-290e383a719f","019cf037-5203-781a-b900-108ccb1cab86","","1489","
                <div class=""stimulus-container"">
                    <img src=""images/schematic_sequence/interview_scheme/interview_scheme_ten.png"" class=""exp-image"">
                    <div class=""question-area"">
                        <p style=""font-size: 20px; font-weight: bold; margin: 0;"">Is there a person in this image?</p>
                    </div>
                </div>","0","main_experiment_trial","ten","interview_scheme","schematic_sequence","","","","",""
"","","","","","html-keyboard-response","184","622489","0.0-184.0","D167BA4F050545C6A8099735FFF272BB","019cf0b1-5529-7310-b4fa-290e383a719f","019cf037-5203-781a-b900-108ccb1cab86","","null","<div style=""background-color: white; width: 100vw; height: 100vh;""></div>","null","","","","","","","","",""
