"success","timeout","failed_images","failed_audio","failed_video","trial_type","trial_index","time_elapsed","internal_node_id","subject_id","study_id","session_id","view_history","rt","stimulus","response","task","image_index","folder","sequence_type","valuable_image_index","reward_type","chosen_image_index","target_X","correct_choice"
"true","false","[]","[]","[]","preload","0","3342","0.0-0.0","A4F778CCF5D741828F9DB548868075ED","019cf0e5-3ac4-76cd-bfde-20fb8f62a05c","019cf037-5203-781a-b900-108ccb1cab86","","","","","","","","","","","","",""
"","","","","","instructions","1","9545","0.0-1.0","A4F778CCF5D741828F9DB548868075ED","019cf0e5-3ac4-76cd-bfde-20fb8f62a05c","019cf037-5203-781a-b900-108ccb1cab86","[{""page_index"":0,""viewing_time"":6201}]","6202","","","","","","","","","","",""
"","","","","","instructions","2","14531","0.0-2.0","A4F778CCF5D741828F9DB548868075ED","019cf0e5-3ac4-76cd-bfde-20fb8f62a05c","019cf037-5203-781a-b900-108ccb1cab86","[{""page_index"":0,""viewing_time"":4985}]","4986","","","","","","","","","","",""
"true","","","","","fullscreen","3","17160","0.0-3.0","A4F778CCF5D741828F9DB548868075ED","019cf0e5-3ac4-76cd-bfde-20fb8f62a05c","019cf037-5203-781a-b900-108ccb1cab86","","1620","","","","","","","","","","",""
"","","","","","instructions","4","22487","0.0-4.0","A4F778CCF5D741828F9DB548868075ED","019cf0e5-3ac4-76cd-bfde-20fb8f62a05c","019cf037-5203-781a-b900-108ccb1cab86","[{""page_index"":0,""viewing_time"":5326}]","5326","","","","","","","","","","",""
"","","","","","instructions","5","29523","0.0-5.0","A4F778CCF5D741828F9DB548868075ED","019cf0e5-3ac4-76cd-bfde-20fb8f62a05c","019cf037-5203-781a-b900-108ccb1cab86","[{""page_index"":0,""viewing_time"":7034}]","7035","","","","","","","","","","",""
"","","","","","html-keyboard-response","6","33535","0.0-6.0","A4F778CCF5D741828F9DB548868075ED","019cf0e5-3ac4-76cd-bfde-20fb8f62a05c","019cf037-5203-781a-b900-108ccb1cab86","","null","
                <div class=""stimulus-container"">
                    <img src=""images/instructions/movie_1.png"" class=""exp-image"">
                    <div class=""question-area""></div> 
                </div>","null","","","","","","","","",""
"","","","","","html-button-response","7","36547","0.0-7.0","A4F778CCF5D741828F9DB548868075ED","019cf0e5-3ac4-76cd-bfde-20fb8f62a05c","019cf037-5203-781a-b900-108ccb1cab86","","null","
                <div class=""stimulus-container"">
                    <img src=""images/instructions/movie_1.png"" class=""exp-image"">
                    <div class=""question-area"">
                        <p style=""font-size: 20px; font-weight: bold; margin: 0;"">Was there a person in this image?</p>
                    </div>
                </div>","null","example_question","1","","","","","","",""
"","","","","","html-keyboard-response","8","40556","0.0-8.0","A4F778CCF5D741828F9DB548868075ED","019cf0e5-3ac4-76cd-bfde-20fb8f62a05c","019cf037-5203-781a-b900-108ccb1cab86","","null","
                <div class=""stimulus-container"">
                    <img src=""images/instructions/movie_2.png"" class=""exp-image"">
                    <div class=""question-area""></div> 
                </div>","null","","","","","","","","",""
"","","","","","html-button-response","9","41187","0.0-9.0","A4F778CCF5D741828F9DB548868075ED","019cf0e5-3ac4-76cd-bfde-20fb8f62a05c","019cf037-5203-781a-b900-108ccb1cab86","","630","
                <div class=""stimulus-container"">
                    <img src=""images/instructions/movie_2.png"" class=""exp-image"">
                    <div class=""question-area"">
                        <p style=""font-size: 20px; font-weight: bold; margin: 0;"">Was there a person in this image?</p>
                    </div>
                </div>","0","example_question","2","","","","","","",""
"","","","","","html-keyboard-response","10","45190","0.0-10.0","A4F778CCF5D741828F9DB548868075ED","019cf0e5-3ac4-76cd-bfde-20fb8f62a05c","019cf037-5203-781a-b900-108ccb1cab86","","null","
                <div class=""stimulus-container"">
                    <img src=""images/instructions/movie_3.png"" class=""exp-image"">
                    <div class=""question-area""></div> 
                </div>","null","","","","","","","","",""
"","","","","","html-button-response","11","46172","0.0-11.0","A4F778CCF5D741828F9DB548868075ED","019cf0e5-3ac4-76cd-bfde-20fb8f62a05c","019cf037-5203-781a-b900-108ccb1cab86","","981","
                <div class=""stimulus-container"">
                    <img src=""images/instructions/movie_3.png"" class=""exp-image"">
                    <div class=""question-area"">
                        <p style=""font-size: 20px; font-weight: bold; margin: 0;"">Was there a person in this image?</p>
                    </div>
                </div>","0","example_question","3","","","","","","",""
"","","","","","html-keyboard-response","12","50176","0.0-12.0","A4F778CCF5D741828F9DB548868075ED","019cf0e5-3ac4-76cd-bfde-20fb8f62a05c","019cf037-5203-781a-b900-108ccb1cab86","","null","
                <div class=""stimulus-container"">
                    <img src=""images/instructions/movie_4.png"" class=""exp-image"">
                    <div class=""question-area""></div> 
                </div>","null","","","","","","","","",""
"","","","","","html-button-response","13","51141","0.0-13.0","A4F778CCF5D741828F9DB548868075ED","019cf0e5-3ac4-76cd-bfde-20fb8f62a05c","019cf037-5203-781a-b900-108ccb1cab86","","963","
                <div class=""stimulus-container"">
                    <img src=""images/instructions/movie_4.png"" class=""exp-image"">
                    <div class=""question-area"">
                        <p style=""font-size: 20px; font-weight: bold; margin: 0;"">Was there a person in this image?</p>
                    </div>
                </div>","0","example_question","4","","","","","","",""
"","","","","","instructions","14","53354","0.0-14.0","A4F778CCF5D741828F9DB548868075ED","019cf0e5-3ac4-76cd-bfde-20fb8f62a05c","019cf037-5203-781a-b900-108ccb1cab86","[{""page_index"":0,""viewing_time"":2211}]","2212","","","","","","","","","","",""
"","","","","","instructions","15","62082","0.0-15.0","A4F778CCF5D741828F9DB548868075ED","019cf0e5-3ac4-76cd-bfde-20fb8f62a05c","019cf037-5203-781a-b900-108ccb1cab86","[{""page_index"":0,""viewing_time"":8727}]","8727","","","","","","","","","","",""
"","","","","","html-keyboard-response","16","63097","0.0-16.0","A4F778CCF5D741828F9DB548868075ED","019cf0e5-3ac4-76cd-bfde-20fb8f62a05c","019cf037-5203-781a-b900-108ccb1cab86","","null","<div style=""background-color: white; width: 100vw; height: 100vh;""></div>","null","","","","","","","","",""
"","","","","","html-keyboard-response","17","68101","0.0-17.0","A4F778CCF5D741828F9DB548868075ED","019cf0e5-3ac4-76cd-bfde-20fb8f62a05c","019cf037-5203-781a-b900-108ccb1cab86","","null","
                <div class=""stimulus-container"">
                    <img src=""images/schematic_sequence/flight_scheme/flight_scheme_1.png"" class=""exp-image"">
                    <div class=""question-area""></div> 
                </div>","null","","","","","","","","",""
"","","","","","html-button-response","18","68785","0.0-18.0","A4F778CCF5D741828F9DB548868075ED","019cf0e5-3ac4-76cd-bfde-20fb8f62a05c","019cf037-5203-781a-b900-108ccb1cab86","","682","
                <div class=""stimulus-container"">
                    <img src=""images/schematic_sequence/flight_scheme/flight_scheme_1.png"" class=""exp-image"">
                    <div class=""question-area"">
                        <p style=""font-size: 20px; font-weight: bold; margin: 0;"">Is there a person in this image?</p>
                    </div>
                </div>","1","main_experiment_trial","1","flight_scheme","schematic_sequence","","","","",""
"","","","","","html-keyboard-response","19","73791","0.0-19.0","A4F778CCF5D741828F9DB548868075ED","019cf0e5-3ac4-76cd-bfde-20fb8f62a05c","019cf037-5203-781a-b900-108ccb1cab86","","null","
                <div class=""stimulus-container"">
                    <img src=""images/schematic_sequence/flight_scheme/flight_scheme_2.png"" class=""exp-image"">
                    <div class=""question-area""></div> 
                </div>","null","","","","","","","","",""
"","","","","","html-button-response","20","74440","0.0-20.0","A4F778CCF5D741828F9DB548868075ED","019cf0e5-3ac4-76cd-bfde-20fb8f62a05c","019cf037-5203-781a-b900-108ccb1cab86","","647","
                <div class=""stimulus-container"">
                    <img src=""images/schematic_sequence/flight_scheme/flight_scheme_2.png"" class=""exp-image"">
                    <div class=""question-area"">
                        <p style=""font-size: 20px; font-weight: bold; margin: 0;"">Is there a person in this image?</p>
                    </div>
                </div>","1","main_experiment_trial","2","flight_scheme","schematic_sequence","","","","",""
"","","","","","html-keyboard-response","21","79454","0.0-21.0","A4F778CCF5D741828F9DB548868075ED","019cf0e5-3ac4-76cd-bfde-20fb8f62a05c","019cf037-5203-781a-b900-108ccb1cab86","","null","
                <div class=""stimulus-container"">
                    <img src=""images/schematic_sequence/flight_scheme/flight_scheme_3.png"" class=""exp-image"">
                    <div class=""question-area""></div> 
                </div>","null","","","","","","","","",""
"","","","","","html-button-response","22","80279","0.0-22.0","A4F778CCF5D741828F9DB548868075ED","019cf0e5-3ac4-76cd-bfde-20fb8f62a05c","019cf037-5203-781a-b900-108ccb1cab86","","825","
                <div class=""stimulus-container"">
                    <img src=""images/schematic_sequence/flight_scheme/flight_scheme_3.png"" class=""exp-image"">
                    <div class=""question-area"">
                        <p style=""font-size: 20px; font-weight: bold; margin: 0;"">Is there a person in this image?</p>
                    </div>
                </div>","0","main_experiment_trial","3","flight_scheme","schematic_sequence","","","","",""
"","","","","","html-keyboard-response","23","85286","0.0-23.0","A4F778CCF5D741828F9DB548868075ED","019cf0e5-3ac4-76cd-bfde-20fb8f62a05c","019cf037-5203-781a-b900-108ccb1cab86","","null","
                <div class=""stimulus-container"">
                    <img src=""images/schematic_sequence/flight_scheme/flight_scheme_4.png"" class=""exp-image"">
                    <div class=""question-area""></div> 
                </div>","null","","","","","","","","",""
"","","","","","html-button-response","24","85901","0.0-24.0","A4F778CCF5D741828F9DB548868075ED","019cf0e5-3ac4-76cd-bfde-20fb8f62a05c","019cf037-5203-781a-b900-108ccb1cab86","","614","
                <div class=""stimulus-container"">
                    <img src=""images/schematic_sequence/flight_scheme/flight_scheme_4.png"" class=""exp-image"">
                    <div class=""question-area"">
                        <p style=""font-size: 20px; font-weight: bold; margin: 0;"">Is there a person in this image?</p>
                    </div>
                </div>","0","main_experiment_trial","4","flight_scheme","schematic_sequence","","","","",""
"","","","","","html-keyboard-response","25","90903","0.0-25.0","A4F778CCF5D741828F9DB548868075ED","019cf0e5-3ac4-76cd-bfde-20fb8f62a05c","019cf037-5203-781a-b900-108ccb1cab86","","null","
                <div class=""stimulus-container"">
                    <img src=""images/schematic_sequence/flight_scheme/flight_scheme_5.png"" class=""exp-image"">
                    <div class=""question-area""></div> 
                </div>","null","","","","","","","","",""
"","","","","","html-button-response","26","91691","0.0-26.0","A4F778CCF5D741828F9DB548868075ED","019cf0e5-3ac4-76cd-bfde-20fb8f62a05c","019cf037-5203-781a-b900-108ccb1cab86","","785","
                <div class=""stimulus-container"">
                    <img src=""images/schematic_sequence/flight_scheme/flight_scheme_5.png"" class=""exp-image"">
                    <div class=""question-area"">
                        <p style=""font-size: 20px; font-weight: bold; margin: 0;"">Is there a person in this image?</p>
                    </div>
                </div>","0","main_experiment_trial","5","flight_scheme","schematic_sequence","","","","",""
"","","","","","html-keyboard-response","27","96692","0.0-27.0","A4F778CCF5D741828F9DB548868075ED","019cf0e5-3ac4-76cd-bfde-20fb8f62a05c","019cf037-5203-781a-b900-108ccb1cab86","","null","
                <div class=""stimulus-container"">
                    <img src=""images/schematic_sequence/flight_scheme/flight_scheme_6.png"" class=""exp-image"">
                    <div class=""question-area""></div> 
                </div>","null","","","","","","","","",""
"","","","","","html-button-response","28","98237","0.0-28.0","A4F778CCF5D741828F9DB548868075ED","019cf0e5-3ac4-76cd-bfde-20fb8f62a05c","019cf037-5203-781a-b900-108ccb1cab86","","1543","
                <div class=""stimulus-container"">
                    <img src=""images/schematic_sequence/flight_scheme/flight_scheme_6.png"" class=""exp-image"">
                    <div class=""question-area"">
                        <p style=""font-size: 20px; font-weight: bold; margin: 0;"">Is there a person in this image?</p>
                    </div>
                </div>","1","main_experiment_trial","6","flight_scheme","schematic_sequence","","","","",""
"","","","","","html-keyboard-response","29","103241","0.0-29.0","A4F778CCF5D741828F9DB548868075ED","019cf0e5-3ac4-76cd-bfde-20fb8f62a05c","019cf037-5203-781a-b900-108ccb1cab86","","null","
                <div class=""stimulus-container"">
                    <img src=""images/schematic_sequence/flight_scheme/flight_scheme_7.png"" class=""exp-image"">
                    <div class=""question-area""></div> 
                </div>","null","","","","","","","","",""
"","","","","","html-button-response","30","103822","0.0-30.0","A4F778CCF5D741828F9DB548868075ED","019cf0e5-3ac4-76cd-bfde-20fb8f62a05c","019cf037-5203-781a-b900-108ccb1cab86","","579","
                <div class=""stimulus-container"">
                    <img src=""images/schematic_sequence/flight_scheme/flight_scheme_7.png"" class=""exp-image"">
                    <div class=""question-area"">
                        <p style=""font-size: 20px; font-weight: bold; margin: 0;"">Is there a person in this image?</p>
                    </div>
                </div>","1","main_experiment_trial","7","flight_scheme","schematic_sequence","","","","",""
"","","","","","html-keyboard-response","31","108833","0.0-31.0","A4F778CCF5D741828F9DB548868075ED","019cf0e5-3ac4-76cd-bfde-20fb8f62a05c","019cf037-5203-781a-b900-108ccb1cab86","","null","
                <div class=""stimulus-container"">
                    <img src=""images/schematic_sequence/flight_scheme/flight_scheme_8.png"" class=""exp-image"">
                    <div class=""question-area""></div> 
                </div>","null","","","","","","","","",""
"","","","","","html-button-response","32","109566","0.0-32.0","A4F778CCF5D741828F9DB548868075ED","019cf0e5-3ac4-76cd-bfde-20fb8f62a05c","019cf037-5203-781a-b900-108ccb1cab86","","731","
                <div class=""stimulus-container"">
                    <img src=""images/schematic_sequence/flight_scheme/flight_scheme_8.png"" class=""exp-image"">
                    <div class=""question-area"">
                        <p style=""font-size: 20px; font-weight: bold; margin: 0;"">Is there a person in this image?</p>
                    </div>
                </div>","1","main_experiment_trial","8","flight_scheme","schematic_sequence","","","","",""
"","","","","","html-keyboard-response","33","114571","0.0-33.0","A4F778CCF5D741828F9DB548868075ED","019cf0e5-3ac4-76cd-bfde-20fb8f62a05c","019cf037-5203-781a-b900-108ccb1cab86","","null","
                <div class=""stimulus-container"">
                    <img src=""images/schematic_sequence/flight_scheme/flight_scheme_9.png"" class=""exp-image"">
                    <div class=""question-area""></div> 
                </div>","null","","","","","","","","",""
"","","","","","html-button-response","34","116631","0.0-34.0","A4F778CCF5D741828F9DB548868075ED","019cf0e5-3ac4-76cd-bfde-20fb8f62a05c","019cf037-5203-781a-b900-108ccb1cab86","","2058","
                <div class=""stimulus-container"">
                    <img src=""images/schematic_sequence/flight_scheme/flight_scheme_9.png"" class=""exp-image"">
                    <div class=""question-area"">
                        <p style=""font-size: 20px; font-weight: bold; margin: 0;"">Is there a person in this image?</p>
                    </div>
                </div>","0","main_experiment_trial","9","flight_scheme","schematic_sequence","","","","",""
"","","","","","html-keyboard-response","35","121636","0.0-35.0","A4F778CCF5D741828F9DB548868075ED","019cf0e5-3ac4-76cd-bfde-20fb8f62a05c","019cf037-5203-781a-b900-108ccb1cab86","","null","
                <div class=""stimulus-container"">
                    <img src=""images/schematic_sequence/flight_scheme/flight_scheme_ten.png"" class=""exp-image"">
                    <div class=""question-area""></div> 
                </div>","null","","","","","","","","",""
"","","","","","html-button-response","36","122213","0.0-36.0","A4F778CCF5D741828F9DB548868075ED","019cf0e5-3ac4-76cd-bfde-20fb8f62a05c","019cf037-5203-781a-b900-108ccb1cab86","","575","
                <div class=""stimulus-container"">
                    <img src=""images/schematic_sequence/flight_scheme/flight_scheme_ten.png"" class=""exp-image"">
                    <div class=""question-area"">
                        <p style=""font-size: 20px; font-weight: bold; margin: 0;"">Is there a person in this image?</p>
                    </div>
                </div>","0","main_experiment_trial","ten","flight_scheme","schematic_sequence","","","","",""
"","","","","","html-keyboard-response","37","123221","0.0-37.0","A4F778CCF5D741828F9DB548868075ED","019cf0e5-3ac4-76cd-bfde-20fb8f62a05c","019cf037-5203-781a-b900-108ccb1cab86","","null","<div style=""background-color: white; width: 100vw; height: 100vh;""></div>","null","","","","","","","","",""
"","","","","","html-keyboard-response","38","128239","0.0-38.0","A4F778CCF5D741828F9DB548868075ED","019cf0e5-3ac4-76cd-bfde-20fb8f62a05c","019cf037-5203-781a-b900-108ccb1cab86","","null","
                <div class=""stimulus-container"">
                    <img src=""images/schematic_sequence/interview_scheme/interview_scheme_1.png"" class=""exp-image"">
                    <div class=""question-area""></div> 
                </div>","null","","","","","","","","",""
"","","","","","html-button-response","39","128902","0.0-39.0","A4F778CCF5D741828F9DB548868075ED","019cf0e5-3ac4-76cd-bfde-20fb8f62a05c","019cf037-5203-781a-b900-108ccb1cab86","","662","
                <div class=""stimulus-container"">
                    <img src=""images/schematic_sequence/interview_scheme/interview_scheme_1.png"" class=""exp-image"">
                    <div class=""question-area"">
                        <p style=""font-size: 20px; font-weight: bold; margin: 0;"">Is there a person in this image?</p>
                    </div>
                </div>","1","main_experiment_trial","1","interview_scheme","schematic_sequence","","","","",""
"","","","","","html-keyboard-response","40","133910","0.0-40.0","A4F778CCF5D741828F9DB548868075ED","019cf0e5-3ac4-76cd-bfde-20fb8f62a05c","019cf037-5203-781a-b900-108ccb1cab86","","null","
                <div class=""stimulus-container"">
                    <img src=""images/schematic_sequence/interview_scheme/interview_scheme_2.png"" class=""exp-image"">
                    <div class=""question-area""></div> 
                </div>","null","","","","","","","","",""
"","","","","","html-button-response","41","134604","0.0-41.0","A4F778CCF5D741828F9DB548868075ED","019cf0e5-3ac4-76cd-bfde-20fb8f62a05c","019cf037-5203-781a-b900-108ccb1cab86","","691","
                <div class=""stimulus-container"">
                    <img src=""images/schematic_sequence/interview_scheme/interview_scheme_2.png"" class=""exp-image"">
                    <div class=""question-area"">
                        <p style=""font-size: 20px; font-weight: bold; margin: 0;"">Is there a person in this image?</p>
                    </div>
                </div>","1","main_experiment_trial","2","interview_scheme","schematic_sequence","","","","",""
"","","","","","html-keyboard-response","42","139617","0.0-42.0","A4F778CCF5D741828F9DB548868075ED","019cf0e5-3ac4-76cd-bfde-20fb8f62a05c","019cf037-5203-781a-b900-108ccb1cab86","","null","
                <div class=""stimulus-container"">
                    <img src=""images/schematic_sequence/interview_scheme/interview_scheme_3.png"" class=""exp-image"">
                    <div class=""question-area""></div> 
                </div>","null","","","","","","","","",""
"","","","","","html-button-response","43","140205","0.0-43.0","A4F778CCF5D741828F9DB548868075ED","019cf0e5-3ac4-76cd-bfde-20fb8f62a05c","019cf037-5203-781a-b900-108ccb1cab86","","587","
                <div class=""stimulus-container"">
                    <img src=""images/schematic_sequence/interview_scheme/interview_scheme_3.png"" class=""exp-image"">
                    <div class=""question-area"">
                        <p style=""font-size: 20px; font-weight: bold; margin: 0;"">Is there a person in this image?</p>
                    </div>
                </div>","1","main_experiment_trial","3","interview_scheme","schematic_sequence","","","","",""
"","","","","","html-keyboard-response","44","145220","0.0-44.0","A4F778CCF5D741828F9DB548868075ED","019cf0e5-3ac4-76cd-bfde-20fb8f62a05c","019cf037-5203-781a-b900-108ccb1cab86","","null","
                <div class=""stimulus-container"">
                    <img src=""images/schematic_sequence/interview_scheme/interview_scheme_4.png"" class=""exp-image"">
                    <div class=""question-area""></div> 
                </div>","null","","","","","","","","",""
"","","","","","html-button-response","45","147041","0.0-45.0","A4F778CCF5D741828F9DB548868075ED","019cf0e5-3ac4-76cd-bfde-20fb8f62a05c","019cf037-5203-781a-b900-108ccb1cab86","","1820","
                <div class=""stimulus-container"">
                    <img src=""images/schematic_sequence/interview_scheme/interview_scheme_4.png"" class=""exp-image"">
                    <div class=""question-area"">
                        <p style=""font-size: 20px; font-weight: bold; margin: 0;"">Is there a person in this image?</p>
                    </div>
                </div>","1","main_experiment_trial","4","interview_scheme","schematic_sequence","","","","",""
"","","","","","html-keyboard-response","46","152055","0.0-46.0","A4F778CCF5D741828F9DB548868075ED","019cf0e5-3ac4-76cd-bfde-20fb8f62a05c","019cf037-5203-781a-b900-108ccb1cab86","","null","
                <div class=""stimulus-container"">
                    <img src=""images/schematic_sequence/interview_scheme/interview_scheme_5.png"" class=""exp-image"">
                    <div class=""question-area""></div> 
                </div>","null","","","","","","","","",""
"","","","","","html-button-response","47","152723","0.0-47.0","A4F778CCF5D741828F9DB548868075ED","019cf0e5-3ac4-76cd-bfde-20fb8f62a05c","019cf037-5203-781a-b900-108ccb1cab86","","666","
                <div class=""stimulus-container"">
                    <img src=""images/schematic_sequence/interview_scheme/interview_scheme_5.png"" class=""exp-image"">
                    <div class=""question-area"">
                        <p style=""font-size: 20px; font-weight: bold; margin: 0;"">Is there a person in this image?</p>
                    </div>
                </div>","0","main_experiment_trial","5","interview_scheme","schematic_sequence","","","","",""
"","","","","","html-keyboard-response","48","157731","0.0-48.0","A4F778CCF5D741828F9DB548868075ED","019cf0e5-3ac4-76cd-bfde-20fb8f62a05c","019cf037-5203-781a-b900-108ccb1cab86","","null","
                <div class=""stimulus-container"">
                    <img src=""images/schematic_sequence/interview_scheme/interview_scheme_6.png"" class=""exp-image"">
                    <div class=""question-area""></div> 
                </div>","null","","","","","","","","",""
"","","","","","html-button-response","49","158900","0.0-49.0","A4F778CCF5D741828F9DB548868075ED","019cf0e5-3ac4-76cd-bfde-20fb8f62a05c","019cf037-5203-781a-b900-108ccb1cab86","","1168","
                <div class=""stimulus-container"">
                    <img src=""images/schematic_sequence/interview_scheme/interview_scheme_6.png"" class=""exp-image"">
                    <div class=""question-area"">
                        <p style=""font-size: 20px; font-weight: bold; margin: 0;"">Is there a person in this image?</p>
                    </div>
                </div>","0","main_experiment_trial","6","interview_scheme","schematic_sequence","","","","",""
"","","","","","html-keyboard-response","50","163905","0.0-50.0","A4F778CCF5D741828F9DB548868075ED","019cf0e5-3ac4-76cd-bfde-20fb8f62a05c","019cf037-5203-781a-b900-108ccb1cab86","","null","
                <div class=""stimulus-container"">
                    <img src=""images/schematic_sequence/interview_scheme/interview_scheme_7.png"" class=""exp-image"">
                    <div class=""question-area""></div> 
                </div>","null","","","","","","","","",""
"","","","","","html-button-response","51","164523","0.0-51.0","A4F778CCF5D741828F9DB548868075ED","019cf0e5-3ac4-76cd-bfde-20fb8f62a05c","019cf037-5203-781a-b900-108ccb1cab86","","617","
                <div class=""stimulus-container"">
                    <img src=""images/schematic_sequence/interview_scheme/interview_scheme_7.png"" class=""exp-image"">
                    <div class=""question-area"">
                        <p style=""font-size: 20px; font-weight: bold; margin: 0;"">Is there a person in this image?</p>
                    </div>
                </div>","0","main_experiment_trial","7","interview_scheme","schematic_sequence","","","","",""
"","","","","","html-keyboard-response","52","169533","0.0-52.0","A4F778CCF5D741828F9DB548868075ED","019cf0e5-3ac4-76cd-bfde-20fb8f62a05c","019cf037-5203-781a-b900-108ccb1cab86","","null","
                <div class=""stimulus-container"">
                    <img src=""images/schematic_sequence/interview_scheme/interview_scheme_8.png"" class=""exp-image"">
                    <div class=""question-area""></div> 
                </div>","null","","","","","","","","",""
"","","","","","html-button-response","53","170084","0.0-53.0","A4F778CCF5D741828F9DB548868075ED","019cf0e5-3ac4-76cd-bfde-20fb8f62a05c","019cf037-5203-781a-b900-108ccb1cab86","","547","
                <div class=""stimulus-container"">
                    <img src=""images/schematic_sequence/interview_scheme/interview_scheme_8.png"" class=""exp-image"">
                    <div class=""question-area"">
                        <p style=""font-size: 20px; font-weight: bold; margin: 0;"">Is there a person in this image?</p>
                    </div>
                </div>","0","main_experiment_trial","8","interview_scheme","schematic_sequence","","","","",""
"","","","","","html-keyboard-response","54","175085","0.0-54.0","A4F778CCF5D741828F9DB548868075ED","019cf0e5-3ac4-76cd-bfde-20fb8f62a05c","019cf037-5203-781a-b900-108ccb1cab86","","null","
                <div class=""stimulus-container"">
                    <img src=""images/schematic_sequence/interview_scheme/interview_scheme_9.png"" class=""exp-image"">
                    <div class=""question-area""></div> 
                </div>","null","","","","","","","","",""
"","","","","","html-button-response","55","176128","0.0-55.0","A4F778CCF5D741828F9DB548868075ED","019cf0e5-3ac4-76cd-bfde-20fb8f62a05c","019cf037-5203-781a-b900-108ccb1cab86","","1040","
                <div class=""stimulus-container"">
                    <img src=""images/schematic_sequence/interview_scheme/interview_scheme_9.png"" class=""exp-image"">
                    <div class=""question-area"">
                        <p style=""font-size: 20px; font-weight: bold; margin: 0;"">Is there a person in this image?</p>
                    </div>
                </div>","0","main_experiment_trial","9","interview_scheme","schematic_sequence","","","","",""
"","","","","","html-keyboard-response","56","181140","0.0-56.0","A4F778CCF5D741828F9DB548868075ED","019cf0e5-3ac4-76cd-bfde-20fb8f62a05c","019cf037-5203-781a-b900-108ccb1cab86","","null","
                <div class=""stimulus-container"">
                    <img src=""images/schematic_sequence/interview_scheme/interview_scheme_ten.png"" class=""exp-image"">
                    <div class=""question-area""></div> 
                </div>","null","","","","","","","","",""
"","","","","","html-button-response","57","181659","0.0-57.0","A4F778CCF5D741828F9DB548868075ED","019cf0e5-3ac4-76cd-bfde-20fb8f62a05c","019cf037-5203-781a-b900-108ccb1cab86","","517","
                <div class=""stimulus-container"">
                    <img src=""images/schematic_sequence/interview_scheme/interview_scheme_ten.png"" class=""exp-image"">
                    <div class=""question-area"">
                        <p style=""font-size: 20px; font-weight: bold; margin: 0;"">Is there a person in this image?</p>
                    </div>
                </div>","0","main_experiment_trial","ten","interview_scheme","schematic_sequence","","","","",""
"","","","","","html-keyboard-response","58","182663","0.0-58.0","A4F778CCF5D741828F9DB548868075ED","019cf0e5-3ac4-76cd-bfde-20fb8f62a05c","019cf037-5203-781a-b900-108ccb1cab86","","null","<div style=""background-color: white; width: 100vw; height: 100vh;""></div>","null","","","","","","","","",""
"","","","","","html-keyboard-response","59","187674","0.0-59.0","A4F778CCF5D741828F9DB548868075ED","019cf0e5-3ac4-76cd-bfde-20fb8f62a05c","019cf037-5203-781a-b900-108ccb1cab86","","null","
                <div class=""stimulus-container"">
                    <img src=""images/causal_sequence/package_causal/package_causal_1.png"" class=""exp-image"">
                    <div class=""question-area""></div> 
                </div>","null","","","","","","","","",""
"","","","","","html-button-response","60","188731","0.0-60.0","A4F778CCF5D741828F9DB548868075ED","019cf0e5-3ac4-76cd-bfde-20fb8f62a05c","019cf037-5203-781a-b900-108ccb1cab86","","1056","
                <div class=""stimulus-container"">
                    <img src=""images/causal_sequence/package_causal/package_causal_1.png"" class=""exp-image"">
                    <div class=""question-area"">
                        <p style=""font-size: 20px; font-weight: bold; margin: 0;"">Is there a person in this image?</p>
                    </div>
                </div>","0","main_experiment_trial","1","package_causal","causal_sequence","","","","",""
"","","","","","html-keyboard-response","61","193735","0.0-61.0","A4F778CCF5D741828F9DB548868075ED","019cf0e5-3ac4-76cd-bfde-20fb8f62a05c","019cf037-5203-781a-b900-108ccb1cab86","","null","
                <div class=""stimulus-container"">
                    <img src=""images/causal_sequence/package_causal/package_causal_2.png"" class=""exp-image"">
                    <div class=""question-area""></div> 
                </div>","null","","","","","","","","",""
"","","","","","html-button-response","62","194697","0.0-62.0","A4F778CCF5D741828F9DB548868075ED","019cf0e5-3ac4-76cd-bfde-20fb8f62a05c","019cf037-5203-781a-b900-108ccb1cab86","","960","
                <div class=""stimulus-container"">
                    <img src=""images/causal_sequence/package_causal/package_causal_2.png"" class=""exp-image"">
                    <div class=""question-area"">
                        <p style=""font-size: 20px; font-weight: bold; margin: 0;"">Is there a person in this image?</p>
                    </div>
                </div>","0","main_experiment_trial","2","package_causal","causal_sequence","","","","",""
"","","","","","html-keyboard-response","63","199702","0.0-63.0","A4F778CCF5D741828F9DB548868075ED","019cf0e5-3ac4-76cd-bfde-20fb8f62a05c","019cf037-5203-781a-b900-108ccb1cab86","","null","
                <div class=""stimulus-container"">
                    <img src=""images/causal_sequence/package_causal/package_causal_3.png"" class=""exp-image"">
                    <div class=""question-area""></div> 
                </div>","null","","","","","","","","",""
"","","","","","html-button-response","64","200701","0.0-64.0","A4F778CCF5D741828F9DB548868075ED","019cf0e5-3ac4-76cd-bfde-20fb8f62a05c","019cf037-5203-781a-b900-108ccb1cab86","","997","
                <div class=""stimulus-container"">
                    <img src=""images/causal_sequence/package_causal/package_causal_3.png"" class=""exp-image"">
                    <div class=""question-area"">
                        <p style=""font-size: 20px; font-weight: bold; margin: 0;"">Is there a person in this image?</p>
                    </div>
                </div>","0","main_experiment_trial","3","package_causal","causal_sequence","","","","",""
"","","","","","html-keyboard-response","65","205719","0.0-65.0","A4F778CCF5D741828F9DB548868075ED","019cf0e5-3ac4-76cd-bfde-20fb8f62a05c","019cf037-5203-781a-b900-108ccb1cab86","","null","
                <div class=""stimulus-container"">
                    <img src=""images/causal_sequence/package_causal/package_causal_4.png"" class=""exp-image"">
                    <div class=""question-area""></div> 
                </div>","null","","","","","","","","",""
"","","","","","html-button-response","66","206523","0.0-66.0","A4F778CCF5D741828F9DB548868075ED","019cf0e5-3ac4-76cd-bfde-20fb8f62a05c","019cf037-5203-781a-b900-108ccb1cab86","","803","
                <div class=""stimulus-container"">
                    <img src=""images/causal_sequence/package_causal/package_causal_4.png"" class=""exp-image"">
                    <div class=""question-area"">
                        <p style=""font-size: 20px; font-weight: bold; margin: 0;"">Is there a person in this image?</p>
                    </div>
                </div>","1","main_experiment_trial","4","package_causal","causal_sequence","","","","",""
"","","","","","html-keyboard-response","67","211537","0.0-67.0","A4F778CCF5D741828F9DB548868075ED","019cf0e5-3ac4-76cd-bfde-20fb8f62a05c","019cf037-5203-781a-b900-108ccb1cab86","","null","
                <div class=""stimulus-container"">
                    <img src=""images/causal_sequence/package_causal/package_causal_5.png"" class=""exp-image"">
                    <div class=""question-area""></div> 
                </div>","null","","","","","","","","",""
"","","","","","html-button-response","68","213501","0.0-68.0","A4F778CCF5D741828F9DB548868075ED","019cf0e5-3ac4-76cd-bfde-20fb8f62a05c","019cf037-5203-781a-b900-108ccb1cab86","","1961","
                <div class=""stimulus-container"">
                    <img src=""images/causal_sequence/package_causal/package_causal_5.png"" class=""exp-image"">
                    <div class=""question-area"">
                        <p style=""font-size: 20px; font-weight: bold; margin: 0;"">Is there a person in this image?</p>
                    </div>
                </div>","0","main_experiment_trial","5","package_causal","causal_sequence","","","","",""
"","","","","","html-keyboard-response","69","218510","0.0-69.0","A4F778CCF5D741828F9DB548868075ED","019cf0e5-3ac4-76cd-bfde-20fb8f62a05c","019cf037-5203-781a-b900-108ccb1cab86","","null","
                <div class=""stimulus-container"">
                    <img src=""images/causal_sequence/package_causal/package_causal_6.png"" class=""exp-image"">
                    <div class=""question-area""></div> 
                </div>","null","","","","","","","","",""
"","","","","","html-button-response","70","220868","0.0-70.0","A4F778CCF5D741828F9DB548868075ED","019cf0e5-3ac4-76cd-bfde-20fb8f62a05c","019cf037-5203-781a-b900-108ccb1cab86","","2356","
                <div class=""stimulus-container"">
                    <img src=""images/causal_sequence/package_causal/package_causal_6.png"" class=""exp-image"">
                    <div class=""question-area"">
                        <p style=""font-size: 20px; font-weight: bold; margin: 0;"">Is there a person in this image?</p>
                    </div>
                </div>","0","main_experiment_trial","6","package_causal","causal_sequence","","","","",""
"","","","","","html-keyboard-response","71","225880","0.0-71.0","A4F778CCF5D741828F9DB548868075ED","019cf0e5-3ac4-76cd-bfde-20fb8f62a05c","019cf037-5203-781a-b900-108ccb1cab86","","null","
                <div class=""stimulus-container"">
                    <img src=""images/causal_sequence/package_causal/package_causal_7.png"" class=""exp-image"">
                    <div class=""question-area""></div> 
                </div>","null","","","","","","","","",""
"","","","","","html-button-response","72","227772","0.0-72.0","A4F778CCF5D741828F9DB548868075ED","019cf0e5-3ac4-76cd-bfde-20fb8f62a05c","019cf037-5203-781a-b900-108ccb1cab86","","1891","
                <div class=""stimulus-container"">
                    <img src=""images/causal_sequence/package_causal/package_causal_7.png"" class=""exp-image"">
                    <div class=""question-area"">
                        <p style=""font-size: 20px; font-weight: bold; margin: 0;"">Is there a person in this image?</p>
                    </div>
                </div>","0","main_experiment_trial","7","package_causal","causal_sequence","","","","",""
"","","","","","html-keyboard-response","73","232773","0.0-73.0","A4F778CCF5D741828F9DB548868075ED","019cf0e5-3ac4-76cd-bfde-20fb8f62a05c","019cf037-5203-781a-b900-108ccb1cab86","","null","
                <div class=""stimulus-container"">
                    <img src=""images/causal_sequence/package_causal/package_causal_8.png"" class=""exp-image"">
                    <div class=""question-area""></div> 
                </div>","null","","","","","","","","",""
"","","","","","html-button-response","74","233414","0.0-74.0","A4F778CCF5D741828F9DB548868075ED","019cf0e5-3ac4-76cd-bfde-20fb8f62a05c","019cf037-5203-781a-b900-108ccb1cab86","","639","
                <div class=""stimulus-container"">
                    <img src=""images/causal_sequence/package_causal/package_causal_8.png"" class=""exp-image"">
                    <div class=""question-area"">
                        <p style=""font-size: 20px; font-weight: bold; margin: 0;"">Is there a person in this image?</p>
                    </div>
                </div>","0","main_experiment_trial","8","package_causal","causal_sequence","","","","",""
"","","","","","html-keyboard-response","75","238421","0.0-75.0","A4F778CCF5D741828F9DB548868075ED","019cf0e5-3ac4-76cd-bfde-20fb8f62a05c","019cf037-5203-781a-b900-108ccb1cab86","","null","
                <div class=""stimulus-container"">
                    <img src=""images/causal_sequence/package_causal/package_causal_9.png"" class=""exp-image"">
                    <div class=""question-area""></div> 
                </div>","null","","","","","","","","",""
"","","","","","html-button-response","76","239060","0.0-76.0","A4F778CCF5D741828F9DB548868075ED","019cf0e5-3ac4-76cd-bfde-20fb8f62a05c","019cf037-5203-781a-b900-108ccb1cab86","","637","
                <div class=""stimulus-container"">
                    <img src=""images/causal_sequence/package_causal/package_causal_9.png"" class=""exp-image"">
                    <div class=""question-area"">
                        <p style=""font-size: 20px; font-weight: bold; margin: 0;"">Is there a person in this image?</p>
                    </div>
                </div>","0","main_experiment_trial","9","package_causal","causal_sequence","","","","",""
"","","","","","html-keyboard-response","77","244069","0.0-77.0","A4F778CCF5D741828F9DB548868075ED","019cf0e5-3ac4-76cd-bfde-20fb8f62a05c","019cf037-5203-781a-b900-108ccb1cab86","","null","
                <div class=""stimulus-container"">
                    <img src=""images/causal_sequence/package_causal/package_causal_ten.png"" class=""exp-image"">
                    <div class=""question-area""></div> 
                </div>","null","","","","","","","","",""
"","","","","","html-button-response","78","244681","0.0-78.0","A4F778CCF5D741828F9DB548868075ED","019cf0e5-3ac4-76cd-bfde-20fb8f62a05c","019cf037-5203-781a-b900-108ccb1cab86","","610","
                <div class=""stimulus-container"">
                    <img src=""images/causal_sequence/package_causal/package_causal_ten.png"" class=""exp-image"">
                    <div class=""question-area"">
                        <p style=""font-size: 20px; font-weight: bold; margin: 0;"">Is there a person in this image?</p>
                    </div>
                </div>","0","main_experiment_trial","ten","package_causal","causal_sequence","","","","",""
"","","","","","html-keyboard-response","79","245695","0.0-79.0","A4F778CCF5D741828F9DB548868075ED","019cf0e5-3ac4-76cd-bfde-20fb8f62a05c","019cf037-5203-781a-b900-108ccb1cab86","","null","<div style=""background-color: white; width: 100vw; height: 100vh;""></div>","null","","","","","","","","",""
"","","","","","html-keyboard-response","80","250699","0.0-80.0","A4F778CCF5D741828F9DB548868075ED","019cf0e5-3ac4-76cd-bfde-20fb8f62a05c","019cf037-5203-781a-b900-108ccb1cab86","","null","
                <div class=""stimulus-container"">
                    <img src=""images/causal_sequence/saving_a_cat_causal/saving_a_cat_causal_1.png"" class=""exp-image"">
                    <div class=""question-area""></div> 
                </div>","null","","","","","","","","",""
"","","","","","html-button-response","81","251583","0.0-81.0","A4F778CCF5D741828F9DB548868075ED","019cf0e5-3ac4-76cd-bfde-20fb8f62a05c","019cf037-5203-781a-b900-108ccb1cab86","","883","
                <div class=""stimulus-container"">
                    <img src=""images/causal_sequence/saving_a_cat_causal/saving_a_cat_causal_1.png"" class=""exp-image"">
                    <div class=""question-area"">
                        <p style=""font-size: 20px; font-weight: bold; margin: 0;"">Is there a person in this image?</p>
                    </div>
                </div>","0","main_experiment_trial","1","saving_a_cat_causal","causal_sequence","","","","",""
"","","","","","html-keyboard-response","82","256595","0.0-82.0","A4F778CCF5D741828F9DB548868075ED","019cf0e5-3ac4-76cd-bfde-20fb8f62a05c","019cf037-5203-781a-b900-108ccb1cab86","","null","
                <div class=""stimulus-container"">
                    <img src=""images/causal_sequence/saving_a_cat_causal/saving_a_cat_causal_2.png"" class=""exp-image"">
                    <div class=""question-area""></div> 
                </div>","null","","","","","","","","",""
"","","","","","html-button-response","83","257538","0.0-83.0","A4F778CCF5D741828F9DB548868075ED","019cf0e5-3ac4-76cd-bfde-20fb8f62a05c","019cf037-5203-781a-b900-108ccb1cab86","","942","
                <div class=""stimulus-container"">
                    <img src=""images/causal_sequence/saving_a_cat_causal/saving_a_cat_causal_2.png"" class=""exp-image"">
                    <div class=""question-area"">
                        <p style=""font-size: 20px; font-weight: bold; margin: 0;"">Is there a person in this image?</p>
                    </div>
                </div>","1","main_experiment_trial","2","saving_a_cat_causal","causal_sequence","","","","",""
"","","","","","html-keyboard-response","84","262553","0.0-84.0","A4F778CCF5D741828F9DB548868075ED","019cf0e5-3ac4-76cd-bfde-20fb8f62a05c","019cf037-5203-781a-b900-108ccb1cab86","","null","
                <div class=""stimulus-container"">
                    <img src=""images/causal_sequence/saving_a_cat_causal/saving_a_cat_causal_3.png"" class=""exp-image"">
                    <div class=""question-area""></div> 
                </div>","null","","","","","","","","",""
"","","","","","html-button-response","85","262928","0.0-85.0","A4F778CCF5D741828F9DB548868075ED","019cf0e5-3ac4-76cd-bfde-20fb8f62a05c","019cf037-5203-781a-b900-108ccb1cab86","","374","
                <div class=""stimulus-container"">
                    <img src=""images/causal_sequence/saving_a_cat_causal/saving_a_cat_causal_3.png"" class=""exp-image"">
                    <div class=""question-area"">
                        <p style=""font-size: 20px; font-weight: bold; margin: 0;"">Is there a person in this image?</p>
                    </div>
                </div>","1","main_experiment_trial","3","saving_a_cat_causal","causal_sequence","","","","",""
"","","","","","html-keyboard-response","86","267931","0.0-86.0","A4F778CCF5D741828F9DB548868075ED","019cf0e5-3ac4-76cd-bfde-20fb8f62a05c","019cf037-5203-781a-b900-108ccb1cab86","","null","
                <div class=""stimulus-container"">
                    <img src=""images/causal_sequence/saving_a_cat_causal/saving_a_cat_causal_4.png"" class=""exp-image"">
                    <div class=""question-area""></div> 
                </div>","null","","","","","","","","",""
"","","","","","html-button-response","87","268369","0.0-87.0","A4F778CCF5D741828F9DB548868075ED","019cf0e5-3ac4-76cd-bfde-20fb8f62a05c","019cf037-5203-781a-b900-108ccb1cab86","","436","
                <div class=""stimulus-container"">
                    <img src=""images/causal_sequence/saving_a_cat_causal/saving_a_cat_causal_4.png"" class=""exp-image"">
                    <div class=""question-area"">
                        <p style=""font-size: 20px; font-weight: bold; margin: 0;"">Is there a person in this image?</p>
                    </div>
                </div>","0","main_experiment_trial","4","saving_a_cat_causal","causal_sequence","","","","",""
"","","","","","html-keyboard-response","88","273372","0.0-88.0","A4F778CCF5D741828F9DB548868075ED","019cf0e5-3ac4-76cd-bfde-20fb8f62a05c","019cf037-5203-781a-b900-108ccb1cab86","","null","
                <div class=""stimulus-container"">
                    <img src=""images/causal_sequence/saving_a_cat_causal/saving_a_cat_causal_5.png"" class=""exp-image"">
                    <div class=""question-area""></div> 
                </div>","null","","","","","","","","",""
"","","","","","html-button-response","89","273827","0.0-89.0","A4F778CCF5D741828F9DB548868075ED","019cf0e5-3ac4-76cd-bfde-20fb8f62a05c","019cf037-5203-781a-b900-108ccb1cab86","","453","
                <div class=""stimulus-container"">
                    <img src=""images/causal_sequence/saving_a_cat_causal/saving_a_cat_causal_5.png"" class=""exp-image"">
                    <div class=""question-area"">
                        <p style=""font-size: 20px; font-weight: bold; margin: 0;"">Is there a person in this image?</p>
                    </div>
                </div>","0","main_experiment_trial","5","saving_a_cat_causal","causal_sequence","","","","",""
"","","","","","html-keyboard-response","90","278845","0.0-90.0","A4F778CCF5D741828F9DB548868075ED","019cf0e5-3ac4-76cd-bfde-20fb8f62a05c","019cf037-5203-781a-b900-108ccb1cab86","","null","
                <div class=""stimulus-container"">
                    <img src=""images/causal_sequence/saving_a_cat_causal/saving_a_cat_causal_6.png"" class=""exp-image"">
                    <div class=""question-area""></div> 
                </div>","null","","","","","","","","",""
"","","","","","html-button-response","91","279575","0.0-91.0","A4F778CCF5D741828F9DB548868075ED","019cf0e5-3ac4-76cd-bfde-20fb8f62a05c","019cf037-5203-781a-b900-108ccb1cab86","","728","
                <div class=""stimulus-container"">
                    <img src=""images/causal_sequence/saving_a_cat_causal/saving_a_cat_causal_6.png"" class=""exp-image"">
                    <div class=""question-area"">
                        <p style=""font-size: 20px; font-weight: bold; margin: 0;"">Is there a person in this image?</p>
                    </div>
                </div>","0","main_experiment_trial","6","saving_a_cat_causal","causal_sequence","","","","",""
"","","","","","html-keyboard-response","92","284585","0.0-92.0","A4F778CCF5D741828F9DB548868075ED","019cf0e5-3ac4-76cd-bfde-20fb8f62a05c","019cf037-5203-781a-b900-108ccb1cab86","","null","
                <div class=""stimulus-container"">
                    <img src=""images/causal_sequence/saving_a_cat_causal/saving_a_cat_causal_7.png"" class=""exp-image"">
                    <div class=""question-area""></div> 
                </div>","null","","","","","","","","",""
"","","","","","html-button-response","93","285106","0.0-93.0","A4F778CCF5D741828F9DB548868075ED","019cf0e5-3ac4-76cd-bfde-20fb8f62a05c","019cf037-5203-781a-b900-108ccb1cab86","","520","
                <div class=""stimulus-container"">
                    <img src=""images/causal_sequence/saving_a_cat_causal/saving_a_cat_causal_7.png"" class=""exp-image"">
                    <div class=""question-area"">
                        <p style=""font-size: 20px; font-weight: bold; margin: 0;"">Is there a person in this image?</p>
                    </div>
                </div>","0","main_experiment_trial","7","saving_a_cat_causal","causal_sequence","","","","",""
"","","","","","html-keyboard-response","94","290112","0.0-94.0","A4F778CCF5D741828F9DB548868075ED","019cf0e5-3ac4-76cd-bfde-20fb8f62a05c","019cf037-5203-781a-b900-108ccb1cab86","","null","
                <div class=""stimulus-container"">
                    <img src=""images/causal_sequence/saving_a_cat_causal/saving_a_cat_causal_8.png"" class=""exp-image"">
                    <div class=""question-area""></div> 
                </div>","null","","","","","","","","",""
"","","","","","html-button-response","95","290507","0.0-95.0","A4F778CCF5D741828F9DB548868075ED","019cf0e5-3ac4-76cd-bfde-20fb8f62a05c","019cf037-5203-781a-b900-108ccb1cab86","","393","
                <div class=""stimulus-container"">
                    <img src=""images/causal_sequence/saving_a_cat_causal/saving_a_cat_causal_8.png"" class=""exp-image"">
                    <div class=""question-area"">
                        <p style=""font-size: 20px; font-weight: bold; margin: 0;"">Is there a person in this image?</p>
                    </div>
                </div>","0","main_experiment_trial","8","saving_a_cat_causal","causal_sequence","","","","",""
"","","","","","html-keyboard-response","96","295515","0.0-96.0","A4F778CCF5D741828F9DB548868075ED","019cf0e5-3ac4-76cd-bfde-20fb8f62a05c","019cf037-5203-781a-b900-108ccb1cab86","","null","
                <div class=""stimulus-container"">
                    <img src=""images/causal_sequence/saving_a_cat_causal/saving_a_cat_causal_9.png"" class=""exp-image"">
                    <div class=""question-area""></div> 
                </div>","null","","","","","","","","",""
"","","","","","html-button-response","97","296112","0.0-97.0","A4F778CCF5D741828F9DB548868075ED","019cf0e5-3ac4-76cd-bfde-20fb8f62a05c","019cf037-5203-781a-b900-108ccb1cab86","","595","
                <div class=""stimulus-container"">
                    <img src=""images/causal_sequence/saving_a_cat_causal/saving_a_cat_causal_9.png"" class=""exp-image"">
                    <div class=""question-area"">
                        <p style=""font-size: 20px; font-weight: bold; margin: 0;"">Is there a person in this image?</p>
                    </div>
                </div>","0","main_experiment_trial","9","saving_a_cat_causal","causal_sequence","","","","",""
"","","","","","html-keyboard-response","98","301119","0.0-98.0","A4F778CCF5D741828F9DB548868075ED","019cf0e5-3ac4-76cd-bfde-20fb8f62a05c","019cf037-5203-781a-b900-108ccb1cab86","","null","
                <div class=""stimulus-container"">
                    <img src=""images/causal_sequence/saving_a_cat_causal/saving_a_cat_causal_ten.png"" class=""exp-image"">
                    <div class=""question-area""></div> 
                </div>","null","","","","","","","","",""
"","","","","","html-button-response","99","301975","0.0-99.0","A4F778CCF5D741828F9DB548868075ED","019cf0e5-3ac4-76cd-bfde-20fb8f62a05c","019cf037-5203-781a-b900-108ccb1cab86","","855","
                <div class=""stimulus-container"">
                    <img src=""images/causal_sequence/saving_a_cat_causal/saving_a_cat_causal_ten.png"" class=""exp-image"">
                    <div class=""question-area"">
                        <p style=""font-size: 20px; font-weight: bold; margin: 0;"">Is there a person in this image?</p>
                    </div>
                </div>","0","main_experiment_trial","ten","saving_a_cat_causal","causal_sequence","","","","",""
"","","","","","html-keyboard-response","100","302980","0.0-100.0","A4F778CCF5D741828F9DB548868075ED","019cf0e5-3ac4-76cd-bfde-20fb8f62a05c","019cf037-5203-781a-b900-108ccb1cab86","","null","<div style=""background-color: white; width: 100vw; height: 100vh;""></div>","null","","","","","","","","",""
"","","","","","html-keyboard-response","101","307994","0.0-101.0","A4F778CCF5D741828F9DB548868075ED","019cf0e5-3ac4-76cd-bfde-20fb8f62a05c","019cf037-5203-781a-b900-108ccb1cab86","","null","
                <div class=""stimulus-container"">
                    <img src=""images/causal_sequence/coin_causal/coin_causal_1.png"" class=""exp-image"">
                    <div class=""question-area""></div> 
                </div>","null","","","","","","","","",""
"","","","","","html-button-response","102","308825","0.0-102.0","A4F778CCF5D741828F9DB548868075ED","019cf0e5-3ac4-76cd-bfde-20fb8f62a05c","019cf037-5203-781a-b900-108ccb1cab86","","829","
                <div class=""stimulus-container"">
                    <img src=""images/causal_sequence/coin_causal/coin_causal_1.png"" class=""exp-image"">
                    <div class=""question-area"">
                        <p style=""font-size: 20px; font-weight: bold; margin: 0;"">Is there a person in this image?</p>
                    </div>
                </div>","0","main_experiment_trial","1","coin_causal","causal_sequence","","","","",""
"","","","","","html-keyboard-response","103","313837","0.0-103.0","A4F778CCF5D741828F9DB548868075ED","019cf0e5-3ac4-76cd-bfde-20fb8f62a05c","019cf037-5203-781a-b900-108ccb1cab86","","null","
                <div class=""stimulus-container"">
                    <img src=""images/causal_sequence/coin_causal/coin_causal_2.png"" class=""exp-image"">
                    <div class=""question-area""></div> 
                </div>","null","","","","","","","","",""
"","","","","","html-button-response","104","314292","0.0-104.0","A4F778CCF5D741828F9DB548868075ED","019cf0e5-3ac4-76cd-bfde-20fb8f62a05c","019cf037-5203-781a-b900-108ccb1cab86","","452","
                <div class=""stimulus-container"">
                    <img src=""images/causal_sequence/coin_causal/coin_causal_2.png"" class=""exp-image"">
                    <div class=""question-area"">
                        <p style=""font-size: 20px; font-weight: bold; margin: 0;"">Is there a person in this image?</p>
                    </div>
                </div>","0","main_experiment_trial","2","coin_causal","causal_sequence","","","","",""
"","","","","","html-keyboard-response","105","319303","0.0-105.0","A4F778CCF5D741828F9DB548868075ED","019cf0e5-3ac4-76cd-bfde-20fb8f62a05c","019cf037-5203-781a-b900-108ccb1cab86","","null","
                <div class=""stimulus-container"">
                    <img src=""images/causal_sequence/coin_causal/coin_causal_3.png"" class=""exp-image"">
                    <div class=""question-area""></div> 
                </div>","null","","","","","","","","",""
"","","","","","html-button-response","106","319892","0.0-106.0","A4F778CCF5D741828F9DB548868075ED","019cf0e5-3ac4-76cd-bfde-20fb8f62a05c","019cf037-5203-781a-b900-108ccb1cab86","","586","
                <div class=""stimulus-container"">
                    <img src=""images/causal_sequence/coin_causal/coin_causal_3.png"" class=""exp-image"">
                    <div class=""question-area"">
                        <p style=""font-size: 20px; font-weight: bold; margin: 0;"">Is there a person in this image?</p>
                    </div>
                </div>","0","main_experiment_trial","3","coin_causal","causal_sequence","","","","",""
"","","","","","html-keyboard-response","107","324900","0.0-107.0","A4F778CCF5D741828F9DB548868075ED","019cf0e5-3ac4-76cd-bfde-20fb8f62a05c","019cf037-5203-781a-b900-108ccb1cab86","","null","
                <div class=""stimulus-container"">
                    <img src=""images/causal_sequence/coin_causal/coin_causal_4.png"" class=""exp-image"">
                    <div class=""question-area""></div> 
                </div>","null","","","","","","","","",""
"","","","","","html-button-response","108","325357","0.0-108.0","A4F778CCF5D741828F9DB548868075ED","019cf0e5-3ac4-76cd-bfde-20fb8f62a05c","019cf037-5203-781a-b900-108ccb1cab86","","455","
                <div class=""stimulus-container"">
                    <img src=""images/causal_sequence/coin_causal/coin_causal_4.png"" class=""exp-image"">
                    <div class=""question-area"">
                        <p style=""font-size: 20px; font-weight: bold; margin: 0;"">Is there a person in this image?</p>
                    </div>
                </div>","0","main_experiment_trial","4","coin_causal","causal_sequence","","","","",""
"","","","","","html-keyboard-response","109","330373","0.0-109.0","A4F778CCF5D741828F9DB548868075ED","019cf0e5-3ac4-76cd-bfde-20fb8f62a05c","019cf037-5203-781a-b900-108ccb1cab86","","null","
                <div class=""stimulus-container"">
                    <img src=""images/causal_sequence/coin_causal/coin_causal_5.png"" class=""exp-image"">
                    <div class=""question-area""></div> 
                </div>","null","","","","","","","","",""
"","","","","","html-button-response","110","330742","0.0-110.0","A4F778CCF5D741828F9DB548868075ED","019cf0e5-3ac4-76cd-bfde-20fb8f62a05c","019cf037-5203-781a-b900-108ccb1cab86","","367","
                <div class=""stimulus-container"">
                    <img src=""images/causal_sequence/coin_causal/coin_causal_5.png"" class=""exp-image"">
                    <div class=""question-area"">
                        <p style=""font-size: 20px; font-weight: bold; margin: 0;"">Is there a person in this image?</p>
                    </div>
                </div>","0","main_experiment_trial","5","coin_causal","causal_sequence","","","","",""
"","","","","","html-keyboard-response","111","335755","0.0-111.0","A4F778CCF5D741828F9DB548868075ED","019cf0e5-3ac4-76cd-bfde-20fb8f62a05c","019cf037-5203-781a-b900-108ccb1cab86","","null","
                <div class=""stimulus-container"">
                    <img src=""images/causal_sequence/coin_causal/coin_causal_6.png"" class=""exp-image"">
                    <div class=""question-area""></div> 
                </div>","null","","","","","","","","",""
"","","","","","html-button-response","112","336210","0.0-112.0","A4F778CCF5D741828F9DB548868075ED","019cf0e5-3ac4-76cd-bfde-20fb8f62a05c","019cf037-5203-781a-b900-108ccb1cab86","","454","
                <div class=""stimulus-container"">
                    <img src=""images/causal_sequence/coin_causal/coin_causal_6.png"" class=""exp-image"">
                    <div class=""question-area"">
                        <p style=""font-size: 20px; font-weight: bold; margin: 0;"">Is there a person in this image?</p>
                    </div>
                </div>","0","main_experiment_trial","6","coin_causal","causal_sequence","","","","",""
"","","","","","html-keyboard-response","113","341214","0.0-113.0","A4F778CCF5D741828F9DB548868075ED","019cf0e5-3ac4-76cd-bfde-20fb8f62a05c","019cf037-5203-781a-b900-108ccb1cab86","","null","
                <div class=""stimulus-container"">
                    <img src=""images/causal_sequence/coin_causal/coin_causal_7.png"" class=""exp-image"">
                    <div class=""question-area""></div> 
                </div>","null","","","","","","","","",""
"","","","","","html-button-response","114","342095","0.0-114.0","A4F778CCF5D741828F9DB548868075ED","019cf0e5-3ac4-76cd-bfde-20fb8f62a05c","019cf037-5203-781a-b900-108ccb1cab86","","880","
                <div class=""stimulus-container"">
                    <img src=""images/causal_sequence/coin_causal/coin_causal_7.png"" class=""exp-image"">
                    <div class=""question-area"">
                        <p style=""font-size: 20px; font-weight: bold; margin: 0;"">Is there a person in this image?</p>
                    </div>
                </div>","1","main_experiment_trial","7","coin_causal","causal_sequence","","","","",""
"","","","","","html-keyboard-response","115","347106","0.0-115.0","A4F778CCF5D741828F9DB548868075ED","019cf0e5-3ac4-76cd-bfde-20fb8f62a05c","019cf037-5203-781a-b900-108ccb1cab86","","null","
                <div class=""stimulus-container"">
                    <img src=""images/causal_sequence/coin_causal/coin_causal_8.png"" class=""exp-image"">
                    <div class=""question-area""></div> 
                </div>","null","","","","","","","","",""
"","","","","","html-button-response","116","347900","0.0-116.0","A4F778CCF5D741828F9DB548868075ED","019cf0e5-3ac4-76cd-bfde-20fb8f62a05c","019cf037-5203-781a-b900-108ccb1cab86","","790","
                <div class=""stimulus-container"">
                    <img src=""images/causal_sequence/coin_causal/coin_causal_8.png"" class=""exp-image"">
                    <div class=""question-area"">
                        <p style=""font-size: 20px; font-weight: bold; margin: 0;"">Is there a person in this image?</p>
                    </div>
                </div>","0","main_experiment_trial","8","coin_causal","causal_sequence","","","","",""
"","","","","","html-keyboard-response","117","352907","0.0-117.0","A4F778CCF5D741828F9DB548868075ED","019cf0e5-3ac4-76cd-bfde-20fb8f62a05c","019cf037-5203-781a-b900-108ccb1cab86","","null","
                <div class=""stimulus-container"">
                    <img src=""images/causal_sequence/coin_causal/coin_causal_9.png"" class=""exp-image"">
                    <div class=""question-area""></div> 
                </div>","null","","","","","","","","",""
"","","","","","html-button-response","118","353545","0.0-118.0","A4F778CCF5D741828F9DB548868075ED","019cf0e5-3ac4-76cd-bfde-20fb8f62a05c","019cf037-5203-781a-b900-108ccb1cab86","","637","
                <div class=""stimulus-container"">
                    <img src=""images/causal_sequence/coin_causal/coin_causal_9.png"" class=""exp-image"">
                    <div class=""question-area"">
                        <p style=""font-size: 20px; font-weight: bold; margin: 0;"">Is there a person in this image?</p>
                    </div>
                </div>","0","main_experiment_trial","9","coin_causal","causal_sequence","","","","",""
"","","","","","html-keyboard-response","119","358547","0.0-119.0","A4F778CCF5D741828F9DB548868075ED","019cf0e5-3ac4-76cd-bfde-20fb8f62a05c","019cf037-5203-781a-b900-108ccb1cab86","","null","
                <div class=""stimulus-container"">
                    <img src=""images/causal_sequence/coin_causal/coin_causal_ten.png"" class=""exp-image"">
                    <div class=""question-area""></div> 
                </div>","null","","","","","","","","",""
"","","","","","html-button-response","120","359825","0.0-120.0","A4F778CCF5D741828F9DB548868075ED","019cf0e5-3ac4-76cd-bfde-20fb8f62a05c","019cf037-5203-781a-b900-108ccb1cab86","","1275","
                <div class=""stimulus-container"">
                    <img src=""images/causal_sequence/coin_causal/coin_causal_ten.png"" class=""exp-image"">
                    <div class=""question-area"">
                        <p style=""font-size: 20px; font-weight: bold; margin: 0;"">Is there a person in this image?</p>
                    </div>
                </div>","0","main_experiment_trial","ten","coin_causal","causal_sequence","","","","",""
"","","","","","html-keyboard-response","121","360834","0.0-121.0","A4F778CCF5D741828F9DB548868075ED","019cf0e5-3ac4-76cd-bfde-20fb8f62a05c","019cf037-5203-781a-b900-108ccb1cab86","","null","<div style=""background-color: white; width: 100vw; height: 100vh;""></div>","null","","","","","","","","",""
"","","","","","html-keyboard-response","122","365839","0.0-122.0","A4F778CCF5D741828F9DB548868075ED","019cf0e5-3ac4-76cd-bfde-20fb8f62a05c","019cf037-5203-781a-b900-108ccb1cab86","","null","
                <div class=""stimulus-container"">
                    <img src=""images/schematic_sequence/dinner_party_scheme/dinner_party_scheme_1.png"" class=""exp-image"">
                    <div class=""question-area""></div> 
                </div>","null","","","","","","","","",""
"","","","","","html-button-response","123","366407","0.0-123.0","A4F778CCF5D741828F9DB548868075ED","019cf0e5-3ac4-76cd-bfde-20fb8f62a05c","019cf037-5203-781a-b900-108ccb1cab86","","565","
                <div class=""stimulus-container"">
                    <img src=""images/schematic_sequence/dinner_party_scheme/dinner_party_scheme_1.png"" class=""exp-image"">
                    <div class=""question-area"">
                        <p style=""font-size: 20px; font-weight: bold; margin: 0;"">Is there a person in this image?</p>
                    </div>
                </div>","1","main_experiment_trial","1","dinner_party_scheme","schematic_sequence","","","","",""
"","","","","","html-keyboard-response","124","371418","0.0-124.0","A4F778CCF5D741828F9DB548868075ED","019cf0e5-3ac4-76cd-bfde-20fb8f62a05c","019cf037-5203-781a-b900-108ccb1cab86","","null","
                <div class=""stimulus-container"">
                    <img src=""images/schematic_sequence/dinner_party_scheme/dinner_party_scheme_2.png"" class=""exp-image"">
                    <div class=""question-area""></div> 
                </div>","null","","","","","","","","",""
"","","","","","html-button-response","125","371929","0.0-125.0","A4F778CCF5D741828F9DB548868075ED","019cf0e5-3ac4-76cd-bfde-20fb8f62a05c","019cf037-5203-781a-b900-108ccb1cab86","","508","
                <div class=""stimulus-container"">
                    <img src=""images/schematic_sequence/dinner_party_scheme/dinner_party_scheme_2.png"" class=""exp-image"">
                    <div class=""question-area"">
                        <p style=""font-size: 20px; font-weight: bold; margin: 0;"">Is there a person in this image?</p>
                    </div>
                </div>","1","main_experiment_trial","2","dinner_party_scheme","schematic_sequence","","","","",""
"","","","","","html-keyboard-response","126","376932","0.0-126.0","A4F778CCF5D741828F9DB548868075ED","019cf0e5-3ac4-76cd-bfde-20fb8f62a05c","019cf037-5203-781a-b900-108ccb1cab86","","null","
                <div class=""stimulus-container"">
                    <img src=""images/schematic_sequence/dinner_party_scheme/dinner_party_scheme_3.png"" class=""exp-image"">
                    <div class=""question-area""></div> 
                </div>","null","","","","","","","","",""
"","","","","","html-button-response","127","377541","0.0-127.0","A4F778CCF5D741828F9DB548868075ED","019cf0e5-3ac4-76cd-bfde-20fb8f62a05c","019cf037-5203-781a-b900-108ccb1cab86","","608","
                <div class=""stimulus-container"">
                    <img src=""images/schematic_sequence/dinner_party_scheme/dinner_party_scheme_3.png"" class=""exp-image"">
                    <div class=""question-area"">
                        <p style=""font-size: 20px; font-weight: bold; margin: 0;"">Is there a person in this image?</p>
                    </div>
                </div>","0","main_experiment_trial","3","dinner_party_scheme","schematic_sequence","","","","",""
"","","","","","html-keyboard-response","128","382555","0.0-128.0","A4F778CCF5D741828F9DB548868075ED","019cf0e5-3ac4-76cd-bfde-20fb8f62a05c","019cf037-5203-781a-b900-108ccb1cab86","","null","
                <div class=""stimulus-container"">
                    <img src=""images/schematic_sequence/dinner_party_scheme/dinner_party_scheme_4.png"" class=""exp-image"">
                    <div class=""question-area""></div> 
                </div>","null","","","","","","","","",""
"","","","","","html-button-response","129","383569","0.0-129.0","A4F778CCF5D741828F9DB548868075ED","019cf0e5-3ac4-76cd-bfde-20fb8f62a05c","019cf037-5203-781a-b900-108ccb1cab86","","1012","
                <div class=""stimulus-container"">
                    <img src=""images/schematic_sequence/dinner_party_scheme/dinner_party_scheme_4.png"" class=""exp-image"">
                    <div class=""question-area"">
                        <p style=""font-size: 20px; font-weight: bold; margin: 0;"">Is there a person in this image?</p>
                    </div>
                </div>","0","main_experiment_trial","4","dinner_party_scheme","schematic_sequence","","","","",""
"","","","","","html-keyboard-response","130","388575","0.0-130.0","A4F778CCF5D741828F9DB548868075ED","019cf0e5-3ac4-76cd-bfde-20fb8f62a05c","019cf037-5203-781a-b900-108ccb1cab86","","null","
                <div class=""stimulus-container"">
                    <img src=""images/schematic_sequence/dinner_party_scheme/dinner_party_scheme_5.png"" class=""exp-image"">
                    <div class=""question-area""></div> 
                </div>","null","","","","","","","","",""
"","","","","","html-button-response","131","389617","0.0-131.0","A4F778CCF5D741828F9DB548868075ED","019cf0e5-3ac4-76cd-bfde-20fb8f62a05c","019cf037-5203-781a-b900-108ccb1cab86","","1040","
                <div class=""stimulus-container"">
                    <img src=""images/schematic_sequence/dinner_party_scheme/dinner_party_scheme_5.png"" class=""exp-image"">
                    <div class=""question-area"">
                        <p style=""font-size: 20px; font-weight: bold; margin: 0;"">Is there a person in this image?</p>
                    </div>
                </div>","1","main_experiment_trial","5","dinner_party_scheme","schematic_sequence","","","","",""
"","","","","","html-keyboard-response","132","394629","0.0-132.0","A4F778CCF5D741828F9DB548868075ED","019cf0e5-3ac4-76cd-bfde-20fb8f62a05c","019cf037-5203-781a-b900-108ccb1cab86","","null","
                <div class=""stimulus-container"">
                    <img src=""images/schematic_sequence/dinner_party_scheme/dinner_party_scheme_6.png"" class=""exp-image"">
                    <div class=""question-area""></div> 
                </div>","null","","","","","","","","",""
"","","","","","html-button-response","133","395292","0.0-133.0","A4F778CCF5D741828F9DB548868075ED","019cf0e5-3ac4-76cd-bfde-20fb8f62a05c","019cf037-5203-781a-b900-108ccb1cab86","","661","
                <div class=""stimulus-container"">
                    <img src=""images/schematic_sequence/dinner_party_scheme/dinner_party_scheme_6.png"" class=""exp-image"">
                    <div class=""question-area"">
                        <p style=""font-size: 20px; font-weight: bold; margin: 0;"">Is there a person in this image?</p>
                    </div>
                </div>","0","main_experiment_trial","6","dinner_party_scheme","schematic_sequence","","","","",""
"","","","","","html-keyboard-response","134","400294","0.0-134.0","A4F778CCF5D741828F9DB548868075ED","019cf0e5-3ac4-76cd-bfde-20fb8f62a05c","019cf037-5203-781a-b900-108ccb1cab86","","null","
                <div class=""stimulus-container"">
                    <img src=""images/schematic_sequence/dinner_party_scheme/dinner_party_scheme_7.png"" class=""exp-image"">
                    <div class=""question-area""></div> 
                </div>","null","","","","","","","","",""
"","","","","","html-button-response","135","403302","0.0-135.0","A4F778CCF5D741828F9DB548868075ED","019cf0e5-3ac4-76cd-bfde-20fb8f62a05c","019cf037-5203-781a-b900-108ccb1cab86","","null","
                <div class=""stimulus-container"">
                    <img src=""images/schematic_sequence/dinner_party_scheme/dinner_party_scheme_7.png"" class=""exp-image"">
                    <div class=""question-area"">
                        <p style=""font-size: 20px; font-weight: bold; margin: 0;"">Is there a person in this image?</p>
                    </div>
                </div>","null","main_experiment_trial","7","dinner_party_scheme","schematic_sequence","","","","",""
"","","","","","html-keyboard-response","136","408313","0.0-136.0","A4F778CCF5D741828F9DB548868075ED","019cf0e5-3ac4-76cd-bfde-20fb8f62a05c","019cf037-5203-781a-b900-108ccb1cab86","","null","
                <div class=""stimulus-container"">
                    <img src=""images/schematic_sequence/dinner_party_scheme/dinner_party_scheme_8.png"" class=""exp-image"">
                    <div class=""question-area""></div> 
                </div>","null","","","","","","","","",""
"","","","","","html-button-response","137","410374","0.0-137.0","A4F778CCF5D741828F9DB548868075ED","019cf0e5-3ac4-76cd-bfde-20fb8f62a05c","019cf037-5203-781a-b900-108ccb1cab86","","2058","
                <div class=""stimulus-container"">
                    <img src=""images/schematic_sequence/dinner_party_scheme/dinner_party_scheme_8.png"" class=""exp-image"">
                    <div class=""question-area"">
                        <p style=""font-size: 20px; font-weight: bold; margin: 0;"">Is there a person in this image?</p>
                    </div>
                </div>","0","main_experiment_trial","8","dinner_party_scheme","schematic_sequence","","","","",""
"","","","","","html-keyboard-response","138","415381","0.0-138.0","A4F778CCF5D741828F9DB548868075ED","019cf0e5-3ac4-76cd-bfde-20fb8f62a05c","019cf037-5203-781a-b900-108ccb1cab86","","null","
                <div class=""stimulus-container"">
                    <img src=""images/schematic_sequence/dinner_party_scheme/dinner_party_scheme_9.png"" class=""exp-image"">
                    <div class=""question-area""></div> 
                </div>","null","","","","","","","","",""
"","","","","","html-button-response","139","416114","0.0-139.0","A4F778CCF5D741828F9DB548868075ED","019cf0e5-3ac4-76cd-bfde-20fb8f62a05c","019cf037-5203-781a-b900-108ccb1cab86","","731","
                <div class=""stimulus-container"">
                    <img src=""images/schematic_sequence/dinner_party_scheme/dinner_party_scheme_9.png"" class=""exp-image"">
                    <div class=""question-area"">
                        <p style=""font-size: 20px; font-weight: bold; margin: 0;"">Is there a person in this image?</p>
                    </div>
                </div>","0","main_experiment_trial","9","dinner_party_scheme","schematic_sequence","","","","",""
"","","","","","html-keyboard-response","140","421122","0.0-140.0","A4F778CCF5D741828F9DB548868075ED","019cf0e5-3ac4-76cd-bfde-20fb8f62a05c","019cf037-5203-781a-b900-108ccb1cab86","","null","
                <div class=""stimulus-container"">
                    <img src=""images/schematic_sequence/dinner_party_scheme/dinner_party_scheme_ten.png"" class=""exp-image"">
                    <div class=""question-area""></div> 
                </div>","null","","","","","","","","",""
"","","","","","html-button-response","141","421782","0.0-141.0","A4F778CCF5D741828F9DB548868075ED","019cf0e5-3ac4-76cd-bfde-20fb8f62a05c","019cf037-5203-781a-b900-108ccb1cab86","","659","
                <div class=""stimulus-container"">
                    <img src=""images/schematic_sequence/dinner_party_scheme/dinner_party_scheme_ten.png"" class=""exp-image"">
                    <div class=""question-area"">
                        <p style=""font-size: 20px; font-weight: bold; margin: 0;"">Is there a person in this image?</p>
                    </div>
                </div>","0","main_experiment_trial","ten","dinner_party_scheme","schematic_sequence","","","","",""
"","","","","","html-keyboard-response","142","422786","0.0-142.0","A4F778CCF5D741828F9DB548868075ED","019cf0e5-3ac4-76cd-bfde-20fb8f62a05c","019cf037-5203-781a-b900-108ccb1cab86","","null","<div style=""background-color: white; width: 100vw; height: 100vh;""></div>","null","","","","","","","","",""
"","","","","","html-keyboard-response","143","427792","0.0-143.0","A4F778CCF5D741828F9DB548868075ED","019cf0e5-3ac4-76cd-bfde-20fb8f62a05c","019cf037-5203-781a-b900-108ccb1cab86","","null","
                <div class=""stimulus-container"">
                    <img src=""images/causal_sequence/dog_causal/dog_causal_1.png"" class=""exp-image"">
                    <div class=""question-area""></div> 
                </div>","null","","","","","","","","",""
"","","","","","html-button-response","144","429730","0.0-144.0","A4F778CCF5D741828F9DB548868075ED","019cf0e5-3ac4-76cd-bfde-20fb8f62a05c","019cf037-5203-781a-b900-108ccb1cab86","","1936","
                <div class=""stimulus-container"">
                    <img src=""images/causal_sequence/dog_causal/dog_causal_1.png"" class=""exp-image"">
                    <div class=""question-area"">
                        <p style=""font-size: 20px; font-weight: bold; margin: 0;"">Is there a person in this image?</p>
                    </div>
                </div>","0","main_experiment_trial","1","dog_causal","causal_sequence","","","","",""
"","","","","","html-keyboard-response","145","434738","0.0-145.0","A4F778CCF5D741828F9DB548868075ED","019cf0e5-3ac4-76cd-bfde-20fb8f62a05c","019cf037-5203-781a-b900-108ccb1cab86","","null","
                <div class=""stimulus-container"">
                    <img src=""images/causal_sequence/dog_causal/dog_causal_2.png"" class=""exp-image"">
                    <div class=""question-area""></div> 
                </div>","null","","","","","","","","",""
"","","","","","html-button-response","146","435618","0.0-146.0","A4F778CCF5D741828F9DB548868075ED","019cf0e5-3ac4-76cd-bfde-20fb8f62a05c","019cf037-5203-781a-b900-108ccb1cab86","","879","
                <div class=""stimulus-container"">
                    <img src=""images/causal_sequence/dog_causal/dog_causal_2.png"" class=""exp-image"">
                    <div class=""question-area"">
                        <p style=""font-size: 20px; font-weight: bold; margin: 0;"">Is there a person in this image?</p>
                    </div>
                </div>","0","main_experiment_trial","2","dog_causal","causal_sequence","","","","",""
"","","","","","html-keyboard-response","147","440625","0.0-147.0","A4F778CCF5D741828F9DB548868075ED","019cf0e5-3ac4-76cd-bfde-20fb8f62a05c","019cf037-5203-781a-b900-108ccb1cab86","","null","
                <div class=""stimulus-container"">
                    <img src=""images/causal_sequence/dog_causal/dog_causal_3.png"" class=""exp-image"">
                    <div class=""question-area""></div> 
                </div>","null","","","","","","","","",""
"","","","","","html-button-response","148","441314","0.0-148.0","A4F778CCF5D741828F9DB548868075ED","019cf0e5-3ac4-76cd-bfde-20fb8f62a05c","019cf037-5203-781a-b900-108ccb1cab86","","689","
                <div class=""stimulus-container"">
                    <img src=""images/causal_sequence/dog_causal/dog_causal_3.png"" class=""exp-image"">
                    <div class=""question-area"">
                        <p style=""font-size: 20px; font-weight: bold; margin: 0;"">Is there a person in this image?</p>
                    </div>
                </div>","0","main_experiment_trial","3","dog_causal","causal_sequence","","","","",""
"","","","","","html-keyboard-response","149","446320","0.0-149.0","A4F778CCF5D741828F9DB548868075ED","019cf0e5-3ac4-76cd-bfde-20fb8f62a05c","019cf037-5203-781a-b900-108ccb1cab86","","null","
                <div class=""stimulus-container"">
                    <img src=""images/causal_sequence/dog_causal/dog_causal_4.png"" class=""exp-image"">
                    <div class=""question-area""></div> 
                </div>","null","","","","","","","","",""
"","","","","","html-button-response","150","447304","0.0-150.0","A4F778CCF5D741828F9DB548868075ED","019cf0e5-3ac4-76cd-bfde-20fb8f62a05c","019cf037-5203-781a-b900-108ccb1cab86","","983","
                <div class=""stimulus-container"">
                    <img src=""images/causal_sequence/dog_causal/dog_causal_4.png"" class=""exp-image"">
                    <div class=""question-area"">
                        <p style=""font-size: 20px; font-weight: bold; margin: 0;"">Is there a person in this image?</p>
                    </div>
                </div>","0","main_experiment_trial","4","dog_causal","causal_sequence","","","","",""
"","","","","","html-keyboard-response","151","452322","0.0-151.0","A4F778CCF5D741828F9DB548868075ED","019cf0e5-3ac4-76cd-bfde-20fb8f62a05c","019cf037-5203-781a-b900-108ccb1cab86","","null","
                <div class=""stimulus-container"">
                    <img src=""images/causal_sequence/dog_causal/dog_causal_5.png"" class=""exp-image"">
                    <div class=""question-area""></div> 
                </div>","null","","","","","","","","",""
"","","","","","html-button-response","152","452948","0.0-152.0","A4F778CCF5D741828F9DB548868075ED","019cf0e5-3ac4-76cd-bfde-20fb8f62a05c","019cf037-5203-781a-b900-108ccb1cab86","","624","
                <div class=""stimulus-container"">
                    <img src=""images/causal_sequence/dog_causal/dog_causal_5.png"" class=""exp-image"">
                    <div class=""question-area"">
                        <p style=""font-size: 20px; font-weight: bold; margin: 0;"">Is there a person in this image?</p>
                    </div>
                </div>","0","main_experiment_trial","5","dog_causal","causal_sequence","","","","",""
"","","","","","html-keyboard-response","153","457952","0.0-153.0","A4F778CCF5D741828F9DB548868075ED","019cf0e5-3ac4-76cd-bfde-20fb8f62a05c","019cf037-5203-781a-b900-108ccb1cab86","","null","
                <div class=""stimulus-container"">
                    <img src=""images/causal_sequence/dog_causal/dog_causal_6.png"" class=""exp-image"">
                    <div class=""question-area""></div> 
                </div>","null","","","","","","","","",""
"","","","","","html-button-response","154","458511","0.0-154.0","A4F778CCF5D741828F9DB548868075ED","019cf0e5-3ac4-76cd-bfde-20fb8f62a05c","019cf037-5203-781a-b900-108ccb1cab86","","555","
                <div class=""stimulus-container"">
                    <img src=""images/causal_sequence/dog_causal/dog_causal_6.png"" class=""exp-image"">
                    <div class=""question-area"">
                        <p style=""font-size: 20px; font-weight: bold; margin: 0;"">Is there a person in this image?</p>
                    </div>
                </div>","0","main_experiment_trial","6","dog_causal","causal_sequence","","","","",""
"","","","","","html-keyboard-response","155","463524","0.0-155.0","A4F778CCF5D741828F9DB548868075ED","019cf0e5-3ac4-76cd-bfde-20fb8f62a05c","019cf037-5203-781a-b900-108ccb1cab86","","null","
                <div class=""stimulus-container"">
                    <img src=""images/causal_sequence/dog_causal/dog_causal_7.png"" class=""exp-image"">
                    <div class=""question-area""></div> 
                </div>","null","","","","","","","","",""
"","","","","","html-button-response","156","464074","0.0-156.0","A4F778CCF5D741828F9DB548868075ED","019cf0e5-3ac4-76cd-bfde-20fb8f62a05c","019cf037-5203-781a-b900-108ccb1cab86","","548","
                <div class=""stimulus-container"">
                    <img src=""images/causal_sequence/dog_causal/dog_causal_7.png"" class=""exp-image"">
                    <div class=""question-area"">
                        <p style=""font-size: 20px; font-weight: bold; margin: 0;"">Is there a person in this image?</p>
                    </div>
                </div>","0","main_experiment_trial","7","dog_causal","causal_sequence","","","","",""
"","","","","","html-keyboard-response","157","469076","0.0-157.0","A4F778CCF5D741828F9DB548868075ED","019cf0e5-3ac4-76cd-bfde-20fb8f62a05c","019cf037-5203-781a-b900-108ccb1cab86","","null","
                <div class=""stimulus-container"">
                    <img src=""images/causal_sequence/dog_causal/dog_causal_8.png"" class=""exp-image"">
                    <div class=""question-area""></div> 
                </div>","null","","","","","","","","",""
"","","","","","html-button-response","158","469693","0.0-158.0","A4F778CCF5D741828F9DB548868075ED","019cf0e5-3ac4-76cd-bfde-20fb8f62a05c","019cf037-5203-781a-b900-108ccb1cab86","","614","
                <div class=""stimulus-container"">
                    <img src=""images/causal_sequence/dog_causal/dog_causal_8.png"" class=""exp-image"">
                    <div class=""question-area"">
                        <p style=""font-size: 20px; font-weight: bold; margin: 0;"">Is there a person in this image?</p>
                    </div>
                </div>","0","main_experiment_trial","8","dog_causal","causal_sequence","","","","",""
"","","","","","html-keyboard-response","159","474703","0.0-159.0","A4F778CCF5D741828F9DB548868075ED","019cf0e5-3ac4-76cd-bfde-20fb8f62a05c","019cf037-5203-781a-b900-108ccb1cab86","","null","
                <div class=""stimulus-container"">
                    <img src=""images/causal_sequence/dog_causal/dog_causal_9.png"" class=""exp-image"">
                    <div class=""question-area""></div> 
                </div>","null","","","","","","","","",""
"","","","","","html-button-response","160","475140","0.0-160.0","A4F778CCF5D741828F9DB548868075ED","019cf0e5-3ac4-76cd-bfde-20fb8f62a05c","019cf037-5203-781a-b900-108ccb1cab86","","434","
                <div class=""stimulus-container"">
                    <img src=""images/causal_sequence/dog_causal/dog_causal_9.png"" class=""exp-image"">
                    <div class=""question-area"">
                        <p style=""font-size: 20px; font-weight: bold; margin: 0;"">Is there a person in this image?</p>
                    </div>
                </div>","0","main_experiment_trial","9","dog_causal","causal_sequence","","","","",""
"","","","","","html-keyboard-response","161","480157","0.0-161.0","A4F778CCF5D741828F9DB548868075ED","019cf0e5-3ac4-76cd-bfde-20fb8f62a05c","019cf037-5203-781a-b900-108ccb1cab86","","null","
                <div class=""stimulus-container"">
                    <img src=""images/causal_sequence/dog_causal/dog_causal_ten.png"" class=""exp-image"">
                    <div class=""question-area""></div> 
                </div>","null","","","","","","","","",""
"","","","","","html-button-response","162","480734","0.0-162.0","A4F778CCF5D741828F9DB548868075ED","019cf0e5-3ac4-76cd-bfde-20fb8f62a05c","019cf037-5203-781a-b900-108ccb1cab86","","575","
                <div class=""stimulus-container"">
                    <img src=""images/causal_sequence/dog_causal/dog_causal_ten.png"" class=""exp-image"">
                    <div class=""question-area"">
                        <p style=""font-size: 20px; font-weight: bold; margin: 0;"">Is there a person in this image?</p>
                    </div>
                </div>","0","main_experiment_trial","ten","dog_causal","causal_sequence","","","","",""
"","","","","","html-keyboard-response","163","481752","0.0-163.0","A4F778CCF5D741828F9DB548868075ED","019cf0e5-3ac4-76cd-bfde-20fb8f62a05c","019cf037-5203-781a-b900-108ccb1cab86","","null","<div style=""background-color: white; width: 100vw; height: 100vh;""></div>","null","","","","","","","","",""
"","","","","","html-keyboard-response","164","486756","0.0-164.0","A4F778CCF5D741828F9DB548868075ED","019cf0e5-3ac4-76cd-bfde-20fb8f62a05c","019cf037-5203-781a-b900-108ccb1cab86","","null","
                <div class=""stimulus-container"">
                    <img src=""images/schematic_sequence/supermarket_scheme/supermarket_scheme_1.png"" class=""exp-image"">
                    <div class=""question-area""></div> 
                </div>","null","","","","","","","","",""
"","","","","","html-button-response","165","487601","0.0-165.0","A4F778CCF5D741828F9DB548868075ED","019cf0e5-3ac4-76cd-bfde-20fb8f62a05c","019cf037-5203-781a-b900-108ccb1cab86","","844","
                <div class=""stimulus-container"">
                    <img src=""images/schematic_sequence/supermarket_scheme/supermarket_scheme_1.png"" class=""exp-image"">
                    <div class=""question-area"">
                        <p style=""font-size: 20px; font-weight: bold; margin: 0;"">Is there a person in this image?</p>
                    </div>
                </div>","1","main_experiment_trial","1","supermarket_scheme","schematic_sequence","","","","",""
"","","","","","html-keyboard-response","166","492604","0.0-166.0","A4F778CCF5D741828F9DB548868075ED","019cf0e5-3ac4-76cd-bfde-20fb8f62a05c","019cf037-5203-781a-b900-108ccb1cab86","","null","
                <div class=""stimulus-container"">
                    <img src=""images/schematic_sequence/supermarket_scheme/supermarket_scheme_2.png"" class=""exp-image"">
                    <div class=""question-area""></div> 
                </div>","null","","","","","","","","",""
"","","","","","html-button-response","167","493059","0.0-167.0","A4F778CCF5D741828F9DB548868075ED","019cf0e5-3ac4-76cd-bfde-20fb8f62a05c","019cf037-5203-781a-b900-108ccb1cab86","","453","
                <div class=""stimulus-container"">
                    <img src=""images/schematic_sequence/supermarket_scheme/supermarket_scheme_2.png"" class=""exp-image"">
                    <div class=""question-area"">
                        <p style=""font-size: 20px; font-weight: bold; margin: 0;"">Is there a person in this image?</p>
                    </div>
                </div>","1","main_experiment_trial","2","supermarket_scheme","schematic_sequence","","","","",""
"","","","","","html-keyboard-response","168","498063","0.0-168.0","A4F778CCF5D741828F9DB548868075ED","019cf0e5-3ac4-76cd-bfde-20fb8f62a05c","019cf037-5203-781a-b900-108ccb1cab86","","null","
                <div class=""stimulus-container"">
                    <img src=""images/schematic_sequence/supermarket_scheme/supermarket_scheme_3.png"" class=""exp-image"">
                    <div class=""question-area""></div> 
                </div>","null","","","","","","","","",""
"","","","","","html-button-response","169","498693","0.0-169.0","A4F778CCF5D741828F9DB548868075ED","019cf0e5-3ac4-76cd-bfde-20fb8f62a05c","019cf037-5203-781a-b900-108ccb1cab86","","628","
                <div class=""stimulus-container"">
                    <img src=""images/schematic_sequence/supermarket_scheme/supermarket_scheme_3.png"" class=""exp-image"">
                    <div class=""question-area"">
                        <p style=""font-size: 20px; font-weight: bold; margin: 0;"">Is there a person in this image?</p>
                    </div>
                </div>","1","main_experiment_trial","3","supermarket_scheme","schematic_sequence","","","","",""
"","","","","","html-keyboard-response","170","503698","0.0-170.0","A4F778CCF5D741828F9DB548868075ED","019cf0e5-3ac4-76cd-bfde-20fb8f62a05c","019cf037-5203-781a-b900-108ccb1cab86","","null","
                <div class=""stimulus-container"">
                    <img src=""images/schematic_sequence/supermarket_scheme/supermarket_scheme_4.png"" class=""exp-image"">
                    <div class=""question-area""></div> 
                </div>","null","","","","","","","","",""
"","","","","","html-button-response","171","504342","0.0-171.0","A4F778CCF5D741828F9DB548868075ED","019cf0e5-3ac4-76cd-bfde-20fb8f62a05c","019cf037-5203-781a-b900-108ccb1cab86","","641","
                <div class=""stimulus-container"">
                    <img src=""images/schematic_sequence/supermarket_scheme/supermarket_scheme_4.png"" class=""exp-image"">
                    <div class=""question-area"">
                        <p style=""font-size: 20px; font-weight: bold; margin: 0;"">Is there a person in this image?</p>
                    </div>
                </div>","0","main_experiment_trial","4","supermarket_scheme","schematic_sequence","","","","",""
"","","","","","html-keyboard-response","172","509358","0.0-172.0","A4F778CCF5D741828F9DB548868075ED","019cf0e5-3ac4-76cd-bfde-20fb8f62a05c","019cf037-5203-781a-b900-108ccb1cab86","","null","
                <div class=""stimulus-container"">
                    <img src=""images/schematic_sequence/supermarket_scheme/supermarket_scheme_5.png"" class=""exp-image"">
                    <div class=""question-area""></div> 
                </div>","null","","","","","","","","",""
"","","","","","html-button-response","173","509872","0.0-173.0","A4F778CCF5D741828F9DB548868075ED","019cf0e5-3ac4-76cd-bfde-20fb8f62a05c","019cf037-5203-781a-b900-108ccb1cab86","","513","
                <div class=""stimulus-container"">
                    <img src=""images/schematic_sequence/supermarket_scheme/supermarket_scheme_5.png"" class=""exp-image"">
                    <div class=""question-area"">
                        <p style=""font-size: 20px; font-weight: bold; margin: 0;"">Is there a person in this image?</p>
                    </div>
                </div>","1","main_experiment_trial","5","supermarket_scheme","schematic_sequence","","","","",""
"","","","","","html-keyboard-response","174","514887","0.0-174.0","A4F778CCF5D741828F9DB548868075ED","019cf0e5-3ac4-76cd-bfde-20fb8f62a05c","019cf037-5203-781a-b900-108ccb1cab86","","null","
                <div class=""stimulus-container"">
                    <img src=""images/schematic_sequence/supermarket_scheme/supermarket_scheme_6.png"" class=""exp-image"">
                    <div class=""question-area""></div> 
                </div>","null","","","","","","","","",""
"","","","","","html-button-response","175","517896","0.0-175.0","A4F778CCF5D741828F9DB548868075ED","019cf0e5-3ac4-76cd-bfde-20fb8f62a05c","019cf037-5203-781a-b900-108ccb1cab86","","null","
                <div class=""stimulus-container"">
                    <img src=""images/schematic_sequence/supermarket_scheme/supermarket_scheme_6.png"" class=""exp-image"">
                    <div class=""question-area"">
                        <p style=""font-size: 20px; font-weight: bold; margin: 0;"">Is there a person in this image?</p>
                    </div>
                </div>","null","main_experiment_trial","6","supermarket_scheme","schematic_sequence","","","","",""
"","","","","","html-keyboard-response","176","522911","0.0-176.0","A4F778CCF5D741828F9DB548868075ED","019cf0e5-3ac4-76cd-bfde-20fb8f62a05c","019cf037-5203-781a-b900-108ccb1cab86","","null","
                <div class=""stimulus-container"">
                    <img src=""images/schematic_sequence/supermarket_scheme/supermarket_scheme_7.png"" class=""exp-image"">
                    <div class=""question-area""></div> 
                </div>","null","","","","","","","","",""
"","","","","","html-button-response","177","523786","0.0-177.0","A4F778CCF5D741828F9DB548868075ED","019cf0e5-3ac4-76cd-bfde-20fb8f62a05c","019cf037-5203-781a-b900-108ccb1cab86","","872","
                <div class=""stimulus-container"">
                    <img src=""images/schematic_sequence/supermarket_scheme/supermarket_scheme_7.png"" class=""exp-image"">
                    <div class=""question-area"">
                        <p style=""font-size: 20px; font-weight: bold; margin: 0;"">Is there a person in this image?</p>
                    </div>
                </div>","0","main_experiment_trial","7","supermarket_scheme","schematic_sequence","","","","",""
"","","","","","html-keyboard-response","178","528794","0.0-178.0","A4F778CCF5D741828F9DB548868075ED","019cf0e5-3ac4-76cd-bfde-20fb8f62a05c","019cf037-5203-781a-b900-108ccb1cab86","","null","
                <div class=""stimulus-container"">
                    <img src=""images/schematic_sequence/supermarket_scheme/supermarket_scheme_8.png"" class=""exp-image"">
                    <div class=""question-area""></div> 
                </div>","null","","","","","","","","",""
"","","","","","html-button-response","179","529726","0.0-179.0","A4F778CCF5D741828F9DB548868075ED","019cf0e5-3ac4-76cd-bfde-20fb8f62a05c","019cf037-5203-781a-b900-108ccb1cab86","","929","
                <div class=""stimulus-container"">
                    <img src=""images/schematic_sequence/supermarket_scheme/supermarket_scheme_8.png"" class=""exp-image"">
                    <div class=""question-area"">
                        <p style=""font-size: 20px; font-weight: bold; margin: 0;"">Is there a person in this image?</p>
                    </div>
                </div>","0","main_experiment_trial","8","supermarket_scheme","schematic_sequence","","","","",""
"","","","","","html-keyboard-response","180","534733","0.0-180.0","A4F778CCF5D741828F9DB548868075ED","019cf0e5-3ac4-76cd-bfde-20fb8f62a05c","019cf037-5203-781a-b900-108ccb1cab86","","null","
                <div class=""stimulus-container"">
                    <img src=""images/schematic_sequence/supermarket_scheme/supermarket_scheme_9.png"" class=""exp-image"">
                    <div class=""question-area""></div> 
                </div>","null","","","","","","","","",""
"","","","","","html-button-response","181","535652","0.0-181.0","A4F778CCF5D741828F9DB548868075ED","019cf0e5-3ac4-76cd-bfde-20fb8f62a05c","019cf037-5203-781a-b900-108ccb1cab86","","917","
                <div class=""stimulus-container"">
                    <img src=""images/schematic_sequence/supermarket_scheme/supermarket_scheme_9.png"" class=""exp-image"">
                    <div class=""question-area"">
                        <p style=""font-size: 20px; font-weight: bold; margin: 0;"">Is there a person in this image?</p>
                    </div>
                </div>","0","main_experiment_trial","9","supermarket_scheme","schematic_sequence","","","","",""
"","","","","","html-keyboard-response","182","540667","0.0-182.0","A4F778CCF5D741828F9DB548868075ED","019cf0e5-3ac4-76cd-bfde-20fb8f62a05c","019cf037-5203-781a-b900-108ccb1cab86","","null","
                <div class=""stimulus-container"">
                    <img src=""images/schematic_sequence/supermarket_scheme/supermarket_scheme_ten.png"" class=""exp-image"">
                    <div class=""question-area""></div> 
                </div>","null","","","","","","","","",""
"","","","","","html-button-response","183","541266","0.0-183.0","A4F778CCF5D741828F9DB548868075ED","019cf0e5-3ac4-76cd-bfde-20fb8f62a05c","019cf037-5203-781a-b900-108ccb1cab86","","597","
                <div class=""stimulus-container"">
                    <img src=""images/schematic_sequence/supermarket_scheme/supermarket_scheme_ten.png"" class=""exp-image"">
                    <div class=""question-area"">
                        <p style=""font-size: 20px; font-weight: bold; margin: 0;"">Is there a person in this image?</p>
                    </div>
                </div>","1","main_experiment_trial","ten","supermarket_scheme","schematic_sequence","","","","",""
