"success","timeout","failed_images","failed_audio","failed_video","trial_type","trial_index","time_elapsed","internal_node_id","subject_id","study_id","session_id","view_history","rt","stimulus","response","task","image_index","folder","sequence_type","presentation_order","valuable_image_index","reward_type","correct_choice","distance_from_x","target_X","chosen_image_index","is_x_plus_dist"
"true","false","[]","[]","[]","preload","0","1563","0.0-0.0","7E960798CC674DBD9E28A300CE3419EB","019d6b11-e54d-7299-81b6-d39499d84b84","019d6ae6-5d89-74c6-b581-3918d1816346","","","","","","","","","","","","","","","",""
"","","","","","instructions","1","3675","0.0-1.0","7E960798CC674DBD9E28A300CE3419EB","019d6b11-e54d-7299-81b6-d39499d84b84","019d6ae6-5d89-74c6-b581-3918d1816346","[{""page_index"":0,""viewing_time"":2111}]","2111","","","","","","","","","","","","","",""
"","","","","","instructions","2","5652","0.0-2.0","7E960798CC674DBD9E28A300CE3419EB","019d6b11-e54d-7299-81b6-d39499d84b84","019d6ae6-5d89-74c6-b581-3918d1816346","[{""page_index"":0,""viewing_time"":1976}]","1977","","","","","","","","","","","","","",""
"true","","","","","fullscreen","3","15605","0.0-3.0","7E960798CC674DBD9E28A300CE3419EB","019d6b11-e54d-7299-81b6-d39499d84b84","019d6ae6-5d89-74c6-b581-3918d1816346","","8943","","","","","","","","","","","","","",""
"","","","","","instructions","4","404005","0.0-4.0","7E960798CC674DBD9E28A300CE3419EB","019d6b11-e54d-7299-81b6-d39499d84b84","019d6ae6-5d89-74c6-b581-3918d1816346","[{""page_index"":0,""viewing_time"":388399}]","388399","","","","","","","","","","","","","",""
"","","","","","instructions","5","410834","0.0-5.0","7E960798CC674DBD9E28A300CE3419EB","019d6b11-e54d-7299-81b6-d39499d84b84","019d6ae6-5d89-74c6-b581-3918d1816346","[{""page_index"":0,""viewing_time"":6828}]","6828","","","","","","","","","","","","","",""
"","","","","","html-keyboard-response","6","414836","0.0-6.0","7E960798CC674DBD9E28A300CE3419EB","019d6b11-e54d-7299-81b6-d39499d84b84","019d6ae6-5d89-74c6-b581-3918d1816346","","null","
            <div class=""stimulus-container"">
                <img src=""images/instructions/movie_1.png"" class=""exp-image"">
                <div class=""question-area""></div> 
            </div>","null","","","","","","","","","","","",""
"","","","","","html-button-response","7","416693","0.0-7.0","7E960798CC674DBD9E28A300CE3419EB","019d6b11-e54d-7299-81b6-d39499d84b84","019d6ae6-5d89-74c6-b581-3918d1816346","","1856","
            <div class=""stimulus-container"">
                <img src=""images/instructions/movie_1.png"" class=""exp-image"">
                <div class=""question-area"">
                    <p style=""font-size: 20px; font-weight: bold; margin: 0;"">Was there a person in this image?</p>
                </div>
            </div>","0","example_question","1","","","","","","","","","",""
"","","","","","html-keyboard-response","8","420704","0.0-8.0","7E960798CC674DBD9E28A300CE3419EB","019d6b11-e54d-7299-81b6-d39499d84b84","019d6ae6-5d89-74c6-b581-3918d1816346","","null","
            <div class=""stimulus-container"">
                <img src=""images/instructions/movie_2.png"" class=""exp-image"">
                <div class=""question-area""></div> 
            </div>","null","","","","","","","","","","","",""
"","","","","","html-button-response","9","422088","0.0-9.0","7E960798CC674DBD9E28A300CE3419EB","019d6b11-e54d-7299-81b6-d39499d84b84","019d6ae6-5d89-74c6-b581-3918d1816346","","1383","
            <div class=""stimulus-container"">
                <img src=""images/instructions/movie_2.png"" class=""exp-image"">
                <div class=""question-area"">
                    <p style=""font-size: 20px; font-weight: bold; margin: 0;"">Was there a person in this image?</p>
                </div>
            </div>","0","example_question","2","","","","","","","","","",""
"","","","","","html-keyboard-response","10","426103","0.0-10.0","7E960798CC674DBD9E28A300CE3419EB","019d6b11-e54d-7299-81b6-d39499d84b84","019d6ae6-5d89-74c6-b581-3918d1816346","","null","
            <div class=""stimulus-container"">
                <img src=""images/instructions/movie_3.png"" class=""exp-image"">
                <div class=""question-area""></div> 
            </div>","null","","","","","","","","","","","",""
"","","","","","html-button-response","11","426847","0.0-11.0","7E960798CC674DBD9E28A300CE3419EB","019d6b11-e54d-7299-81b6-d39499d84b84","019d6ae6-5d89-74c6-b581-3918d1816346","","743","
            <div class=""stimulus-container"">
                <img src=""images/instructions/movie_3.png"" class=""exp-image"">
                <div class=""question-area"">
                    <p style=""font-size: 20px; font-weight: bold; margin: 0;"">Was there a person in this image?</p>
                </div>
            </div>","0","example_question","3","","","","","","","","","",""
"","","","","","html-keyboard-response","12","430853","0.0-12.0","7E960798CC674DBD9E28A300CE3419EB","019d6b11-e54d-7299-81b6-d39499d84b84","019d6ae6-5d89-74c6-b581-3918d1816346","","null","
            <div class=""stimulus-container"">
                <img src=""images/instructions/movie_4.png"" class=""exp-image"">
                <div class=""question-area""></div> 
            </div>","null","","","","","","","","","","","",""
"","","","","","html-button-response","13","432001","0.0-13.0","7E960798CC674DBD9E28A300CE3419EB","019d6b11-e54d-7299-81b6-d39499d84b84","019d6ae6-5d89-74c6-b581-3918d1816346","","1148","
            <div class=""stimulus-container"">
                <img src=""images/instructions/movie_4.png"" class=""exp-image"">
                <div class=""question-area"">
                    <p style=""font-size: 20px; font-weight: bold; margin: 0;"">Was there a person in this image?</p>
                </div>
            </div>","0","example_question","4","","","","","","","","","",""
"","","","","","instructions","14","433922","0.0-14.0","7E960798CC674DBD9E28A300CE3419EB","019d6b11-e54d-7299-81b6-d39499d84b84","019d6ae6-5d89-74c6-b581-3918d1816346","[{""page_index"":0,""viewing_time"":1921}]","1921","","","","","","","","","","","","","",""
"","","","","","instructions","15","447728","0.0-15.0","7E960798CC674DBD9E28A300CE3419EB","019d6b11-e54d-7299-81b6-d39499d84b84","019d6ae6-5d89-74c6-b581-3918d1816346","[{""page_index"":0,""viewing_time"":13806}]","13806","","","","","","","","","","","","","",""
"","","","","","html-keyboard-response","16","452734","0.0-16.0","7E960798CC674DBD9E28A300CE3419EB","019d6b11-e54d-7299-81b6-d39499d84b84","019d6ae6-5d89-74c6-b581-3918d1816346","","null","<div style=""background-color: white; width: 100vw; height: 100vh;""></div>","null","","","","","","","","","","","",""
"","","","","","html-keyboard-response","17","457736","0.0-17.0","7E960798CC674DBD9E28A300CE3419EB","019d6b11-e54d-7299-81b6-d39499d84b84","019d6ae6-5d89-74c6-b581-3918d1816346","","null","
                <div class=""stimulus-container"">
                    <img src=""semantic_sequence_notimeline/transportation_semantic/transportation_semantic_1.png"" class=""exp-image"">
                    <div class=""question-area""></div> 
                </div>","null","","","","","","","","","","","",""
"","","","","","html-button-response","18","458572","0.0-18.0","7E960798CC674DBD9E28A300CE3419EB","019d6b11-e54d-7299-81b6-d39499d84b84","019d6ae6-5d89-74c6-b581-3918d1816346","","835","
                <div class=""stimulus-container"">
                    <img src=""semantic_sequence_notimeline/transportation_semantic/transportation_semantic_1.png"" class=""exp-image"">
                    <div class=""question-area"">
                        <p style=""font-size: 20px; font-weight: bold; margin: 0;"">Is there a person in this image?</p>
                    </div>
                </div>","1","main_experiment_trial","1","transportation_semantic","semantic_sequence_notimeline","chronological","","","","","","",""
"","","","","","html-keyboard-response","19","463580","0.0-19.0","7E960798CC674DBD9E28A300CE3419EB","019d6b11-e54d-7299-81b6-d39499d84b84","019d6ae6-5d89-74c6-b581-3918d1816346","","null","
                <div class=""stimulus-container"">
                    <img src=""semantic_sequence_notimeline/transportation_semantic/transportation_semantic_2.png"" class=""exp-image"">
                    <div class=""question-area""></div> 
                </div>","null","","","","","","","","","","","",""
"","","","","","html-button-response","20","464738","0.0-20.0","7E960798CC674DBD9E28A300CE3419EB","019d6b11-e54d-7299-81b6-d39499d84b84","019d6ae6-5d89-74c6-b581-3918d1816346","","1157","
                <div class=""stimulus-container"">
                    <img src=""semantic_sequence_notimeline/transportation_semantic/transportation_semantic_2.png"" class=""exp-image"">
                    <div class=""question-area"">
                        <p style=""font-size: 20px; font-weight: bold; margin: 0;"">Is there a person in this image?</p>
                    </div>
                </div>","1","main_experiment_trial","2","transportation_semantic","semantic_sequence_notimeline","chronological","","","","","","",""
"","","","","","html-keyboard-response","21","469739","0.0-21.0","7E960798CC674DBD9E28A300CE3419EB","019d6b11-e54d-7299-81b6-d39499d84b84","019d6ae6-5d89-74c6-b581-3918d1816346","","null","
                <div class=""stimulus-container"">
                    <img src=""semantic_sequence_notimeline/transportation_semantic/transportation_semantic_3.png"" class=""exp-image"">
                    <div class=""question-area""></div> 
                </div>","null","","","","","","","","","","","",""
"","","","","","html-button-response","22","471704","0.0-22.0","7E960798CC674DBD9E28A300CE3419EB","019d6b11-e54d-7299-81b6-d39499d84b84","019d6ae6-5d89-74c6-b581-3918d1816346","","1964","
                <div class=""stimulus-container"">
                    <img src=""semantic_sequence_notimeline/transportation_semantic/transportation_semantic_3.png"" class=""exp-image"">
                    <div class=""question-area"">
                        <p style=""font-size: 20px; font-weight: bold; margin: 0;"">Is there a person in this image?</p>
                    </div>
                </div>","1","main_experiment_trial","3","transportation_semantic","semantic_sequence_notimeline","chronological","","","","","","",""
"","","","","","html-keyboard-response","23","476714","0.0-23.0","7E960798CC674DBD9E28A300CE3419EB","019d6b11-e54d-7299-81b6-d39499d84b84","019d6ae6-5d89-74c6-b581-3918d1816346","","null","
                <div class=""stimulus-container"">
                    <img src=""semantic_sequence_notimeline/transportation_semantic/transportation_semantic_4.png"" class=""exp-image"">
                    <div class=""question-area""></div> 
                </div>","null","","","","","","","","","","","",""
"","","","","","html-button-response","24","477749","0.0-24.0","7E960798CC674DBD9E28A300CE3419EB","019d6b11-e54d-7299-81b6-d39499d84b84","019d6ae6-5d89-74c6-b581-3918d1816346","","1034","
                <div class=""stimulus-container"">
                    <img src=""semantic_sequence_notimeline/transportation_semantic/transportation_semantic_4.png"" class=""exp-image"">
                    <div class=""question-area"">
                        <p style=""font-size: 20px; font-weight: bold; margin: 0;"">Is there a person in this image?</p>
                    </div>
                </div>","1","main_experiment_trial","4","transportation_semantic","semantic_sequence_notimeline","chronological","","","","","","",""
"","","","","","html-keyboard-response","25","482753","0.0-25.0","7E960798CC674DBD9E28A300CE3419EB","019d6b11-e54d-7299-81b6-d39499d84b84","019d6ae6-5d89-74c6-b581-3918d1816346","","null","
                <div class=""stimulus-container"">
                    <img src=""semantic_sequence_notimeline/transportation_semantic/transportation_semantic_5.png"" class=""exp-image"">
                    <div class=""question-area""></div> 
                </div>","null","","","","","","","","","","","",""
"","","","","","html-button-response","26","485201","0.0-26.0","7E960798CC674DBD9E28A300CE3419EB","019d6b11-e54d-7299-81b6-d39499d84b84","019d6ae6-5d89-74c6-b581-3918d1816346","","2447","
                <div class=""stimulus-container"">
                    <img src=""semantic_sequence_notimeline/transportation_semantic/transportation_semantic_5.png"" class=""exp-image"">
                    <div class=""question-area"">
                        <p style=""font-size: 20px; font-weight: bold; margin: 0;"">Is there a person in this image?</p>
                    </div>
                </div>","1","main_experiment_trial","5","transportation_semantic","semantic_sequence_notimeline","chronological","","","","","","",""
"","","","","","html-keyboard-response","27","490216","0.0-27.0","7E960798CC674DBD9E28A300CE3419EB","019d6b11-e54d-7299-81b6-d39499d84b84","019d6ae6-5d89-74c6-b581-3918d1816346","","null","
                <div class=""stimulus-container"">
                    <img src=""semantic_sequence_notimeline/transportation_semantic/transportation_semantic_6.png"" class=""exp-image"">
                    <div class=""question-area""></div> 
                </div>","null","","","","","","","","","","","",""
"","","","","","html-button-response","28","491243","0.0-28.0","7E960798CC674DBD9E28A300CE3419EB","019d6b11-e54d-7299-81b6-d39499d84b84","019d6ae6-5d89-74c6-b581-3918d1816346","","1025","
                <div class=""stimulus-container"">
                    <img src=""semantic_sequence_notimeline/transportation_semantic/transportation_semantic_6.png"" class=""exp-image"">
                    <div class=""question-area"">
                        <p style=""font-size: 20px; font-weight: bold; margin: 0;"">Is there a person in this image?</p>
                    </div>
                </div>","0","main_experiment_trial","6","transportation_semantic","semantic_sequence_notimeline","chronological","","","","","","",""
"","","","","","html-keyboard-response","29","496257","0.0-29.0","7E960798CC674DBD9E28A300CE3419EB","019d6b11-e54d-7299-81b6-d39499d84b84","019d6ae6-5d89-74c6-b581-3918d1816346","","null","
                <div class=""stimulus-container"">
                    <img src=""semantic_sequence_notimeline/transportation_semantic/transportation_semantic_7.png"" class=""exp-image"">
                    <div class=""question-area""></div> 
                </div>","null","","","","","","","","","","","",""
"","","","","","html-button-response","30","498868","0.0-30.0","7E960798CC674DBD9E28A300CE3419EB","019d6b11-e54d-7299-81b6-d39499d84b84","019d6ae6-5d89-74c6-b581-3918d1816346","","2610","
                <div class=""stimulus-container"">
                    <img src=""semantic_sequence_notimeline/transportation_semantic/transportation_semantic_7.png"" class=""exp-image"">
                    <div class=""question-area"">
                        <p style=""font-size: 20px; font-weight: bold; margin: 0;"">Is there a person in this image?</p>
                    </div>
                </div>","1","main_experiment_trial","7","transportation_semantic","semantic_sequence_notimeline","chronological","","","","","","",""
"","","","","","html-keyboard-response","31","503878","0.0-31.0","7E960798CC674DBD9E28A300CE3419EB","019d6b11-e54d-7299-81b6-d39499d84b84","019d6ae6-5d89-74c6-b581-3918d1816346","","null","
                <div class=""stimulus-container"">
                    <img src=""semantic_sequence_notimeline/transportation_semantic/transportation_semantic_8.png"" class=""exp-image"">
                    <div class=""question-area""></div> 
                </div>","null","","","","","","","","","","","",""
"","","","","","html-button-response","32","505665","0.0-32.0","7E960798CC674DBD9E28A300CE3419EB","019d6b11-e54d-7299-81b6-d39499d84b84","019d6ae6-5d89-74c6-b581-3918d1816346","","1786","
                <div class=""stimulus-container"">
                    <img src=""semantic_sequence_notimeline/transportation_semantic/transportation_semantic_8.png"" class=""exp-image"">
                    <div class=""question-area"">
                        <p style=""font-size: 20px; font-weight: bold; margin: 0;"">Is there a person in this image?</p>
                    </div>
                </div>","1","main_experiment_trial","8","transportation_semantic","semantic_sequence_notimeline","chronological","","","","","","",""
"","","","","","html-keyboard-response","33","510666","0.0-33.0","7E960798CC674DBD9E28A300CE3419EB","019d6b11-e54d-7299-81b6-d39499d84b84","019d6ae6-5d89-74c6-b581-3918d1816346","","null","
                <div class=""stimulus-container"">
                    <img src=""semantic_sequence_notimeline/transportation_semantic/transportation_semantic_9.png"" class=""exp-image"">
                    <div class=""question-area""></div> 
                </div>","null","","","","","","","","","","","",""
"","","","","","html-button-response","34","511857","0.0-34.0","7E960798CC674DBD9E28A300CE3419EB","019d6b11-e54d-7299-81b6-d39499d84b84","019d6ae6-5d89-74c6-b581-3918d1816346","","1190","
                <div class=""stimulus-container"">
                    <img src=""semantic_sequence_notimeline/transportation_semantic/transportation_semantic_9.png"" class=""exp-image"">
                    <div class=""question-area"">
                        <p style=""font-size: 20px; font-weight: bold; margin: 0;"">Is there a person in this image?</p>
                    </div>
                </div>","1","main_experiment_trial","9","transportation_semantic","semantic_sequence_notimeline","chronological","","","","","","",""
"","","","","","html-keyboard-response","35","516858","0.0-35.0","7E960798CC674DBD9E28A300CE3419EB","019d6b11-e54d-7299-81b6-d39499d84b84","019d6ae6-5d89-74c6-b581-3918d1816346","","null","
                <div class=""stimulus-container"">
                    <img src=""semantic_sequence_notimeline/transportation_semantic/transportation_semantic_ten.png"" class=""exp-image"">
                    <div class=""question-area""></div> 
                </div>","null","","","","","","","","","","","",""
"","","","","","html-button-response","36","517313","0.0-36.0","7E960798CC674DBD9E28A300CE3419EB","019d6b11-e54d-7299-81b6-d39499d84b84","019d6ae6-5d89-74c6-b581-3918d1816346","","453","
                <div class=""stimulus-container"">
                    <img src=""semantic_sequence_notimeline/transportation_semantic/transportation_semantic_ten.png"" class=""exp-image"">
                    <div class=""question-area"">
                        <p style=""font-size: 20px; font-weight: bold; margin: 0;"">Is there a person in this image?</p>
                    </div>
                </div>","1","main_experiment_trial","ten","transportation_semantic","semantic_sequence_notimeline","chronological","","","","","","",""
"","","","","","html-keyboard-response","37","522318","0.0-37.0","7E960798CC674DBD9E28A300CE3419EB","019d6b11-e54d-7299-81b6-d39499d84b84","019d6ae6-5d89-74c6-b581-3918d1816346","","null","<div style=""background-color: white; width: 100vw; height: 100vh;""></div>","null","","","","","","","","","","","",""
"","","","","","html-keyboard-response","38","527330","0.0-38.0","7E960798CC674DBD9E28A300CE3419EB","019d6b11-e54d-7299-81b6-d39499d84b84","019d6ae6-5d89-74c6-b581-3918d1816346","","null","
                <div class=""stimulus-container"">
                    <img src=""semantic_sequence_notimeline/clothing_semantic/clothing_semantic_1.png"" class=""exp-image"">
                    <div class=""question-area""></div> 
                </div>","null","","","","","","","","","","","",""
"","","","","","html-button-response","39","528137","0.0-39.0","7E960798CC674DBD9E28A300CE3419EB","019d6b11-e54d-7299-81b6-d39499d84b84","019d6ae6-5d89-74c6-b581-3918d1816346","","806","
                <div class=""stimulus-container"">
                    <img src=""semantic_sequence_notimeline/clothing_semantic/clothing_semantic_1.png"" class=""exp-image"">
                    <div class=""question-area"">
                        <p style=""font-size: 20px; font-weight: bold; margin: 0;"">Is there a person in this image?</p>
                    </div>
                </div>","1","main_experiment_trial","1","clothing_semantic","semantic_sequence_notimeline","chronological","","","","","","",""
"","","","","","html-keyboard-response","40","533138","0.0-40.0","7E960798CC674DBD9E28A300CE3419EB","019d6b11-e54d-7299-81b6-d39499d84b84","019d6ae6-5d89-74c6-b581-3918d1816346","","null","
                <div class=""stimulus-container"">
                    <img src=""semantic_sequence_notimeline/clothing_semantic/clothing_semantic_2.png"" class=""exp-image"">
                    <div class=""question-area""></div> 
                </div>","null","","","","","","","","","","","",""
"","","","","","html-button-response","41","533912","0.0-41.0","7E960798CC674DBD9E28A300CE3419EB","019d6b11-e54d-7299-81b6-d39499d84b84","019d6ae6-5d89-74c6-b581-3918d1816346","","773","
                <div class=""stimulus-container"">
                    <img src=""semantic_sequence_notimeline/clothing_semantic/clothing_semantic_2.png"" class=""exp-image"">
                    <div class=""question-area"">
                        <p style=""font-size: 20px; font-weight: bold; margin: 0;"">Is there a person in this image?</p>
                    </div>
                </div>","1","main_experiment_trial","2","clothing_semantic","semantic_sequence_notimeline","chronological","","","","","","",""
"","","","","","html-keyboard-response","42","538914","0.0-42.0","7E960798CC674DBD9E28A300CE3419EB","019d6b11-e54d-7299-81b6-d39499d84b84","019d6ae6-5d89-74c6-b581-3918d1816346","","null","
                <div class=""stimulus-container"">
                    <img src=""semantic_sequence_notimeline/clothing_semantic/clothing_semantic_3.png"" class=""exp-image"">
                    <div class=""question-area""></div> 
                </div>","null","","","","","","","","","","","",""
"","","","","","html-button-response","43","539599","0.0-43.0","7E960798CC674DBD9E28A300CE3419EB","019d6b11-e54d-7299-81b6-d39499d84b84","019d6ae6-5d89-74c6-b581-3918d1816346","","684","
                <div class=""stimulus-container"">
                    <img src=""semantic_sequence_notimeline/clothing_semantic/clothing_semantic_3.png"" class=""exp-image"">
                    <div class=""question-area"">
                        <p style=""font-size: 20px; font-weight: bold; margin: 0;"">Is there a person in this image?</p>
                    </div>
                </div>","1","main_experiment_trial","3","clothing_semantic","semantic_sequence_notimeline","chronological","","","","","","",""
"","","","","","html-keyboard-response","44","544607","0.0-44.0","7E960798CC674DBD9E28A300CE3419EB","019d6b11-e54d-7299-81b6-d39499d84b84","019d6ae6-5d89-74c6-b581-3918d1816346","","null","
                <div class=""stimulus-container"">
                    <img src=""semantic_sequence_notimeline/clothing_semantic/clothing_semantic_4.png"" class=""exp-image"">
                    <div class=""question-area""></div> 
                </div>","null","","","","","","","","","","","",""
"","","","","","html-button-response","45","545149","0.0-45.0","7E960798CC674DBD9E28A300CE3419EB","019d6b11-e54d-7299-81b6-d39499d84b84","019d6ae6-5d89-74c6-b581-3918d1816346","","541","
                <div class=""stimulus-container"">
                    <img src=""semantic_sequence_notimeline/clothing_semantic/clothing_semantic_4.png"" class=""exp-image"">
                    <div class=""question-area"">
                        <p style=""font-size: 20px; font-weight: bold; margin: 0;"">Is there a person in this image?</p>
                    </div>
                </div>","1","main_experiment_trial","4","clothing_semantic","semantic_sequence_notimeline","chronological","","","","","","",""
"","","","","","html-keyboard-response","46","550150","0.0-46.0","7E960798CC674DBD9E28A300CE3419EB","019d6b11-e54d-7299-81b6-d39499d84b84","019d6ae6-5d89-74c6-b581-3918d1816346","","null","
                <div class=""stimulus-container"">
                    <img src=""semantic_sequence_notimeline/clothing_semantic/clothing_semantic_5.png"" class=""exp-image"">
                    <div class=""question-area""></div> 
                </div>","null","","","","","","","","","","","",""
"","","","","","html-button-response","47","550843","0.0-47.0","7E960798CC674DBD9E28A300CE3419EB","019d6b11-e54d-7299-81b6-d39499d84b84","019d6ae6-5d89-74c6-b581-3918d1816346","","691","
                <div class=""stimulus-container"">
                    <img src=""semantic_sequence_notimeline/clothing_semantic/clothing_semantic_5.png"" class=""exp-image"">
                    <div class=""question-area"">
                        <p style=""font-size: 20px; font-weight: bold; margin: 0;"">Is there a person in this image?</p>
                    </div>
                </div>","1","main_experiment_trial","5","clothing_semantic","semantic_sequence_notimeline","chronological","","","","","","",""
"","","","","","html-keyboard-response","48","555844","0.0-48.0","7E960798CC674DBD9E28A300CE3419EB","019d6b11-e54d-7299-81b6-d39499d84b84","019d6ae6-5d89-74c6-b581-3918d1816346","","null","
                <div class=""stimulus-container"">
                    <img src=""semantic_sequence_notimeline/clothing_semantic/clothing_semantic_6.png"" class=""exp-image"">
                    <div class=""question-area""></div> 
                </div>","null","","","","","","","","","","","",""
"","","","","","html-button-response","49","556349","0.0-49.0","7E960798CC674DBD9E28A300CE3419EB","019d6b11-e54d-7299-81b6-d39499d84b84","019d6ae6-5d89-74c6-b581-3918d1816346","","504","
                <div class=""stimulus-container"">
                    <img src=""semantic_sequence_notimeline/clothing_semantic/clothing_semantic_6.png"" class=""exp-image"">
                    <div class=""question-area"">
                        <p style=""font-size: 20px; font-weight: bold; margin: 0;"">Is there a person in this image?</p>
                    </div>
                </div>","1","main_experiment_trial","6","clothing_semantic","semantic_sequence_notimeline","chronological","","","","","","",""
"","","","","","html-keyboard-response","50","561351","0.0-50.0","7E960798CC674DBD9E28A300CE3419EB","019d6b11-e54d-7299-81b6-d39499d84b84","019d6ae6-5d89-74c6-b581-3918d1816346","","null","
                <div class=""stimulus-container"">
                    <img src=""semantic_sequence_notimeline/clothing_semantic/clothing_semantic_7.png"" class=""exp-image"">
                    <div class=""question-area""></div> 
                </div>","null","","","","","","","","","","","",""
"","","","","","html-button-response","51","561977","0.0-51.0","7E960798CC674DBD9E28A300CE3419EB","019d6b11-e54d-7299-81b6-d39499d84b84","019d6ae6-5d89-74c6-b581-3918d1816346","","625","
                <div class=""stimulus-container"">
                    <img src=""semantic_sequence_notimeline/clothing_semantic/clothing_semantic_7.png"" class=""exp-image"">
                    <div class=""question-area"">
                        <p style=""font-size: 20px; font-weight: bold; margin: 0;"">Is there a person in this image?</p>
                    </div>
                </div>","1","main_experiment_trial","7","clothing_semantic","semantic_sequence_notimeline","chronological","","","","","","",""
"","","","","","html-keyboard-response","52","566977","0.0-52.0","7E960798CC674DBD9E28A300CE3419EB","019d6b11-e54d-7299-81b6-d39499d84b84","019d6ae6-5d89-74c6-b581-3918d1816346","","null","
                <div class=""stimulus-container"">
                    <img src=""semantic_sequence_notimeline/clothing_semantic/clothing_semantic_8.png"" class=""exp-image"">
                    <div class=""question-area""></div> 
                </div>","null","","","","","","","","","","","",""
"","","","","","html-button-response","53","568010","0.0-53.0","7E960798CC674DBD9E28A300CE3419EB","019d6b11-e54d-7299-81b6-d39499d84b84","019d6ae6-5d89-74c6-b581-3918d1816346","","1032","
                <div class=""stimulus-container"">
                    <img src=""semantic_sequence_notimeline/clothing_semantic/clothing_semantic_8.png"" class=""exp-image"">
                    <div class=""question-area"">
                        <p style=""font-size: 20px; font-weight: bold; margin: 0;"">Is there a person in this image?</p>
                    </div>
                </div>","1","main_experiment_trial","8","clothing_semantic","semantic_sequence_notimeline","chronological","","","","","","",""
"","","","","","html-keyboard-response","54","573018","0.0-54.0","7E960798CC674DBD9E28A300CE3419EB","019d6b11-e54d-7299-81b6-d39499d84b84","019d6ae6-5d89-74c6-b581-3918d1816346","","null","
                <div class=""stimulus-container"">
                    <img src=""semantic_sequence_notimeline/clothing_semantic/clothing_semantic_9.png"" class=""exp-image"">
                    <div class=""question-area""></div> 
                </div>","null","","","","","","","","","","","",""
"","","","","","html-button-response","55","573534","0.0-55.0","7E960798CC674DBD9E28A300CE3419EB","019d6b11-e54d-7299-81b6-d39499d84b84","019d6ae6-5d89-74c6-b581-3918d1816346","","516","
                <div class=""stimulus-container"">
                    <img src=""semantic_sequence_notimeline/clothing_semantic/clothing_semantic_9.png"" class=""exp-image"">
                    <div class=""question-area"">
                        <p style=""font-size: 20px; font-weight: bold; margin: 0;"">Is there a person in this image?</p>
                    </div>
                </div>","1","main_experiment_trial","9","clothing_semantic","semantic_sequence_notimeline","chronological","","","","","","",""
"","","","","","html-keyboard-response","56","578540","0.0-56.0","7E960798CC674DBD9E28A300CE3419EB","019d6b11-e54d-7299-81b6-d39499d84b84","019d6ae6-5d89-74c6-b581-3918d1816346","","null","
                <div class=""stimulus-container"">
                    <img src=""semantic_sequence_notimeline/clothing_semantic/clothing_semantic_ten.png"" class=""exp-image"">
                    <div class=""question-area""></div> 
                </div>","null","","","","","","","","","","","",""
"","","","","","html-button-response","57","578939","0.0-57.0","7E960798CC674DBD9E28A300CE3419EB","019d6b11-e54d-7299-81b6-d39499d84b84","019d6ae6-5d89-74c6-b581-3918d1816346","","399","
                <div class=""stimulus-container"">
                    <img src=""semantic_sequence_notimeline/clothing_semantic/clothing_semantic_ten.png"" class=""exp-image"">
                    <div class=""question-area"">
                        <p style=""font-size: 20px; font-weight: bold; margin: 0;"">Is there a person in this image?</p>
                    </div>
                </div>","1","main_experiment_trial","ten","clothing_semantic","semantic_sequence_notimeline","chronological","","","","","","",""
"","","","","","html-keyboard-response","58","583951","0.0-58.0","7E960798CC674DBD9E28A300CE3419EB","019d6b11-e54d-7299-81b6-d39499d84b84","019d6ae6-5d89-74c6-b581-3918d1816346","","null","<div style=""background-color: white; width: 100vw; height: 100vh;""></div>","null","","","","","","","","","","","",""
"","","","","","html-keyboard-response","59","588962","0.0-59.0","7E960798CC674DBD9E28A300CE3419EB","019d6b11-e54d-7299-81b6-d39499d84b84","019d6ae6-5d89-74c6-b581-3918d1816346","","null","
                <div class=""stimulus-container"">
                    <img src=""images/causal_sequence/coin_causal/coin_causal_1.png"" class=""exp-image"">
                    <div class=""question-area""></div> 
                </div>","null","","","","","","","","","","","",""
"","","","","","html-button-response","60","590792","0.0-60.0","7E960798CC674DBD9E28A300CE3419EB","019d6b11-e54d-7299-81b6-d39499d84b84","019d6ae6-5d89-74c6-b581-3918d1816346","","1829","
                <div class=""stimulus-container"">
                    <img src=""images/causal_sequence/coin_causal/coin_causal_1.png"" class=""exp-image"">
                    <div class=""question-area"">
                        <p style=""font-size: 20px; font-weight: bold; margin: 0;"">Is there a person in this image?</p>
                    </div>
                </div>","0","main_experiment_trial","1","coin_causal","causal_sequence","chronological","","","","","","",""
"","","","","","html-keyboard-response","61","595802","0.0-61.0","7E960798CC674DBD9E28A300CE3419EB","019d6b11-e54d-7299-81b6-d39499d84b84","019d6ae6-5d89-74c6-b581-3918d1816346","","null","
                <div class=""stimulus-container"">
                    <img src=""images/causal_sequence/coin_causal/coin_causal_2.png"" class=""exp-image"">
                    <div class=""question-area""></div> 
                </div>","null","","","","","","","","","","","",""
"","","","","","html-button-response","62","596646","0.0-62.0","7E960798CC674DBD9E28A300CE3419EB","019d6b11-e54d-7299-81b6-d39499d84b84","019d6ae6-5d89-74c6-b581-3918d1816346","","843","
                <div class=""stimulus-container"">
                    <img src=""images/causal_sequence/coin_causal/coin_causal_2.png"" class=""exp-image"">
                    <div class=""question-area"">
                        <p style=""font-size: 20px; font-weight: bold; margin: 0;"">Is there a person in this image?</p>
                    </div>
                </div>","0","main_experiment_trial","2","coin_causal","causal_sequence","chronological","","","","","","",""
"","","","","","html-keyboard-response","63","601656","0.0-63.0","7E960798CC674DBD9E28A300CE3419EB","019d6b11-e54d-7299-81b6-d39499d84b84","019d6ae6-5d89-74c6-b581-3918d1816346","","null","
                <div class=""stimulus-container"">
                    <img src=""images/causal_sequence/coin_causal/coin_causal_3.png"" class=""exp-image"">
                    <div class=""question-area""></div> 
                </div>","null","","","","","","","","","","","",""
"","","","","","html-button-response","64","602630","0.0-64.0","7E960798CC674DBD9E28A300CE3419EB","019d6b11-e54d-7299-81b6-d39499d84b84","019d6ae6-5d89-74c6-b581-3918d1816346","","973","
                <div class=""stimulus-container"">
                    <img src=""images/causal_sequence/coin_causal/coin_causal_3.png"" class=""exp-image"">
                    <div class=""question-area"">
                        <p style=""font-size: 20px; font-weight: bold; margin: 0;"">Is there a person in this image?</p>
                    </div>
                </div>","0","main_experiment_trial","3","coin_causal","causal_sequence","chronological","","","","","","",""
"","","","","","html-keyboard-response","65","607635","0.0-65.0","7E960798CC674DBD9E28A300CE3419EB","019d6b11-e54d-7299-81b6-d39499d84b84","019d6ae6-5d89-74c6-b581-3918d1816346","","null","
                <div class=""stimulus-container"">
                    <img src=""images/causal_sequence/coin_causal/coin_causal_4.png"" class=""exp-image"">
                    <div class=""question-area""></div> 
                </div>","null","","","","","","","","","","","",""
"","","","","","html-button-response","66","608773","0.0-66.0","7E960798CC674DBD9E28A300CE3419EB","019d6b11-e54d-7299-81b6-d39499d84b84","019d6ae6-5d89-74c6-b581-3918d1816346","","1137","
                <div class=""stimulus-container"">
                    <img src=""images/causal_sequence/coin_causal/coin_causal_4.png"" class=""exp-image"">
                    <div class=""question-area"">
                        <p style=""font-size: 20px; font-weight: bold; margin: 0;"">Is there a person in this image?</p>
                    </div>
                </div>","0","main_experiment_trial","4","coin_causal","causal_sequence","chronological","","","","","","",""
"","","","","","html-keyboard-response","67","613777","0.0-67.0","7E960798CC674DBD9E28A300CE3419EB","019d6b11-e54d-7299-81b6-d39499d84b84","019d6ae6-5d89-74c6-b581-3918d1816346","","null","
                <div class=""stimulus-container"">
                    <img src=""images/causal_sequence/coin_causal/coin_causal_5.png"" class=""exp-image"">
                    <div class=""question-area""></div> 
                </div>","null","","","","","","","","","","","",""
"","","","","","html-button-response","68","614681","0.0-68.0","7E960798CC674DBD9E28A300CE3419EB","019d6b11-e54d-7299-81b6-d39499d84b84","019d6ae6-5d89-74c6-b581-3918d1816346","","903","
                <div class=""stimulus-container"">
                    <img src=""images/causal_sequence/coin_causal/coin_causal_5.png"" class=""exp-image"">
                    <div class=""question-area"">
                        <p style=""font-size: 20px; font-weight: bold; margin: 0;"">Is there a person in this image?</p>
                    </div>
                </div>","0","main_experiment_trial","5","coin_causal","causal_sequence","chronological","","","","","","",""
"","","","","","html-keyboard-response","69","619685","0.0-69.0","7E960798CC674DBD9E28A300CE3419EB","019d6b11-e54d-7299-81b6-d39499d84b84","019d6ae6-5d89-74c6-b581-3918d1816346","","null","
                <div class=""stimulus-container"">
                    <img src=""images/causal_sequence/coin_causal/coin_causal_6.png"" class=""exp-image"">
                    <div class=""question-area""></div> 
                </div>","null","","","","","","","","","","","",""
"","","","","","html-button-response","70","620313","0.0-70.0","7E960798CC674DBD9E28A300CE3419EB","019d6b11-e54d-7299-81b6-d39499d84b84","019d6ae6-5d89-74c6-b581-3918d1816346","","627","
                <div class=""stimulus-container"">
                    <img src=""images/causal_sequence/coin_causal/coin_causal_6.png"" class=""exp-image"">
                    <div class=""question-area"">
                        <p style=""font-size: 20px; font-weight: bold; margin: 0;"">Is there a person in this image?</p>
                    </div>
                </div>","0","main_experiment_trial","6","coin_causal","causal_sequence","chronological","","","","","","",""
"","","","","","html-keyboard-response","71","625315","0.0-71.0","7E960798CC674DBD9E28A300CE3419EB","019d6b11-e54d-7299-81b6-d39499d84b84","019d6ae6-5d89-74c6-b581-3918d1816346","","null","
                <div class=""stimulus-container"">
                    <img src=""images/causal_sequence/coin_causal/coin_causal_7.png"" class=""exp-image"">
                    <div class=""question-area""></div> 
                </div>","null","","","","","","","","","","","",""
"","","","","","html-button-response","72","626410","0.0-72.0","7E960798CC674DBD9E28A300CE3419EB","019d6b11-e54d-7299-81b6-d39499d84b84","019d6ae6-5d89-74c6-b581-3918d1816346","","1094","
                <div class=""stimulus-container"">
                    <img src=""images/causal_sequence/coin_causal/coin_causal_7.png"" class=""exp-image"">
                    <div class=""question-area"">
                        <p style=""font-size: 20px; font-weight: bold; margin: 0;"">Is there a person in this image?</p>
                    </div>
                </div>","1","main_experiment_trial","7","coin_causal","causal_sequence","chronological","","","","","","",""
"","","","","","html-keyboard-response","73","631423","0.0-73.0","7E960798CC674DBD9E28A300CE3419EB","019d6b11-e54d-7299-81b6-d39499d84b84","019d6ae6-5d89-74c6-b581-3918d1816346","","null","
                <div class=""stimulus-container"">
                    <img src=""images/causal_sequence/coin_causal/coin_causal_8.png"" class=""exp-image"">
                    <div class=""question-area""></div> 
                </div>","null","","","","","","","","","","","",""
"","","","","","html-button-response","74","632248","0.0-74.0","7E960798CC674DBD9E28A300CE3419EB","019d6b11-e54d-7299-81b6-d39499d84b84","019d6ae6-5d89-74c6-b581-3918d1816346","","825","
                <div class=""stimulus-container"">
                    <img src=""images/causal_sequence/coin_causal/coin_causal_8.png"" class=""exp-image"">
                    <div class=""question-area"">
                        <p style=""font-size: 20px; font-weight: bold; margin: 0;"">Is there a person in this image?</p>
                    </div>
                </div>","0","main_experiment_trial","8","coin_causal","causal_sequence","chronological","","","","","","",""
"","","","","","html-keyboard-response","75","637255","0.0-75.0","7E960798CC674DBD9E28A300CE3419EB","019d6b11-e54d-7299-81b6-d39499d84b84","019d6ae6-5d89-74c6-b581-3918d1816346","","null","
                <div class=""stimulus-container"">
                    <img src=""images/causal_sequence/coin_causal/coin_causal_9.png"" class=""exp-image"">
                    <div class=""question-area""></div> 
                </div>","null","","","","","","","","","","","",""
"","","","","","html-button-response","76","638856","0.0-76.0","7E960798CC674DBD9E28A300CE3419EB","019d6b11-e54d-7299-81b6-d39499d84b84","019d6ae6-5d89-74c6-b581-3918d1816346","","1600","
                <div class=""stimulus-container"">
                    <img src=""images/causal_sequence/coin_causal/coin_causal_9.png"" class=""exp-image"">
                    <div class=""question-area"">
                        <p style=""font-size: 20px; font-weight: bold; margin: 0;"">Is there a person in this image?</p>
                    </div>
                </div>","0","main_experiment_trial","9","coin_causal","causal_sequence","chronological","","","","","","",""
"","","","","","html-keyboard-response","77","643860","0.0-77.0","7E960798CC674DBD9E28A300CE3419EB","019d6b11-e54d-7299-81b6-d39499d84b84","019d6ae6-5d89-74c6-b581-3918d1816346","","null","
                <div class=""stimulus-container"">
                    <img src=""images/causal_sequence/coin_causal/coin_causal_ten.png"" class=""exp-image"">
                    <div class=""question-area""></div> 
                </div>","null","","","","","","","","","","","",""
"","","","","","html-button-response","78","646370","0.0-78.0","7E960798CC674DBD9E28A300CE3419EB","019d6b11-e54d-7299-81b6-d39499d84b84","019d6ae6-5d89-74c6-b581-3918d1816346","","2509","
                <div class=""stimulus-container"">
                    <img src=""images/causal_sequence/coin_causal/coin_causal_ten.png"" class=""exp-image"">
                    <div class=""question-area"">
                        <p style=""font-size: 20px; font-weight: bold; margin: 0;"">Is there a person in this image?</p>
                    </div>
                </div>","0","main_experiment_trial","ten","coin_causal","causal_sequence","chronological","","","","","","",""
"","","","","","html-keyboard-response","79","651382","0.0-79.0","7E960798CC674DBD9E28A300CE3419EB","019d6b11-e54d-7299-81b6-d39499d84b84","019d6ae6-5d89-74c6-b581-3918d1816346","","null","<div style=""background-color: white; width: 100vw; height: 100vh;""></div>","null","","","","","","","","","","","",""
"","","","","","html-keyboard-response","80","656386","0.0-80.0","7E960798CC674DBD9E28A300CE3419EB","019d6b11-e54d-7299-81b6-d39499d84b84","019d6ae6-5d89-74c6-b581-3918d1816346","","null","
                <div class=""stimulus-container"">
                    <img src=""images/causal_sequence/the_performance_causal/the_performance_causal_1.png"" class=""exp-image"">
                    <div class=""question-area""></div> 
                </div>","null","","","","","","","","","","","",""
"","","","","","html-button-response","81","657690","0.0-81.0","7E960798CC674DBD9E28A300CE3419EB","019d6b11-e54d-7299-81b6-d39499d84b84","019d6ae6-5d89-74c6-b581-3918d1816346","","1303","
                <div class=""stimulus-container"">
                    <img src=""images/causal_sequence/the_performance_causal/the_performance_causal_1.png"" class=""exp-image"">
                    <div class=""question-area"">
                        <p style=""font-size: 20px; font-weight: bold; margin: 0;"">Is there a person in this image?</p>
                    </div>
                </div>","0","main_experiment_trial","1","the_performance_causal","causal_sequence","chronological","","","","","","",""
"","","","","","html-keyboard-response","82","662691","0.0-82.0","7E960798CC674DBD9E28A300CE3419EB","019d6b11-e54d-7299-81b6-d39499d84b84","019d6ae6-5d89-74c6-b581-3918d1816346","","null","
                <div class=""stimulus-container"">
                    <img src=""images/causal_sequence/the_performance_causal/the_performance_causal_2.png"" class=""exp-image"">
                    <div class=""question-area""></div> 
                </div>","null","","","","","","","","","","","",""
"","","","","","html-button-response","83","663286","0.0-83.0","7E960798CC674DBD9E28A300CE3419EB","019d6b11-e54d-7299-81b6-d39499d84b84","019d6ae6-5d89-74c6-b581-3918d1816346","","595","
                <div class=""stimulus-container"">
                    <img src=""images/causal_sequence/the_performance_causal/the_performance_causal_2.png"" class=""exp-image"">
                    <div class=""question-area"">
                        <p style=""font-size: 20px; font-weight: bold; margin: 0;"">Is there a person in this image?</p>
                    </div>
                </div>","0","main_experiment_trial","2","the_performance_causal","causal_sequence","chronological","","","","","","",""
"","","","","","html-keyboard-response","84","668287","0.0-84.0","7E960798CC674DBD9E28A300CE3419EB","019d6b11-e54d-7299-81b6-d39499d84b84","019d6ae6-5d89-74c6-b581-3918d1816346","","null","
                <div class=""stimulus-container"">
                    <img src=""images/causal_sequence/the_performance_causal/the_performance_causal_3.png"" class=""exp-image"">
                    <div class=""question-area""></div> 
                </div>","null","","","","","","","","","","","",""
"","","","","","html-button-response","85","668753","0.0-85.0","7E960798CC674DBD9E28A300CE3419EB","019d6b11-e54d-7299-81b6-d39499d84b84","019d6ae6-5d89-74c6-b581-3918d1816346","","465","
                <div class=""stimulus-container"">
                    <img src=""images/causal_sequence/the_performance_causal/the_performance_causal_3.png"" class=""exp-image"">
                    <div class=""question-area"">
                        <p style=""font-size: 20px; font-weight: bold; margin: 0;"">Is there a person in this image?</p>
                    </div>
                </div>","0","main_experiment_trial","3","the_performance_causal","causal_sequence","chronological","","","","","","",""
"","","","","","html-keyboard-response","86","673762","0.0-86.0","7E960798CC674DBD9E28A300CE3419EB","019d6b11-e54d-7299-81b6-d39499d84b84","019d6ae6-5d89-74c6-b581-3918d1816346","","null","
                <div class=""stimulus-container"">
                    <img src=""images/causal_sequence/the_performance_causal/the_performance_causal_4.png"" class=""exp-image"">
                    <div class=""question-area""></div> 
                </div>","null","","","","","","","","","","","",""
"","","","","","html-button-response","87","674747","0.0-87.0","7E960798CC674DBD9E28A300CE3419EB","019d6b11-e54d-7299-81b6-d39499d84b84","019d6ae6-5d89-74c6-b581-3918d1816346","","984","
                <div class=""stimulus-container"">
                    <img src=""images/causal_sequence/the_performance_causal/the_performance_causal_4.png"" class=""exp-image"">
                    <div class=""question-area"">
                        <p style=""font-size: 20px; font-weight: bold; margin: 0;"">Is there a person in this image?</p>
                    </div>
                </div>","0","main_experiment_trial","4","the_performance_causal","causal_sequence","chronological","","","","","","",""
"","","","","","html-keyboard-response","88","679760","0.0-88.0","7E960798CC674DBD9E28A300CE3419EB","019d6b11-e54d-7299-81b6-d39499d84b84","019d6ae6-5d89-74c6-b581-3918d1816346","","null","
                <div class=""stimulus-container"">
                    <img src=""images/causal_sequence/the_performance_causal/the_performance_causal_5.png"" class=""exp-image"">
                    <div class=""question-area""></div> 
                </div>","null","","","","","","","","","","","",""
"","","","","","html-button-response","89","680302","0.0-89.0","7E960798CC674DBD9E28A300CE3419EB","019d6b11-e54d-7299-81b6-d39499d84b84","019d6ae6-5d89-74c6-b581-3918d1816346","","541","
                <div class=""stimulus-container"">
                    <img src=""images/causal_sequence/the_performance_causal/the_performance_causal_5.png"" class=""exp-image"">
                    <div class=""question-area"">
                        <p style=""font-size: 20px; font-weight: bold; margin: 0;"">Is there a person in this image?</p>
                    </div>
                </div>","0","main_experiment_trial","5","the_performance_causal","causal_sequence","chronological","","","","","","",""
"","","","","","html-keyboard-response","90","685312","0.0-90.0","7E960798CC674DBD9E28A300CE3419EB","019d6b11-e54d-7299-81b6-d39499d84b84","019d6ae6-5d89-74c6-b581-3918d1816346","","null","
                <div class=""stimulus-container"">
                    <img src=""images/causal_sequence/the_performance_causal/the_performance_causal_6.png"" class=""exp-image"">
                    <div class=""question-area""></div> 
                </div>","null","","","","","","","","","","","",""
"","","","","","html-button-response","91","688313","0.0-91.0","7E960798CC674DBD9E28A300CE3419EB","019d6b11-e54d-7299-81b6-d39499d84b84","019d6ae6-5d89-74c6-b581-3918d1816346","","3001","
                <div class=""stimulus-container"">
                    <img src=""images/causal_sequence/the_performance_causal/the_performance_causal_6.png"" class=""exp-image"">
                    <div class=""question-area"">
                        <p style=""font-size: 20px; font-weight: bold; margin: 0;"">Is there a person in this image?</p>
                    </div>
                </div>","0","main_experiment_trial","6","the_performance_causal","causal_sequence","chronological","","","","","","",""
"","","","","","html-keyboard-response","92","693323","0.0-92.0","7E960798CC674DBD9E28A300CE3419EB","019d6b11-e54d-7299-81b6-d39499d84b84","019d6ae6-5d89-74c6-b581-3918d1816346","","null","
                <div class=""stimulus-container"">
                    <img src=""images/causal_sequence/the_performance_causal/the_performance_causal_7.png"" class=""exp-image"">
                    <div class=""question-area""></div> 
                </div>","null","","","","","","","","","","","",""
"","","","","","html-button-response","93","694128","0.0-93.0","7E960798CC674DBD9E28A300CE3419EB","019d6b11-e54d-7299-81b6-d39499d84b84","019d6ae6-5d89-74c6-b581-3918d1816346","","804","
                <div class=""stimulus-container"">
                    <img src=""images/causal_sequence/the_performance_causal/the_performance_causal_7.png"" class=""exp-image"">
                    <div class=""question-area"">
                        <p style=""font-size: 20px; font-weight: bold; margin: 0;"">Is there a person in this image?</p>
                    </div>
                </div>","0","main_experiment_trial","7","the_performance_causal","causal_sequence","chronological","","","","","","",""
"","","","","","html-keyboard-response","94","699130","0.0-94.0","7E960798CC674DBD9E28A300CE3419EB","019d6b11-e54d-7299-81b6-d39499d84b84","019d6ae6-5d89-74c6-b581-3918d1816346","","null","
                <div class=""stimulus-container"">
                    <img src=""images/causal_sequence/the_performance_causal/the_performance_causal_8.png"" class=""exp-image"">
                    <div class=""question-area""></div> 
                </div>","null","","","","","","","","","","","",""
"","","","","","html-button-response","95","699714","0.0-95.0","7E960798CC674DBD9E28A300CE3419EB","019d6b11-e54d-7299-81b6-d39499d84b84","019d6ae6-5d89-74c6-b581-3918d1816346","","583","
                <div class=""stimulus-container"">
                    <img src=""images/causal_sequence/the_performance_causal/the_performance_causal_8.png"" class=""exp-image"">
                    <div class=""question-area"">
                        <p style=""font-size: 20px; font-weight: bold; margin: 0;"">Is there a person in this image?</p>
                    </div>
                </div>","0","main_experiment_trial","8","the_performance_causal","causal_sequence","chronological","","","","","","",""
"","","","","","html-keyboard-response","96","704724","0.0-96.0","7E960798CC674DBD9E28A300CE3419EB","019d6b11-e54d-7299-81b6-d39499d84b84","019d6ae6-5d89-74c6-b581-3918d1816346","","null","
                <div class=""stimulus-container"">
                    <img src=""images/causal_sequence/the_performance_causal/the_performance_causal_9.png"" class=""exp-image"">
                    <div class=""question-area""></div> 
                </div>","null","","","","","","","","","","","",""
"","","","","","html-button-response","97","705642","0.0-97.0","7E960798CC674DBD9E28A300CE3419EB","019d6b11-e54d-7299-81b6-d39499d84b84","019d6ae6-5d89-74c6-b581-3918d1816346","","917","
                <div class=""stimulus-container"">
                    <img src=""images/causal_sequence/the_performance_causal/the_performance_causal_9.png"" class=""exp-image"">
                    <div class=""question-area"">
                        <p style=""font-size: 20px; font-weight: bold; margin: 0;"">Is there a person in this image?</p>
                    </div>
                </div>","0","main_experiment_trial","9","the_performance_causal","causal_sequence","chronological","","","","","","",""
"","","","","","html-keyboard-response","98","710651","0.0-98.0","7E960798CC674DBD9E28A300CE3419EB","019d6b11-e54d-7299-81b6-d39499d84b84","019d6ae6-5d89-74c6-b581-3918d1816346","","null","
                <div class=""stimulus-container"">
                    <img src=""images/causal_sequence/the_performance_causal/the_performance_causal_ten.png"" class=""exp-image"">
                    <div class=""question-area""></div> 
                </div>","null","","","","","","","","","","","",""
"","","","","","html-button-response","99","711219","0.0-99.0","7E960798CC674DBD9E28A300CE3419EB","019d6b11-e54d-7299-81b6-d39499d84b84","019d6ae6-5d89-74c6-b581-3918d1816346","","566","
                <div class=""stimulus-container"">
                    <img src=""images/causal_sequence/the_performance_causal/the_performance_causal_ten.png"" class=""exp-image"">
                    <div class=""question-area"">
                        <p style=""font-size: 20px; font-weight: bold; margin: 0;"">Is there a person in this image?</p>
                    </div>
                </div>","0","main_experiment_trial","ten","the_performance_causal","causal_sequence","chronological","","","","","","",""
"","","","","","html-keyboard-response","100","716225","0.0-100.0","7E960798CC674DBD9E28A300CE3419EB","019d6b11-e54d-7299-81b6-d39499d84b84","019d6ae6-5d89-74c6-b581-3918d1816346","","null","<div style=""background-color: white; width: 100vw; height: 100vh;""></div>","null","","","","","","","","","","","",""
"","","","","","html-keyboard-response","101","721227","0.0-101.0","7E960798CC674DBD9E28A300CE3419EB","019d6b11-e54d-7299-81b6-d39499d84b84","019d6ae6-5d89-74c6-b581-3918d1816346","","null","
                <div class=""stimulus-container"">
                    <img src=""semantic_sequence_notimeline/fruits_semantic/fruits_semantic_1.png"" class=""exp-image"">
                    <div class=""question-area""></div> 
                </div>","null","","","","","","","","","","","",""
"","","","","","html-button-response","102","722537","0.0-102.0","7E960798CC674DBD9E28A300CE3419EB","019d6b11-e54d-7299-81b6-d39499d84b84","019d6ae6-5d89-74c6-b581-3918d1816346","","1309","
                <div class=""stimulus-container"">
                    <img src=""semantic_sequence_notimeline/fruits_semantic/fruits_semantic_1.png"" class=""exp-image"">
                    <div class=""question-area"">
                        <p style=""font-size: 20px; font-weight: bold; margin: 0;"">Is there a person in this image?</p>
                    </div>
                </div>","1","main_experiment_trial","1","fruits_semantic","semantic_sequence_notimeline","chronological","","","","","","",""
"","","","","","html-keyboard-response","103","727543","0.0-103.0","7E960798CC674DBD9E28A300CE3419EB","019d6b11-e54d-7299-81b6-d39499d84b84","019d6ae6-5d89-74c6-b581-3918d1816346","","null","
                <div class=""stimulus-container"">
                    <img src=""semantic_sequence_notimeline/fruits_semantic/fruits_semantic_2.png"" class=""exp-image"">
                    <div class=""question-area""></div> 
                </div>","null","","","","","","","","","","","",""
"","","","","","html-button-response","104","728039","0.0-104.0","7E960798CC674DBD9E28A300CE3419EB","019d6b11-e54d-7299-81b6-d39499d84b84","019d6ae6-5d89-74c6-b581-3918d1816346","","496","
                <div class=""stimulus-container"">
                    <img src=""semantic_sequence_notimeline/fruits_semantic/fruits_semantic_2.png"" class=""exp-image"">
                    <div class=""question-area"">
                        <p style=""font-size: 20px; font-weight: bold; margin: 0;"">Is there a person in this image?</p>
                    </div>
                </div>","1","main_experiment_trial","2","fruits_semantic","semantic_sequence_notimeline","chronological","","","","","","",""
"","","","","","html-keyboard-response","105","733052","0.0-105.0","7E960798CC674DBD9E28A300CE3419EB","019d6b11-e54d-7299-81b6-d39499d84b84","019d6ae6-5d89-74c6-b581-3918d1816346","","null","
                <div class=""stimulus-container"">
                    <img src=""semantic_sequence_notimeline/fruits_semantic/fruits_semantic_3.png"" class=""exp-image"">
                    <div class=""question-area""></div> 
                </div>","null","","","","","","","","","","","",""
"","","","","","html-button-response","106","734845","0.0-106.0","7E960798CC674DBD9E28A300CE3419EB","019d6b11-e54d-7299-81b6-d39499d84b84","019d6ae6-5d89-74c6-b581-3918d1816346","","1793","
                <div class=""stimulus-container"">
                    <img src=""semantic_sequence_notimeline/fruits_semantic/fruits_semantic_3.png"" class=""exp-image"">
                    <div class=""question-area"">
                        <p style=""font-size: 20px; font-weight: bold; margin: 0;"">Is there a person in this image?</p>
                    </div>
                </div>","1","main_experiment_trial","3","fruits_semantic","semantic_sequence_notimeline","chronological","","","","","","",""
"","","","","","html-keyboard-response","107","739850","0.0-107.0","7E960798CC674DBD9E28A300CE3419EB","019d6b11-e54d-7299-81b6-d39499d84b84","019d6ae6-5d89-74c6-b581-3918d1816346","","null","
                <div class=""stimulus-container"">
                    <img src=""semantic_sequence_notimeline/fruits_semantic/fruits_semantic_4.png"" class=""exp-image"">
                    <div class=""question-area""></div> 
                </div>","null","","","","","","","","","","","",""
"","","","","","html-button-response","108","742421","0.0-108.0","7E960798CC674DBD9E28A300CE3419EB","019d6b11-e54d-7299-81b6-d39499d84b84","019d6ae6-5d89-74c6-b581-3918d1816346","","2570","
                <div class=""stimulus-container"">
                    <img src=""semantic_sequence_notimeline/fruits_semantic/fruits_semantic_4.png"" class=""exp-image"">
                    <div class=""question-area"">
                        <p style=""font-size: 20px; font-weight: bold; margin: 0;"">Is there a person in this image?</p>
                    </div>
                </div>","1","main_experiment_trial","4","fruits_semantic","semantic_sequence_notimeline","chronological","","","","","","",""
"","","","","","html-keyboard-response","109","747435","0.0-109.0","7E960798CC674DBD9E28A300CE3419EB","019d6b11-e54d-7299-81b6-d39499d84b84","019d6ae6-5d89-74c6-b581-3918d1816346","","null","
                <div class=""stimulus-container"">
                    <img src=""semantic_sequence_notimeline/fruits_semantic/fruits_semantic_5.png"" class=""exp-image"">
                    <div class=""question-area""></div> 
                </div>","null","","","","","","","","","","","",""
"","","","","","html-button-response","110","747975","0.0-110.0","7E960798CC674DBD9E28A300CE3419EB","019d6b11-e54d-7299-81b6-d39499d84b84","019d6ae6-5d89-74c6-b581-3918d1816346","","539","
                <div class=""stimulus-container"">
                    <img src=""semantic_sequence_notimeline/fruits_semantic/fruits_semantic_5.png"" class=""exp-image"">
                    <div class=""question-area"">
                        <p style=""font-size: 20px; font-weight: bold; margin: 0;"">Is there a person in this image?</p>
                    </div>
                </div>","1","main_experiment_trial","5","fruits_semantic","semantic_sequence_notimeline","chronological","","","","","","",""
"","","","","","html-keyboard-response","111","752982","0.0-111.0","7E960798CC674DBD9E28A300CE3419EB","019d6b11-e54d-7299-81b6-d39499d84b84","019d6ae6-5d89-74c6-b581-3918d1816346","","null","
                <div class=""stimulus-container"">
                    <img src=""semantic_sequence_notimeline/fruits_semantic/fruits_semantic_6.png"" class=""exp-image"">
                    <div class=""question-area""></div> 
                </div>","null","","","","","","","","","","","",""
"","","","","","html-button-response","112","753649","0.0-112.0","7E960798CC674DBD9E28A300CE3419EB","019d6b11-e54d-7299-81b6-d39499d84b84","019d6ae6-5d89-74c6-b581-3918d1816346","","666","
                <div class=""stimulus-container"">
                    <img src=""semantic_sequence_notimeline/fruits_semantic/fruits_semantic_6.png"" class=""exp-image"">
                    <div class=""question-area"">
                        <p style=""font-size: 20px; font-weight: bold; margin: 0;"">Is there a person in this image?</p>
                    </div>
                </div>","1","main_experiment_trial","6","fruits_semantic","semantic_sequence_notimeline","chronological","","","","","","",""
"","","","","","html-keyboard-response","113","758664","0.0-113.0","7E960798CC674DBD9E28A300CE3419EB","019d6b11-e54d-7299-81b6-d39499d84b84","019d6ae6-5d89-74c6-b581-3918d1816346","","null","
                <div class=""stimulus-container"">
                    <img src=""semantic_sequence_notimeline/fruits_semantic/fruits_semantic_7.png"" class=""exp-image"">
                    <div class=""question-area""></div> 
                </div>","null","","","","","","","","","","","",""
"","","","","","html-button-response","114","759401","0.0-114.0","7E960798CC674DBD9E28A300CE3419EB","019d6b11-e54d-7299-81b6-d39499d84b84","019d6ae6-5d89-74c6-b581-3918d1816346","","735","
                <div class=""stimulus-container"">
                    <img src=""semantic_sequence_notimeline/fruits_semantic/fruits_semantic_7.png"" class=""exp-image"">
                    <div class=""question-area"">
                        <p style=""font-size: 20px; font-weight: bold; margin: 0;"">Is there a person in this image?</p>
                    </div>
                </div>","1","main_experiment_trial","7","fruits_semantic","semantic_sequence_notimeline","chronological","","","","","","",""
"","","","","","html-keyboard-response","115","764406","0.0-115.0","7E960798CC674DBD9E28A300CE3419EB","019d6b11-e54d-7299-81b6-d39499d84b84","019d6ae6-5d89-74c6-b581-3918d1816346","","null","
                <div class=""stimulus-container"">
                    <img src=""semantic_sequence_notimeline/fruits_semantic/fruits_semantic_8.png"" class=""exp-image"">
                    <div class=""question-area""></div> 
                </div>","null","","","","","","","","","","","",""
"","","","","","html-button-response","116","765253","0.0-116.0","7E960798CC674DBD9E28A300CE3419EB","019d6b11-e54d-7299-81b6-d39499d84b84","019d6ae6-5d89-74c6-b581-3918d1816346","","847","
                <div class=""stimulus-container"">
                    <img src=""semantic_sequence_notimeline/fruits_semantic/fruits_semantic_8.png"" class=""exp-image"">
                    <div class=""question-area"">
                        <p style=""font-size: 20px; font-weight: bold; margin: 0;"">Is there a person in this image?</p>
                    </div>
                </div>","1","main_experiment_trial","8","fruits_semantic","semantic_sequence_notimeline","chronological","","","","","","",""
"","","","","","html-keyboard-response","117","770258","0.0-117.0","7E960798CC674DBD9E28A300CE3419EB","019d6b11-e54d-7299-81b6-d39499d84b84","019d6ae6-5d89-74c6-b581-3918d1816346","","null","
                <div class=""stimulus-container"">
                    <img src=""semantic_sequence_notimeline/fruits_semantic/fruits_semantic_9.png"" class=""exp-image"">
                    <div class=""question-area""></div> 
                </div>","null","","","","","","","","","","","",""
"","","","","","html-button-response","118","771734","0.0-118.0","7E960798CC674DBD9E28A300CE3419EB","019d6b11-e54d-7299-81b6-d39499d84b84","019d6ae6-5d89-74c6-b581-3918d1816346","","1475","
                <div class=""stimulus-container"">
                    <img src=""semantic_sequence_notimeline/fruits_semantic/fruits_semantic_9.png"" class=""exp-image"">
                    <div class=""question-area"">
                        <p style=""font-size: 20px; font-weight: bold; margin: 0;"">Is there a person in this image?</p>
                    </div>
                </div>","1","main_experiment_trial","9","fruits_semantic","semantic_sequence_notimeline","chronological","","","","","","",""
"","","","","","html-keyboard-response","119","776748","0.0-119.0","7E960798CC674DBD9E28A300CE3419EB","019d6b11-e54d-7299-81b6-d39499d84b84","019d6ae6-5d89-74c6-b581-3918d1816346","","null","
                <div class=""stimulus-container"">
                    <img src=""semantic_sequence_notimeline/fruits_semantic/fruits_semantic_ten.png"" class=""exp-image"">
                    <div class=""question-area""></div> 
                </div>","null","","","","","","","","","","","",""
"","","","","","html-button-response","120","778486","0.0-120.0","7E960798CC674DBD9E28A300CE3419EB","019d6b11-e54d-7299-81b6-d39499d84b84","019d6ae6-5d89-74c6-b581-3918d1816346","","1737","
                <div class=""stimulus-container"">
                    <img src=""semantic_sequence_notimeline/fruits_semantic/fruits_semantic_ten.png"" class=""exp-image"">
                    <div class=""question-area"">
                        <p style=""font-size: 20px; font-weight: bold; margin: 0;"">Is there a person in this image?</p>
                    </div>
                </div>","1","main_experiment_trial","ten","fruits_semantic","semantic_sequence_notimeline","chronological","","","","","","",""
"","","","","","html-keyboard-response","121","783499","0.0-121.0","7E960798CC674DBD9E28A300CE3419EB","019d6b11-e54d-7299-81b6-d39499d84b84","019d6ae6-5d89-74c6-b581-3918d1816346","","null","<div style=""background-color: white; width: 100vw; height: 100vh;""></div>","null","","","","","","","","","","","",""
"","","","","","html-keyboard-response","122","788502","0.0-122.0","7E960798CC674DBD9E28A300CE3419EB","019d6b11-e54d-7299-81b6-d39499d84b84","019d6ae6-5d89-74c6-b581-3918d1816346","","null","
                <div class=""stimulus-container"">
                    <img src=""images/causal_sequence/dog_causal/dog_causal_1.png"" class=""exp-image"">
                    <div class=""question-area""></div> 
                </div>","null","","","","","","","","","","","",""
"","","","","","html-button-response","123","790428","0.0-123.0","7E960798CC674DBD9E28A300CE3419EB","019d6b11-e54d-7299-81b6-d39499d84b84","019d6ae6-5d89-74c6-b581-3918d1816346","","1924","
                <div class=""stimulus-container"">
                    <img src=""images/causal_sequence/dog_causal/dog_causal_1.png"" class=""exp-image"">
                    <div class=""question-area"">
                        <p style=""font-size: 20px; font-weight: bold; margin: 0;"">Is there a person in this image?</p>
                    </div>
                </div>","0","main_experiment_trial","1","dog_causal","causal_sequence","chronological","","","","","","",""
"","","","","","html-keyboard-response","124","795438","0.0-124.0","7E960798CC674DBD9E28A300CE3419EB","019d6b11-e54d-7299-81b6-d39499d84b84","019d6ae6-5d89-74c6-b581-3918d1816346","","null","
                <div class=""stimulus-container"">
                    <img src=""images/causal_sequence/dog_causal/dog_causal_2.png"" class=""exp-image"">
                    <div class=""question-area""></div> 
                </div>","null","","","","","","","","","","","",""
"","","","","","html-button-response","125","796899","0.0-125.0","7E960798CC674DBD9E28A300CE3419EB","019d6b11-e54d-7299-81b6-d39499d84b84","019d6ae6-5d89-74c6-b581-3918d1816346","","1460","
                <div class=""stimulus-container"">
                    <img src=""images/causal_sequence/dog_causal/dog_causal_2.png"" class=""exp-image"">
                    <div class=""question-area"">
                        <p style=""font-size: 20px; font-weight: bold; margin: 0;"">Is there a person in this image?</p>
                    </div>
                </div>","0","main_experiment_trial","2","dog_causal","causal_sequence","chronological","","","","","","",""
"","","","","","html-keyboard-response","126","801912","0.0-126.0","7E960798CC674DBD9E28A300CE3419EB","019d6b11-e54d-7299-81b6-d39499d84b84","019d6ae6-5d89-74c6-b581-3918d1816346","","null","
                <div class=""stimulus-container"">
                    <img src=""images/causal_sequence/dog_causal/dog_causal_3.png"" class=""exp-image"">
                    <div class=""question-area""></div> 
                </div>","null","","","","","","","","","","","",""
"","","","","","html-button-response","127","803765","0.0-127.0","7E960798CC674DBD9E28A300CE3419EB","019d6b11-e54d-7299-81b6-d39499d84b84","019d6ae6-5d89-74c6-b581-3918d1816346","","1852","
                <div class=""stimulus-container"">
                    <img src=""images/causal_sequence/dog_causal/dog_causal_3.png"" class=""exp-image"">
                    <div class=""question-area"">
                        <p style=""font-size: 20px; font-weight: bold; margin: 0;"">Is there a person in this image?</p>
                    </div>
                </div>","0","main_experiment_trial","3","dog_causal","causal_sequence","chronological","","","","","","",""
"","","","","","html-keyboard-response","128","808779","0.0-128.0","7E960798CC674DBD9E28A300CE3419EB","019d6b11-e54d-7299-81b6-d39499d84b84","019d6ae6-5d89-74c6-b581-3918d1816346","","null","
                <div class=""stimulus-container"">
                    <img src=""images/causal_sequence/dog_causal/dog_causal_4.png"" class=""exp-image"">
                    <div class=""question-area""></div> 
                </div>","null","","","","","","","","","","","",""
"","","","","","html-button-response","129","810015","0.0-129.0","7E960798CC674DBD9E28A300CE3419EB","019d6b11-e54d-7299-81b6-d39499d84b84","019d6ae6-5d89-74c6-b581-3918d1816346","","1235","
                <div class=""stimulus-container"">
                    <img src=""images/causal_sequence/dog_causal/dog_causal_4.png"" class=""exp-image"">
                    <div class=""question-area"">
                        <p style=""font-size: 20px; font-weight: bold; margin: 0;"">Is there a person in this image?</p>
                    </div>
                </div>","0","main_experiment_trial","4","dog_causal","causal_sequence","chronological","","","","","","",""
"","","","","","html-keyboard-response","130","815025","0.0-130.0","7E960798CC674DBD9E28A300CE3419EB","019d6b11-e54d-7299-81b6-d39499d84b84","019d6ae6-5d89-74c6-b581-3918d1816346","","null","
                <div class=""stimulus-container"">
                    <img src=""images/causal_sequence/dog_causal/dog_causal_5.png"" class=""exp-image"">
                    <div class=""question-area""></div> 
                </div>","null","","","","","","","","","","","",""
"","","","","","html-button-response","131","816218","0.0-131.0","7E960798CC674DBD9E28A300CE3419EB","019d6b11-e54d-7299-81b6-d39499d84b84","019d6ae6-5d89-74c6-b581-3918d1816346","","1192","
                <div class=""stimulus-container"">
                    <img src=""images/causal_sequence/dog_causal/dog_causal_5.png"" class=""exp-image"">
                    <div class=""question-area"">
                        <p style=""font-size: 20px; font-weight: bold; margin: 0;"">Is there a person in this image?</p>
                    </div>
                </div>","0","main_experiment_trial","5","dog_causal","causal_sequence","chronological","","","","","","",""
"","","","","","html-keyboard-response","132","821230","0.0-132.0","7E960798CC674DBD9E28A300CE3419EB","019d6b11-e54d-7299-81b6-d39499d84b84","019d6ae6-5d89-74c6-b581-3918d1816346","","null","
                <div class=""stimulus-container"">
                    <img src=""images/causal_sequence/dog_causal/dog_causal_6.png"" class=""exp-image"">
                    <div class=""question-area""></div> 
                </div>","null","","","","","","","","","","","",""
"","","","","","html-button-response","133","822182","0.0-133.0","7E960798CC674DBD9E28A300CE3419EB","019d6b11-e54d-7299-81b6-d39499d84b84","019d6ae6-5d89-74c6-b581-3918d1816346","","951","
                <div class=""stimulus-container"">
                    <img src=""images/causal_sequence/dog_causal/dog_causal_6.png"" class=""exp-image"">
                    <div class=""question-area"">
                        <p style=""font-size: 20px; font-weight: bold; margin: 0;"">Is there a person in this image?</p>
                    </div>
                </div>","0","main_experiment_trial","6","dog_causal","causal_sequence","chronological","","","","","","",""
"","","","","","html-keyboard-response","134","827183","0.0-134.0","7E960798CC674DBD9E28A300CE3419EB","019d6b11-e54d-7299-81b6-d39499d84b84","019d6ae6-5d89-74c6-b581-3918d1816346","","null","
                <div class=""stimulus-container"">
                    <img src=""images/causal_sequence/dog_causal/dog_causal_7.png"" class=""exp-image"">
                    <div class=""question-area""></div> 
                </div>","null","","","","","","","","","","","",""
"","","","","","html-button-response","135","828837","0.0-135.0","7E960798CC674DBD9E28A300CE3419EB","019d6b11-e54d-7299-81b6-d39499d84b84","019d6ae6-5d89-74c6-b581-3918d1816346","","1653","
                <div class=""stimulus-container"">
                    <img src=""images/causal_sequence/dog_causal/dog_causal_7.png"" class=""exp-image"">
                    <div class=""question-area"">
                        <p style=""font-size: 20px; font-weight: bold; margin: 0;"">Is there a person in this image?</p>
                    </div>
                </div>","0","main_experiment_trial","7","dog_causal","causal_sequence","chronological","","","","","","",""
"","","","","","html-keyboard-response","136","833853","0.0-136.0","7E960798CC674DBD9E28A300CE3419EB","019d6b11-e54d-7299-81b6-d39499d84b84","019d6ae6-5d89-74c6-b581-3918d1816346","","null","
                <div class=""stimulus-container"">
                    <img src=""images/causal_sequence/dog_causal/dog_causal_8.png"" class=""exp-image"">
                    <div class=""question-area""></div> 
                </div>","null","","","","","","","","","","","",""
"","","","","","html-button-response","137","835373","0.0-137.0","7E960798CC674DBD9E28A300CE3419EB","019d6b11-e54d-7299-81b6-d39499d84b84","019d6ae6-5d89-74c6-b581-3918d1816346","","1519","
                <div class=""stimulus-container"">
                    <img src=""images/causal_sequence/dog_causal/dog_causal_8.png"" class=""exp-image"">
                    <div class=""question-area"">
                        <p style=""font-size: 20px; font-weight: bold; margin: 0;"">Is there a person in this image?</p>
                    </div>
                </div>","0","main_experiment_trial","8","dog_causal","causal_sequence","chronological","","","","","","",""
"","","","","","html-keyboard-response","138","840374","0.0-138.0","7E960798CC674DBD9E28A300CE3419EB","019d6b11-e54d-7299-81b6-d39499d84b84","019d6ae6-5d89-74c6-b581-3918d1816346","","null","
                <div class=""stimulus-container"">
                    <img src=""images/causal_sequence/dog_causal/dog_causal_9.png"" class=""exp-image"">
                    <div class=""question-area""></div> 
                </div>","null","","","","","","","","","","","",""
"","","","","","html-button-response","139","841335","0.0-139.0","7E960798CC674DBD9E28A300CE3419EB","019d6b11-e54d-7299-81b6-d39499d84b84","019d6ae6-5d89-74c6-b581-3918d1816346","","960","
                <div class=""stimulus-container"">
                    <img src=""images/causal_sequence/dog_causal/dog_causal_9.png"" class=""exp-image"">
                    <div class=""question-area"">
                        <p style=""font-size: 20px; font-weight: bold; margin: 0;"">Is there a person in this image?</p>
                    </div>
                </div>","0","main_experiment_trial","9","dog_causal","causal_sequence","chronological","","","","","","",""
"","","","","","html-keyboard-response","140","846343","0.0-140.0","7E960798CC674DBD9E28A300CE3419EB","019d6b11-e54d-7299-81b6-d39499d84b84","019d6ae6-5d89-74c6-b581-3918d1816346","","null","
                <div class=""stimulus-container"">
                    <img src=""images/causal_sequence/dog_causal/dog_causal_ten.png"" class=""exp-image"">
                    <div class=""question-area""></div> 
                </div>","null","","","","","","","","","","","",""
"","","","","","html-button-response","141","847252","0.0-141.0","7E960798CC674DBD9E28A300CE3419EB","019d6b11-e54d-7299-81b6-d39499d84b84","019d6ae6-5d89-74c6-b581-3918d1816346","","908","
                <div class=""stimulus-container"">
                    <img src=""images/causal_sequence/dog_causal/dog_causal_ten.png"" class=""exp-image"">
                    <div class=""question-area"">
                        <p style=""font-size: 20px; font-weight: bold; margin: 0;"">Is there a person in this image?</p>
                    </div>
                </div>","0","main_experiment_trial","ten","dog_causal","causal_sequence","chronological","","","","","","",""
"","","","","","html-keyboard-response","142","852261","0.0-142.0","7E960798CC674DBD9E28A300CE3419EB","019d6b11-e54d-7299-81b6-d39499d84b84","019d6ae6-5d89-74c6-b581-3918d1816346","","null","<div style=""background-color: white; width: 100vw; height: 100vh;""></div>","null","","","","","","","","","","","",""
"","","","","","html-keyboard-response","143","857271","0.0-143.0","7E960798CC674DBD9E28A300CE3419EB","019d6b11-e54d-7299-81b6-d39499d84b84","019d6ae6-5d89-74c6-b581-3918d1816346","","null","
                <div class=""stimulus-container"">
                    <img src=""images/causal_sequence/saving_a_cat_causal/saving_a_cat_causal_1.png"" class=""exp-image"">
                    <div class=""question-area""></div> 
                </div>","null","","","","","","","","","","","",""
"","","","","","html-button-response","144","859577","0.0-144.0","7E960798CC674DBD9E28A300CE3419EB","019d6b11-e54d-7299-81b6-d39499d84b84","019d6ae6-5d89-74c6-b581-3918d1816346","","2305","
                <div class=""stimulus-container"">
                    <img src=""images/causal_sequence/saving_a_cat_causal/saving_a_cat_causal_1.png"" class=""exp-image"">
                    <div class=""question-area"">
                        <p style=""font-size: 20px; font-weight: bold; margin: 0;"">Is there a person in this image?</p>
                    </div>
                </div>","0","main_experiment_trial","1","saving_a_cat_causal","causal_sequence","chronological","","","","","","",""
"","","","","","html-keyboard-response","145","864588","0.0-145.0","7E960798CC674DBD9E28A300CE3419EB","019d6b11-e54d-7299-81b6-d39499d84b84","019d6ae6-5d89-74c6-b581-3918d1816346","","null","
                <div class=""stimulus-container"">
                    <img src=""images/causal_sequence/saving_a_cat_causal/saving_a_cat_causal_2.png"" class=""exp-image"">
                    <div class=""question-area""></div> 
                </div>","null","","","","","","","","","","","",""
"","","","","","html-button-response","146","865555","0.0-146.0","7E960798CC674DBD9E28A300CE3419EB","019d6b11-e54d-7299-81b6-d39499d84b84","019d6ae6-5d89-74c6-b581-3918d1816346","","966","
                <div class=""stimulus-container"">
                    <img src=""images/causal_sequence/saving_a_cat_causal/saving_a_cat_causal_2.png"" class=""exp-image"">
                    <div class=""question-area"">
                        <p style=""font-size: 20px; font-weight: bold; margin: 0;"">Is there a person in this image?</p>
                    </div>
                </div>","1","main_experiment_trial","2","saving_a_cat_causal","causal_sequence","chronological","","","","","","",""
"","","","","","html-keyboard-response","147","870558","0.0-147.0","7E960798CC674DBD9E28A300CE3419EB","019d6b11-e54d-7299-81b6-d39499d84b84","019d6ae6-5d89-74c6-b581-3918d1816346","","null","
                <div class=""stimulus-container"">
                    <img src=""images/causal_sequence/saving_a_cat_causal/saving_a_cat_causal_3.png"" class=""exp-image"">
                    <div class=""question-area""></div> 
                </div>","null","","","","","","","","","","","",""
"","","","","","html-button-response","148","873561","0.0-148.0","7E960798CC674DBD9E28A300CE3419EB","019d6b11-e54d-7299-81b6-d39499d84b84","019d6ae6-5d89-74c6-b581-3918d1816346","","null","
                <div class=""stimulus-container"">
                    <img src=""images/causal_sequence/saving_a_cat_causal/saving_a_cat_causal_3.png"" class=""exp-image"">
                    <div class=""question-area"">
                        <p style=""font-size: 20px; font-weight: bold; margin: 0;"">Is there a person in this image?</p>
                    </div>
                </div>","null","main_experiment_trial","3","saving_a_cat_causal","causal_sequence","chronological","","","","","","",""
"","","","","","html-keyboard-response","149","878565","0.0-149.0","7E960798CC674DBD9E28A300CE3419EB","019d6b11-e54d-7299-81b6-d39499d84b84","019d6ae6-5d89-74c6-b581-3918d1816346","","null","
                <div class=""stimulus-container"">
                    <img src=""images/causal_sequence/saving_a_cat_causal/saving_a_cat_causal_4.png"" class=""exp-image"">
                    <div class=""question-area""></div> 
                </div>","null","","","","","","","","","","","",""
"","","","","","html-button-response","150","879199","0.0-150.0","7E960798CC674DBD9E28A300CE3419EB","019d6b11-e54d-7299-81b6-d39499d84b84","019d6ae6-5d89-74c6-b581-3918d1816346","","632","
                <div class=""stimulus-container"">
                    <img src=""images/causal_sequence/saving_a_cat_causal/saving_a_cat_causal_4.png"" class=""exp-image"">
                    <div class=""question-area"">
                        <p style=""font-size: 20px; font-weight: bold; margin: 0;"">Is there a person in this image?</p>
                    </div>
                </div>","0","main_experiment_trial","4","saving_a_cat_causal","causal_sequence","chronological","","","","","","",""
"","","","","","html-keyboard-response","151","884211","0.0-151.0","7E960798CC674DBD9E28A300CE3419EB","019d6b11-e54d-7299-81b6-d39499d84b84","019d6ae6-5d89-74c6-b581-3918d1816346","","null","
                <div class=""stimulus-container"">
                    <img src=""images/causal_sequence/saving_a_cat_causal/saving_a_cat_causal_5.png"" class=""exp-image"">
                    <div class=""question-area""></div> 
                </div>","null","","","","","","","","","","","",""
"","","","","","html-button-response","152","884633","0.0-152.0","7E960798CC674DBD9E28A300CE3419EB","019d6b11-e54d-7299-81b6-d39499d84b84","019d6ae6-5d89-74c6-b581-3918d1816346","","421","
                <div class=""stimulus-container"">
                    <img src=""images/causal_sequence/saving_a_cat_causal/saving_a_cat_causal_5.png"" class=""exp-image"">
                    <div class=""question-area"">
                        <p style=""font-size: 20px; font-weight: bold; margin: 0;"">Is there a person in this image?</p>
                    </div>
                </div>","0","main_experiment_trial","5","saving_a_cat_causal","causal_sequence","chronological","","","","","","",""
"","","","","","html-keyboard-response","153","889644","0.0-153.0","7E960798CC674DBD9E28A300CE3419EB","019d6b11-e54d-7299-81b6-d39499d84b84","019d6ae6-5d89-74c6-b581-3918d1816346","","null","
                <div class=""stimulus-container"">
                    <img src=""images/causal_sequence/saving_a_cat_causal/saving_a_cat_causal_6.png"" class=""exp-image"">
                    <div class=""question-area""></div> 
                </div>","null","","","","","","","","","","","",""
"","","","","","html-button-response","154","890162","0.0-154.0","7E960798CC674DBD9E28A300CE3419EB","019d6b11-e54d-7299-81b6-d39499d84b84","019d6ae6-5d89-74c6-b581-3918d1816346","","517","
                <div class=""stimulus-container"">
                    <img src=""images/causal_sequence/saving_a_cat_causal/saving_a_cat_causal_6.png"" class=""exp-image"">
                    <div class=""question-area"">
                        <p style=""font-size: 20px; font-weight: bold; margin: 0;"">Is there a person in this image?</p>
                    </div>
                </div>","0","main_experiment_trial","6","saving_a_cat_causal","causal_sequence","chronological","","","","","","",""
"","","","","","html-keyboard-response","155","895164","0.0-155.0","7E960798CC674DBD9E28A300CE3419EB","019d6b11-e54d-7299-81b6-d39499d84b84","019d6ae6-5d89-74c6-b581-3918d1816346","","null","
                <div class=""stimulus-container"">
                    <img src=""images/causal_sequence/saving_a_cat_causal/saving_a_cat_causal_7.png"" class=""exp-image"">
                    <div class=""question-area""></div> 
                </div>","null","","","","","","","","","","","",""
"","","","","","html-button-response","156","898166","0.0-156.0","7E960798CC674DBD9E28A300CE3419EB","019d6b11-e54d-7299-81b6-d39499d84b84","019d6ae6-5d89-74c6-b581-3918d1816346","","null","
                <div class=""stimulus-container"">
                    <img src=""images/causal_sequence/saving_a_cat_causal/saving_a_cat_causal_7.png"" class=""exp-image"">
                    <div class=""question-area"">
                        <p style=""font-size: 20px; font-weight: bold; margin: 0;"">Is there a person in this image?</p>
                    </div>
                </div>","null","main_experiment_trial","7","saving_a_cat_causal","causal_sequence","chronological","","","","","","",""
"","","","","","html-keyboard-response","157","903181","0.0-157.0","7E960798CC674DBD9E28A300CE3419EB","019d6b11-e54d-7299-81b6-d39499d84b84","019d6ae6-5d89-74c6-b581-3918d1816346","","null","
                <div class=""stimulus-container"">
                    <img src=""images/causal_sequence/saving_a_cat_causal/saving_a_cat_causal_8.png"" class=""exp-image"">
                    <div class=""question-area""></div> 
                </div>","null","","","","","","","","","","","",""
"","","","","","html-button-response","158","903574","0.0-158.0","7E960798CC674DBD9E28A300CE3419EB","019d6b11-e54d-7299-81b6-d39499d84b84","019d6ae6-5d89-74c6-b581-3918d1816346","","391","
                <div class=""stimulus-container"">
                    <img src=""images/causal_sequence/saving_a_cat_causal/saving_a_cat_causal_8.png"" class=""exp-image"">
                    <div class=""question-area"">
                        <p style=""font-size: 20px; font-weight: bold; margin: 0;"">Is there a person in this image?</p>
                    </div>
                </div>","0","main_experiment_trial","8","saving_a_cat_causal","causal_sequence","chronological","","","","","","",""
"","","","","","html-keyboard-response","159","908585","0.0-159.0","7E960798CC674DBD9E28A300CE3419EB","019d6b11-e54d-7299-81b6-d39499d84b84","019d6ae6-5d89-74c6-b581-3918d1816346","","null","
                <div class=""stimulus-container"">
                    <img src=""images/causal_sequence/saving_a_cat_causal/saving_a_cat_causal_9.png"" class=""exp-image"">
                    <div class=""question-area""></div> 
                </div>","null","","","","","","","","","","","",""
"","","","","","html-button-response","160","909957","0.0-160.0","7E960798CC674DBD9E28A300CE3419EB","019d6b11-e54d-7299-81b6-d39499d84b84","019d6ae6-5d89-74c6-b581-3918d1816346","","1371","
                <div class=""stimulus-container"">
                    <img src=""images/causal_sequence/saving_a_cat_causal/saving_a_cat_causal_9.png"" class=""exp-image"">
                    <div class=""question-area"">
                        <p style=""font-size: 20px; font-weight: bold; margin: 0;"">Is there a person in this image?</p>
                    </div>
                </div>","0","main_experiment_trial","9","saving_a_cat_causal","causal_sequence","chronological","","","","","","",""
"","","","","","html-keyboard-response","161","914962","0.0-161.0","7E960798CC674DBD9E28A300CE3419EB","019d6b11-e54d-7299-81b6-d39499d84b84","019d6ae6-5d89-74c6-b581-3918d1816346","","null","
                <div class=""stimulus-container"">
                    <img src=""images/causal_sequence/saving_a_cat_causal/saving_a_cat_causal_ten.png"" class=""exp-image"">
                    <div class=""question-area""></div> 
                </div>","null","","","","","","","","","","","",""
"","","","","","html-button-response","162","915520","0.0-162.0","7E960798CC674DBD9E28A300CE3419EB","019d6b11-e54d-7299-81b6-d39499d84b84","019d6ae6-5d89-74c6-b581-3918d1816346","","557","
                <div class=""stimulus-container"">
                    <img src=""images/causal_sequence/saving_a_cat_causal/saving_a_cat_causal_ten.png"" class=""exp-image"">
                    <div class=""question-area"">
                        <p style=""font-size: 20px; font-weight: bold; margin: 0;"">Is there a person in this image?</p>
                    </div>
                </div>","0","main_experiment_trial","ten","saving_a_cat_causal","causal_sequence","chronological","","","","","","",""
"","","","","","html-keyboard-response","163","920528","0.0-163.0","7E960798CC674DBD9E28A300CE3419EB","019d6b11-e54d-7299-81b6-d39499d84b84","019d6ae6-5d89-74c6-b581-3918d1816346","","null","<div style=""background-color: white; width: 100vw; height: 100vh;""></div>","null","","","","","","","","","","","",""
"","","","","","html-keyboard-response","164","925542","0.0-164.0","7E960798CC674DBD9E28A300CE3419EB","019d6b11-e54d-7299-81b6-d39499d84b84","019d6ae6-5d89-74c6-b581-3918d1816346","","null","
                <div class=""stimulus-container"">
                    <img src=""images/causal_sequence/museum_causal/museum_causal_1.png"" class=""exp-image"">
                    <div class=""question-area""></div> 
                </div>","null","","","","","","","","","","","",""
"","","","","","html-button-response","165","926999","0.0-165.0","7E960798CC674DBD9E28A300CE3419EB","019d6b11-e54d-7299-81b6-d39499d84b84","019d6ae6-5d89-74c6-b581-3918d1816346","","1456","
                <div class=""stimulus-container"">
                    <img src=""images/causal_sequence/museum_causal/museum_causal_1.png"" class=""exp-image"">
                    <div class=""question-area"">
                        <p style=""font-size: 20px; font-weight: bold; margin: 0;"">Is there a person in this image?</p>
                    </div>
                </div>","0","main_experiment_trial","1","museum_causal","causal_sequence","chronological","","","","","","",""
"","","","","","html-keyboard-response","166","932003","0.0-166.0","7E960798CC674DBD9E28A300CE3419EB","019d6b11-e54d-7299-81b6-d39499d84b84","019d6ae6-5d89-74c6-b581-3918d1816346","","null","
                <div class=""stimulus-container"">
                    <img src=""images/causal_sequence/museum_causal/museum_causal_2.png"" class=""exp-image"">
                    <div class=""question-area""></div> 
                </div>","null","","","","","","","","","","","",""
"","","","","","html-button-response","167","933073","0.0-167.0","7E960798CC674DBD9E28A300CE3419EB","019d6b11-e54d-7299-81b6-d39499d84b84","019d6ae6-5d89-74c6-b581-3918d1816346","","1069","
                <div class=""stimulus-container"">
                    <img src=""images/causal_sequence/museum_causal/museum_causal_2.png"" class=""exp-image"">
                    <div class=""question-area"">
                        <p style=""font-size: 20px; font-weight: bold; margin: 0;"">Is there a person in this image?</p>
                    </div>
                </div>","1","main_experiment_trial","2","museum_causal","causal_sequence","chronological","","","","","","",""
"","","","","","html-keyboard-response","168","938079","0.0-168.0","7E960798CC674DBD9E28A300CE3419EB","019d6b11-e54d-7299-81b6-d39499d84b84","019d6ae6-5d89-74c6-b581-3918d1816346","","null","
                <div class=""stimulus-container"">
                    <img src=""images/causal_sequence/museum_causal/museum_causal_3.png"" class=""exp-image"">
                    <div class=""question-area""></div> 
                </div>","null","","","","","","","","","","","",""
"","","","","","html-button-response","169","938812","0.0-169.0","7E960798CC674DBD9E28A300CE3419EB","019d6b11-e54d-7299-81b6-d39499d84b84","019d6ae6-5d89-74c6-b581-3918d1816346","","732","
                <div class=""stimulus-container"">
                    <img src=""images/causal_sequence/museum_causal/museum_causal_3.png"" class=""exp-image"">
                    <div class=""question-area"">
                        <p style=""font-size: 20px; font-weight: bold; margin: 0;"">Is there a person in this image?</p>
                    </div>
                </div>","0","main_experiment_trial","3","museum_causal","causal_sequence","chronological","","","","","","",""
"","","","","","html-keyboard-response","170","943815","0.0-170.0","7E960798CC674DBD9E28A300CE3419EB","019d6b11-e54d-7299-81b6-d39499d84b84","019d6ae6-5d89-74c6-b581-3918d1816346","","null","
                <div class=""stimulus-container"">
                    <img src=""images/causal_sequence/museum_causal/museum_causal_4.png"" class=""exp-image"">
                    <div class=""question-area""></div> 
                </div>","null","","","","","","","","","","","",""
"","","","","","html-button-response","171","945113","0.0-171.0","7E960798CC674DBD9E28A300CE3419EB","019d6b11-e54d-7299-81b6-d39499d84b84","019d6ae6-5d89-74c6-b581-3918d1816346","","1297","
                <div class=""stimulus-container"">
                    <img src=""images/causal_sequence/museum_causal/museum_causal_4.png"" class=""exp-image"">
                    <div class=""question-area"">
                        <p style=""font-size: 20px; font-weight: bold; margin: 0;"">Is there a person in this image?</p>
                    </div>
                </div>","1","main_experiment_trial","4","museum_causal","causal_sequence","chronological","","","","","","",""
"","","","","","html-keyboard-response","172","950118","0.0-172.0","7E960798CC674DBD9E28A300CE3419EB","019d6b11-e54d-7299-81b6-d39499d84b84","019d6ae6-5d89-74c6-b581-3918d1816346","","null","
                <div class=""stimulus-container"">
                    <img src=""images/causal_sequence/museum_causal/museum_causal_5.png"" class=""exp-image"">
                    <div class=""question-area""></div> 
                </div>","null","","","","","","","","","","","",""
"","","","","","html-button-response","173","951208","0.0-173.0","7E960798CC674DBD9E28A300CE3419EB","019d6b11-e54d-7299-81b6-d39499d84b84","019d6ae6-5d89-74c6-b581-3918d1816346","","1089","
                <div class=""stimulus-container"">
                    <img src=""images/causal_sequence/museum_causal/museum_causal_5.png"" class=""exp-image"">
                    <div class=""question-area"">
                        <p style=""font-size: 20px; font-weight: bold; margin: 0;"">Is there a person in this image?</p>
                    </div>
                </div>","0","main_experiment_trial","5","museum_causal","causal_sequence","chronological","","","","","","",""
"","","","","","html-keyboard-response","174","956209","0.0-174.0","7E960798CC674DBD9E28A300CE3419EB","019d6b11-e54d-7299-81b6-d39499d84b84","019d6ae6-5d89-74c6-b581-3918d1816346","","null","
                <div class=""stimulus-container"">
                    <img src=""images/causal_sequence/museum_causal/museum_causal_6.png"" class=""exp-image"">
                    <div class=""question-area""></div> 
                </div>","null","","","","","","","","","","","",""
"","","","","","html-button-response","175","956782","0.0-175.0","7E960798CC674DBD9E28A300CE3419EB","019d6b11-e54d-7299-81b6-d39499d84b84","019d6ae6-5d89-74c6-b581-3918d1816346","","572","
                <div class=""stimulus-container"">
                    <img src=""images/causal_sequence/museum_causal/museum_causal_6.png"" class=""exp-image"">
                    <div class=""question-area"">
                        <p style=""font-size: 20px; font-weight: bold; margin: 0;"">Is there a person in this image?</p>
                    </div>
                </div>","0","main_experiment_trial","6","museum_causal","causal_sequence","chronological","","","","","","",""
"","","","","","html-keyboard-response","176","961796","0.0-176.0","7E960798CC674DBD9E28A300CE3419EB","019d6b11-e54d-7299-81b6-d39499d84b84","019d6ae6-5d89-74c6-b581-3918d1816346","","null","
                <div class=""stimulus-container"">
                    <img src=""images/causal_sequence/museum_causal/museum_causal_7.png"" class=""exp-image"">
                    <div class=""question-area""></div> 
                </div>","null","","","","","","","","","","","",""
"","","","","","html-button-response","177","962798","0.0-177.0","7E960798CC674DBD9E28A300CE3419EB","019d6b11-e54d-7299-81b6-d39499d84b84","019d6ae6-5d89-74c6-b581-3918d1816346","","1001","
                <div class=""stimulus-container"">
                    <img src=""images/causal_sequence/museum_causal/museum_causal_7.png"" class=""exp-image"">
                    <div class=""question-area"">
                        <p style=""font-size: 20px; font-weight: bold; margin: 0;"">Is there a person in this image?</p>
                    </div>
                </div>","1","main_experiment_trial","7","museum_causal","causal_sequence","chronological","","","","","","",""
