"success","timeout","failed_images","failed_audio","failed_video","trial_type","trial_index","time_elapsed","internal_node_id","subject_id","study_id","session_id","view_history","rt","stimulus","response","task","image_index","folder","valuable_image_index","valuable_X","chosen_image_index","distance_from_X"
"false","false","[]","[]","[]","preload","0","9674","0.0-0.0","CE4FE7F1882B457DB36AFC66D7A5F813","019ce76a-d192-7ce8-97ae-c62e331bfe0c","019ce768-b048-7627-b827-888248f65c31","","","","","","","","","","",""
"","","","","","instructions","1","11993","0.0-1.0","CE4FE7F1882B457DB36AFC66D7A5F813","019ce76a-d192-7ce8-97ae-c62e331bfe0c","019ce768-b048-7627-b827-888248f65c31","[{""page_index"":0,""viewing_time"":2317}]","2318","","","","","","","","",""
"","","","","","instructions","2","40968","0.0-2.0","CE4FE7F1882B457DB36AFC66D7A5F813","019ce76a-d192-7ce8-97ae-c62e331bfe0c","019ce768-b048-7627-b827-888248f65c31","[{""page_index"":0,""viewing_time"":28972}]","28972","","","","","","","","",""
"true","","","","","fullscreen","3","43433","0.0-3.0","CE4FE7F1882B457DB36AFC66D7A5F813","019ce76a-d192-7ce8-97ae-c62e331bfe0c","019ce768-b048-7627-b827-888248f65c31","","1462","","","","","","","","",""
"","","","","","instructions","4","49959","0.0-4.0","CE4FE7F1882B457DB36AFC66D7A5F813","019ce76a-d192-7ce8-97ae-c62e331bfe0c","019ce768-b048-7627-b827-888248f65c31","[{""page_index"":0,""viewing_time"":6525}]","6525","","","","","","","","",""
"","","","","","instructions","5","53288","0.0-5.0","CE4FE7F1882B457DB36AFC66D7A5F813","019ce76a-d192-7ce8-97ae-c62e331bfe0c","019ce768-b048-7627-b827-888248f65c31","[{""page_index"":0,""viewing_time"":3328}]","3328","","","","","","","","",""
"","","","","","html-keyboard-response","6","57291","0.0-6.0","CE4FE7F1882B457DB36AFC66D7A5F813","019ce76a-d192-7ce8-97ae-c62e331bfe0c","019ce768-b048-7627-b827-888248f65c31","","null","
                <div class=""stimulus-container"">
                    <img src=""images/instructions/movie_1.png"" class=""exp-image"">
                    <div class=""question-area""></div> 
                </div>","null","","","","","","",""
"","","","","","html-button-response","7","59428","0.0-7.0","CE4FE7F1882B457DB36AFC66D7A5F813","019ce76a-d192-7ce8-97ae-c62e331bfe0c","019ce768-b048-7627-b827-888248f65c31","","2133","
                <div class=""stimulus-container"">
                    <img src=""images/instructions/movie_1.png"" class=""exp-image"">
                    <div class=""question-area"">
                        <p style=""font-size: 20px; font-weight: bold; margin: 0;"">Was there a person in this image?</p>
                    </div>
                </div>","0","example_question","1","","","","",""
"","","","","","html-keyboard-response","8","63430","0.0-8.0","CE4FE7F1882B457DB36AFC66D7A5F813","019ce76a-d192-7ce8-97ae-c62e331bfe0c","019ce768-b048-7627-b827-888248f65c31","","null","
                <div class=""stimulus-container"">
                    <img src=""images/instructions/movie_2.png"" class=""exp-image"">
                    <div class=""question-area""></div> 
                </div>","null","","","","","","",""
"","","","","","html-button-response","9","66431","0.0-9.0","CE4FE7F1882B457DB36AFC66D7A5F813","019ce76a-d192-7ce8-97ae-c62e331bfe0c","019ce768-b048-7627-b827-888248f65c31","","null","
                <div class=""stimulus-container"">
                    <img src=""images/instructions/movie_2.png"" class=""exp-image"">
                    <div class=""question-area"">
                        <p style=""font-size: 20px; font-weight: bold; margin: 0;"">Was there a person in this image?</p>
                    </div>
                </div>","null","example_question","2","","","","",""
"","","","","","html-keyboard-response","10","70433","0.0-10.0","CE4FE7F1882B457DB36AFC66D7A5F813","019ce76a-d192-7ce8-97ae-c62e331bfe0c","019ce768-b048-7627-b827-888248f65c31","","null","
                <div class=""stimulus-container"">
                    <img src=""images/instructions/movie_3.png"" class=""exp-image"">
                    <div class=""question-area""></div> 
                </div>","null","","","","","","",""
"","","","","","html-button-response","11","71300","0.0-11.0","CE4FE7F1882B457DB36AFC66D7A5F813","019ce76a-d192-7ce8-97ae-c62e331bfe0c","019ce768-b048-7627-b827-888248f65c31","","865","
                <div class=""stimulus-container"">
                    <img src=""images/instructions/movie_3.png"" class=""exp-image"">
                    <div class=""question-area"">
                        <p style=""font-size: 20px; font-weight: bold; margin: 0;"">Was there a person in this image?</p>
                    </div>
                </div>","0","example_question","3","","","","",""
"","","","","","html-keyboard-response","12","75302","0.0-12.0","CE4FE7F1882B457DB36AFC66D7A5F813","019ce76a-d192-7ce8-97ae-c62e331bfe0c","019ce768-b048-7627-b827-888248f65c31","","null","
                <div class=""stimulus-container"">
                    <img src=""images/instructions/movie_4.png"" class=""exp-image"">
                    <div class=""question-area""></div> 
                </div>","null","","","","","","",""
"","","","","","html-button-response","13","75830","0.0-13.0","CE4FE7F1882B457DB36AFC66D7A5F813","019ce76a-d192-7ce8-97ae-c62e331bfe0c","019ce768-b048-7627-b827-888248f65c31","","526","
                <div class=""stimulus-container"">
                    <img src=""images/instructions/movie_4.png"" class=""exp-image"">
                    <div class=""question-area"">
                        <p style=""font-size: 20px; font-weight: bold; margin: 0;"">Was there a person in this image?</p>
                    </div>
                </div>","0","example_question","4","","","","",""
"","","","","","instructions","14","77028","0.0-14.0","CE4FE7F1882B457DB36AFC66D7A5F813","019ce76a-d192-7ce8-97ae-c62e331bfe0c","019ce768-b048-7627-b827-888248f65c31","[{""page_index"":0,""viewing_time"":1198}]","1198","","","","","","","","",""
"","","","","","html-keyboard-response","15","78030","0.0-15.0","CE4FE7F1882B457DB36AFC66D7A5F813","019ce76a-d192-7ce8-97ae-c62e331bfe0c","019ce768-b048-7627-b827-888248f65c31","","null","<div style=""background-color: gray; width: 100vw; height: 100vh;""></div>","null","","","","","","",""
"","","","","","html-keyboard-response","16","83032","0.0-16.0","CE4FE7F1882B457DB36AFC66D7A5F813","019ce76a-d192-7ce8-97ae-c62e331bfe0c","019ce768-b048-7627-b827-888248f65c31","","null","
                    <div class=""stimulus-container"">
                        <img src=""images/causal_sequence/package_causal/package_causal_1.png"" class=""exp-image"">
                        <div class=""question-area""></div> 
                    </div>","null","","","","","","",""
"","","","","","html-button-response","17","84034","0.0-17.0","CE4FE7F1882B457DB36AFC66D7A5F813","019ce76a-d192-7ce8-97ae-c62e331bfe0c","019ce768-b048-7627-b827-888248f65c31","","1000","
                    <div class=""stimulus-container"">
                        <img src=""images/causal_sequence/package_causal/package_causal_1.png"" class=""exp-image"">
                        <div class=""question-area"">
                            <p style=""font-size: 20px; font-weight: bold; margin: 0;"">Is there a person in this image?</p>
                        </div>
                    </div>","0","main_causal_task","1","package_causal","","","",""
"","","","","","html-keyboard-response","18","89036","0.0-18.0","CE4FE7F1882B457DB36AFC66D7A5F813","019ce76a-d192-7ce8-97ae-c62e331bfe0c","019ce768-b048-7627-b827-888248f65c31","","null","
                    <div class=""stimulus-container"">
                        <img src=""images/causal_sequence/package_causal/package_causal_2.png"" class=""exp-image"">
                        <div class=""question-area""></div> 
                    </div>","null","","","","","","",""
"","","","","","html-button-response","19","89625","0.0-19.0","CE4FE7F1882B457DB36AFC66D7A5F813","019ce76a-d192-7ce8-97ae-c62e331bfe0c","019ce768-b048-7627-b827-888248f65c31","","587","
                    <div class=""stimulus-container"">
                        <img src=""images/causal_sequence/package_causal/package_causal_2.png"" class=""exp-image"">
                        <div class=""question-area"">
                            <p style=""font-size: 20px; font-weight: bold; margin: 0;"">Is there a person in this image?</p>
                        </div>
                    </div>","0","main_causal_task","2","package_causal","","","",""
"","","","","","html-keyboard-response","20","94626","0.0-20.0","CE4FE7F1882B457DB36AFC66D7A5F813","019ce76a-d192-7ce8-97ae-c62e331bfe0c","019ce768-b048-7627-b827-888248f65c31","","null","
                    <div class=""stimulus-container"">
                        <img src=""images/causal_sequence/package_causal/package_causal_3.png"" class=""exp-image"">
                        <div class=""question-area""></div> 
                    </div>","null","","","","","","",""
"","","","","","html-button-response","21","95223","0.0-21.0","CE4FE7F1882B457DB36AFC66D7A5F813","019ce76a-d192-7ce8-97ae-c62e331bfe0c","019ce768-b048-7627-b827-888248f65c31","","596","
                    <div class=""stimulus-container"">
                        <img src=""images/causal_sequence/package_causal/package_causal_3.png"" class=""exp-image"">
                        <div class=""question-area"">
                            <p style=""font-size: 20px; font-weight: bold; margin: 0;"">Is there a person in this image?</p>
                        </div>
                    </div>","0","main_causal_task","3","package_causal","","","",""
"","","","","","html-keyboard-response","22","100225","0.0-22.0","CE4FE7F1882B457DB36AFC66D7A5F813","019ce76a-d192-7ce8-97ae-c62e331bfe0c","019ce768-b048-7627-b827-888248f65c31","","null","
                    <div class=""stimulus-container"">
                        <img src=""images/causal_sequence/package_causal/package_causal_4.png"" class=""exp-image"">
                        <div class=""question-area""></div> 
                    </div>","null","","","","","","",""
"","","","","","html-button-response","23","100943","0.0-23.0","CE4FE7F1882B457DB36AFC66D7A5F813","019ce76a-d192-7ce8-97ae-c62e331bfe0c","019ce768-b048-7627-b827-888248f65c31","","715","
                    <div class=""stimulus-container"">
                        <img src=""images/causal_sequence/package_causal/package_causal_4.png"" class=""exp-image"">
                        <div class=""question-area"">
                            <p style=""font-size: 20px; font-weight: bold; margin: 0;"">Is there a person in this image?</p>
                        </div>
                    </div>","1","main_causal_task","4","package_causal","","","",""
"","","","","","html-keyboard-response","24","105945","0.0-24.0","CE4FE7F1882B457DB36AFC66D7A5F813","019ce76a-d192-7ce8-97ae-c62e331bfe0c","019ce768-b048-7627-b827-888248f65c31","","null","
                    <div class=""stimulus-container"">
                        <img src=""images/causal_sequence/package_causal/package_causal_5.png"" class=""exp-image"">
                        <div class=""question-area""></div> 
                    </div>","null","","","","","","",""
"","","","","","html-button-response","25","106536","0.0-25.0","CE4FE7F1882B457DB36AFC66D7A5F813","019ce76a-d192-7ce8-97ae-c62e331bfe0c","019ce768-b048-7627-b827-888248f65c31","","590","
                    <div class=""stimulus-container"">
                        <img src=""images/causal_sequence/package_causal/package_causal_5.png"" class=""exp-image"">
                        <div class=""question-area"">
                            <p style=""font-size: 20px; font-weight: bold; margin: 0;"">Is there a person in this image?</p>
                        </div>
                    </div>","0","main_causal_task","5","package_causal","","","",""
"","","","","","html-keyboard-response","26","111537","0.0-26.0","CE4FE7F1882B457DB36AFC66D7A5F813","019ce76a-d192-7ce8-97ae-c62e331bfe0c","019ce768-b048-7627-b827-888248f65c31","","null","
                    <div class=""stimulus-container"">
                        <img src=""images/causal_sequence/package_causal/package_causal_6.png"" class=""exp-image"">
                        <div class=""question-area""></div> 
                    </div>","null","","","","","","",""
"","","","","","html-button-response","27","112125","0.0-27.0","CE4FE7F1882B457DB36AFC66D7A5F813","019ce76a-d192-7ce8-97ae-c62e331bfe0c","019ce768-b048-7627-b827-888248f65c31","","586","
                    <div class=""stimulus-container"">
                        <img src=""images/causal_sequence/package_causal/package_causal_6.png"" class=""exp-image"">
                        <div class=""question-area"">
                            <p style=""font-size: 20px; font-weight: bold; margin: 0;"">Is there a person in this image?</p>
                        </div>
                    </div>","0","main_causal_task","6","package_causal","","","",""
"","","","","","html-keyboard-response","28","117127","0.0-28.0","CE4FE7F1882B457DB36AFC66D7A5F813","019ce76a-d192-7ce8-97ae-c62e331bfe0c","019ce768-b048-7627-b827-888248f65c31","","null","
                    <div class=""stimulus-container"">
                        <img src=""images/causal_sequence/package_causal/package_causal_7.png"" class=""exp-image"">
                        <div class=""question-area""></div> 
                    </div>","null","","","","","","",""
"","","","","","html-button-response","29","117746","0.0-29.0","CE4FE7F1882B457DB36AFC66D7A5F813","019ce76a-d192-7ce8-97ae-c62e331bfe0c","019ce768-b048-7627-b827-888248f65c31","","617","
                    <div class=""stimulus-container"">
                        <img src=""images/causal_sequence/package_causal/package_causal_7.png"" class=""exp-image"">
                        <div class=""question-area"">
                            <p style=""font-size: 20px; font-weight: bold; margin: 0;"">Is there a person in this image?</p>
                        </div>
                    </div>","0","main_causal_task","7","package_causal","","","",""
"","","","","","html-keyboard-response","30","122748","0.0-30.0","CE4FE7F1882B457DB36AFC66D7A5F813","019ce76a-d192-7ce8-97ae-c62e331bfe0c","019ce768-b048-7627-b827-888248f65c31","","null","
                    <div class=""stimulus-container"">
                        <img src=""images/causal_sequence/package_causal/package_causal_8.png"" class=""exp-image"">
                        <div class=""question-area""></div> 
                    </div>","null","","","","","","",""
"","","","","","html-button-response","31","123315","0.0-31.0","CE4FE7F1882B457DB36AFC66D7A5F813","019ce76a-d192-7ce8-97ae-c62e331bfe0c","019ce768-b048-7627-b827-888248f65c31","","566","
                    <div class=""stimulus-container"">
                        <img src=""images/causal_sequence/package_causal/package_causal_8.png"" class=""exp-image"">
                        <div class=""question-area"">
                            <p style=""font-size: 20px; font-weight: bold; margin: 0;"">Is there a person in this image?</p>
                        </div>
                    </div>","0","main_causal_task","8","package_causal","","","",""
"","","","","","html-keyboard-response","32","128317","0.0-32.0","CE4FE7F1882B457DB36AFC66D7A5F813","019ce76a-d192-7ce8-97ae-c62e331bfe0c","019ce768-b048-7627-b827-888248f65c31","","null","
                    <div class=""stimulus-container"">
                        <img src=""images/causal_sequence/package_causal/package_causal_9.png"" class=""exp-image"">
                        <div class=""question-area""></div> 
                    </div>","null","","","","","","",""
"","","","","","html-button-response","33","128803","0.0-33.0","CE4FE7F1882B457DB36AFC66D7A5F813","019ce76a-d192-7ce8-97ae-c62e331bfe0c","019ce768-b048-7627-b827-888248f65c31","","484","
                    <div class=""stimulus-container"">
                        <img src=""images/causal_sequence/package_causal/package_causal_9.png"" class=""exp-image"">
                        <div class=""question-area"">
                            <p style=""font-size: 20px; font-weight: bold; margin: 0;"">Is there a person in this image?</p>
                        </div>
                    </div>","0","main_causal_task","9","package_causal","","","",""
"","","","","","html-keyboard-response","34","129805","0.0-34.0","CE4FE7F1882B457DB36AFC66D7A5F813","019ce76a-d192-7ce8-97ae-c62e331bfe0c","019ce768-b048-7627-b827-888248f65c31","","null","<div style=""background-color: gray; width: 100vw; height: 100vh;""></div>","null","","","","","","",""
"","","","","","html-keyboard-response","35","134806","0.0-35.0","CE4FE7F1882B457DB36AFC66D7A5F813","019ce76a-d192-7ce8-97ae-c62e331bfe0c","019ce768-b048-7627-b827-888248f65c31","","null","
                    <div class=""stimulus-container"">
                        <img src=""images/causal_sequence/museum_causal/museum_causal_1.png"" class=""exp-image"">
                        <div class=""question-area""></div> 
                    </div>","null","","","","","","",""
"","","","","","html-button-response","36","135405","0.0-36.0","CE4FE7F1882B457DB36AFC66D7A5F813","019ce76a-d192-7ce8-97ae-c62e331bfe0c","019ce768-b048-7627-b827-888248f65c31","","597","
                    <div class=""stimulus-container"">
                        <img src=""images/causal_sequence/museum_causal/museum_causal_1.png"" class=""exp-image"">
                        <div class=""question-area"">
                            <p style=""font-size: 20px; font-weight: bold; margin: 0;"">Is there a person in this image?</p>
                        </div>
                    </div>","0","main_causal_task","1","museum_causal","","","",""
"","","","","","html-keyboard-response","37","140406","0.0-37.0","CE4FE7F1882B457DB36AFC66D7A5F813","019ce76a-d192-7ce8-97ae-c62e331bfe0c","019ce768-b048-7627-b827-888248f65c31","","null","
                    <div class=""stimulus-container"">
                        <img src=""images/causal_sequence/museum_causal/museum_causal_2.png"" class=""exp-image"">
                        <div class=""question-area""></div> 
                    </div>","null","","","","","","",""
"","","","","","html-button-response","38","141139","0.0-38.0","CE4FE7F1882B457DB36AFC66D7A5F813","019ce76a-d192-7ce8-97ae-c62e331bfe0c","019ce768-b048-7627-b827-888248f65c31","","731","
                    <div class=""stimulus-container"">
                        <img src=""images/causal_sequence/museum_causal/museum_causal_2.png"" class=""exp-image"">
                        <div class=""question-area"">
                            <p style=""font-size: 20px; font-weight: bold; margin: 0;"">Is there a person in this image?</p>
                        </div>
                    </div>","1","main_causal_task","2","museum_causal","","","",""
"","","","","","html-keyboard-response","39","146141","0.0-39.0","CE4FE7F1882B457DB36AFC66D7A5F813","019ce76a-d192-7ce8-97ae-c62e331bfe0c","019ce768-b048-7627-b827-888248f65c31","","null","
                    <div class=""stimulus-container"">
                        <img src=""images/causal_sequence/museum_causal/museum_causal_3.png"" class=""exp-image"">
                        <div class=""question-area""></div> 
                    </div>","null","","","","","","",""
"","","","","","html-button-response","40","146654","0.0-40.0","CE4FE7F1882B457DB36AFC66D7A5F813","019ce76a-d192-7ce8-97ae-c62e331bfe0c","019ce768-b048-7627-b827-888248f65c31","","511","
                    <div class=""stimulus-container"">
                        <img src=""images/causal_sequence/museum_causal/museum_causal_3.png"" class=""exp-image"">
                        <div class=""question-area"">
                            <p style=""font-size: 20px; font-weight: bold; margin: 0;"">Is there a person in this image?</p>
                        </div>
                    </div>","0","main_causal_task","3","museum_causal","","","",""
"","","","","","html-keyboard-response","41","151656","0.0-41.0","CE4FE7F1882B457DB36AFC66D7A5F813","019ce76a-d192-7ce8-97ae-c62e331bfe0c","019ce768-b048-7627-b827-888248f65c31","","null","
                    <div class=""stimulus-container"">
                        <img src=""images/causal_sequence/museum_causal/museum_causal_4.png"" class=""exp-image"">
                        <div class=""question-area""></div> 
                    </div>","null","","","","","","",""
"","","","","","html-button-response","42","152179","0.0-42.0","CE4FE7F1882B457DB36AFC66D7A5F813","019ce76a-d192-7ce8-97ae-c62e331bfe0c","019ce768-b048-7627-b827-888248f65c31","","520","
                    <div class=""stimulus-container"">
                        <img src=""images/causal_sequence/museum_causal/museum_causal_4.png"" class=""exp-image"">
                        <div class=""question-area"">
                            <p style=""font-size: 20px; font-weight: bold; margin: 0;"">Is there a person in this image?</p>
                        </div>
                    </div>","1","main_causal_task","4","museum_causal","","","",""
"","","","","","html-keyboard-response","43","157181","0.0-43.0","CE4FE7F1882B457DB36AFC66D7A5F813","019ce76a-d192-7ce8-97ae-c62e331bfe0c","019ce768-b048-7627-b827-888248f65c31","","null","
                    <div class=""stimulus-container"">
                        <img src=""images/causal_sequence/museum_causal/museum_causal_5.png"" class=""exp-image"">
                        <div class=""question-area""></div> 
                    </div>","null","","","","","","",""
"","","","","","html-button-response","44","157692","0.0-44.0","CE4FE7F1882B457DB36AFC66D7A5F813","019ce76a-d192-7ce8-97ae-c62e331bfe0c","019ce768-b048-7627-b827-888248f65c31","","509","
                    <div class=""stimulus-container"">
                        <img src=""images/causal_sequence/museum_causal/museum_causal_5.png"" class=""exp-image"">
                        <div class=""question-area"">
                            <p style=""font-size: 20px; font-weight: bold; margin: 0;"">Is there a person in this image?</p>
                        </div>
                    </div>","0","main_causal_task","5","museum_causal","","","",""
"","","","","","html-keyboard-response","45","162694","0.0-45.0","CE4FE7F1882B457DB36AFC66D7A5F813","019ce76a-d192-7ce8-97ae-c62e331bfe0c","019ce768-b048-7627-b827-888248f65c31","","null","
                    <div class=""stimulus-container"">
                        <img src=""images/causal_sequence/museum_causal/museum_causal_6.png"" class=""exp-image"">
                        <div class=""question-area""></div> 
                    </div>","null","","","","","","",""
"","","","","","html-button-response","46","163313","0.0-46.0","CE4FE7F1882B457DB36AFC66D7A5F813","019ce76a-d192-7ce8-97ae-c62e331bfe0c","019ce768-b048-7627-b827-888248f65c31","","617","
                    <div class=""stimulus-container"">
                        <img src=""images/causal_sequence/museum_causal/museum_causal_6.png"" class=""exp-image"">
                        <div class=""question-area"">
                            <p style=""font-size: 20px; font-weight: bold; margin: 0;"">Is there a person in this image?</p>
                        </div>
                    </div>","0","main_causal_task","6","museum_causal","","","",""
"","","","","","html-keyboard-response","47","168315","0.0-47.0","CE4FE7F1882B457DB36AFC66D7A5F813","019ce76a-d192-7ce8-97ae-c62e331bfe0c","019ce768-b048-7627-b827-888248f65c31","","null","
                    <div class=""stimulus-container"">
                        <img src=""images/causal_sequence/museum_causal/museum_causal_7.png"" class=""exp-image"">
                        <div class=""question-area""></div> 
                    </div>","null","","","","","","",""
"","","","","","html-button-response","48","168868","0.0-48.0","CE4FE7F1882B457DB36AFC66D7A5F813","019ce76a-d192-7ce8-97ae-c62e331bfe0c","019ce768-b048-7627-b827-888248f65c31","","552","
                    <div class=""stimulus-container"">
                        <img src=""images/causal_sequence/museum_causal/museum_causal_7.png"" class=""exp-image"">
                        <div class=""question-area"">
                            <p style=""font-size: 20px; font-weight: bold; margin: 0;"">Is there a person in this image?</p>
                        </div>
                    </div>","1","main_causal_task","7","museum_causal","","","",""
"","","","","","html-keyboard-response","49","173870","0.0-49.0","CE4FE7F1882B457DB36AFC66D7A5F813","019ce76a-d192-7ce8-97ae-c62e331bfe0c","019ce768-b048-7627-b827-888248f65c31","","null","
                    <div class=""stimulus-container"">
                        <img src=""images/causal_sequence/museum_causal/museum_causal_8.png"" class=""exp-image"">
                        <div class=""question-area""></div> 
                    </div>","null","","","","","","",""
"","","","","","html-button-response","50","174392","0.0-50.0","CE4FE7F1882B457DB36AFC66D7A5F813","019ce76a-d192-7ce8-97ae-c62e331bfe0c","019ce768-b048-7627-b827-888248f65c31","","520","
                    <div class=""stimulus-container"">
                        <img src=""images/causal_sequence/museum_causal/museum_causal_8.png"" class=""exp-image"">
                        <div class=""question-area"">
                            <p style=""font-size: 20px; font-weight: bold; margin: 0;"">Is there a person in this image?</p>
                        </div>
                    </div>","0","main_causal_task","8","museum_causal","","","",""
"","","","","","html-keyboard-response","51","179394","0.0-51.0","CE4FE7F1882B457DB36AFC66D7A5F813","019ce76a-d192-7ce8-97ae-c62e331bfe0c","019ce768-b048-7627-b827-888248f65c31","","null","
                    <div class=""stimulus-container"">
                        <img src=""images/causal_sequence/museum_causal/museum_causal_9.png"" class=""exp-image"">
                        <div class=""question-area""></div> 
                    </div>","null","","","","","","",""
"","","","","","html-button-response","52","180170","0.0-52.0","CE4FE7F1882B457DB36AFC66D7A5F813","019ce76a-d192-7ce8-97ae-c62e331bfe0c","019ce768-b048-7627-b827-888248f65c31","","774","
                    <div class=""stimulus-container"">
                        <img src=""images/causal_sequence/museum_causal/museum_causal_9.png"" class=""exp-image"">
                        <div class=""question-area"">
                            <p style=""font-size: 20px; font-weight: bold; margin: 0;"">Is there a person in this image?</p>
                        </div>
                    </div>","1","main_causal_task","9","museum_causal","","","",""
"","","","","","html-keyboard-response","53","181171","0.0-53.0","CE4FE7F1882B457DB36AFC66D7A5F813","019ce76a-d192-7ce8-97ae-c62e331bfe0c","019ce768-b048-7627-b827-888248f65c31","","null","<div style=""background-color: gray; width: 100vw; height: 100vh;""></div>","null","","","","","","",""
"","","","","","html-keyboard-response","54","186172","0.0-54.0","CE4FE7F1882B457DB36AFC66D7A5F813","019ce76a-d192-7ce8-97ae-c62e331bfe0c","019ce768-b048-7627-b827-888248f65c31","","null","
                    <div class=""stimulus-container"">
                        <img src=""images/causal_sequence/saving_a_cat_causal/saving_a_cat_causal_1.png"" class=""exp-image"">
                        <div class=""question-area""></div> 
                    </div>","null","","","","","","",""
"","","","","","html-button-response","55","187163","0.0-55.0","CE4FE7F1882B457DB36AFC66D7A5F813","019ce76a-d192-7ce8-97ae-c62e331bfe0c","019ce768-b048-7627-b827-888248f65c31","","988","
                    <div class=""stimulus-container"">
                        <img src=""images/causal_sequence/saving_a_cat_causal/saving_a_cat_causal_1.png"" class=""exp-image"">
                        <div class=""question-area"">
                            <p style=""font-size: 20px; font-weight: bold; margin: 0;"">Is there a person in this image?</p>
                        </div>
                    </div>","0","main_causal_task","1","saving_a_cat_causal","","","",""
"","","","","","html-keyboard-response","56","192164","0.0-56.0","CE4FE7F1882B457DB36AFC66D7A5F813","019ce76a-d192-7ce8-97ae-c62e331bfe0c","019ce768-b048-7627-b827-888248f65c31","","null","
                    <div class=""stimulus-container"">
                        <img src=""images/causal_sequence/saving_a_cat_causal/saving_a_cat_causal_2.png"" class=""exp-image"">
                        <div class=""question-area""></div> 
                    </div>","null","","","","","","",""
"","","","","","html-button-response","57","192880","0.0-57.0","CE4FE7F1882B457DB36AFC66D7A5F813","019ce76a-d192-7ce8-97ae-c62e331bfe0c","019ce768-b048-7627-b827-888248f65c31","","714","
                    <div class=""stimulus-container"">
                        <img src=""images/causal_sequence/saving_a_cat_causal/saving_a_cat_causal_2.png"" class=""exp-image"">
                        <div class=""question-area"">
                            <p style=""font-size: 20px; font-weight: bold; margin: 0;"">Is there a person in this image?</p>
                        </div>
                    </div>","1","main_causal_task","2","saving_a_cat_causal","","","",""
"","","","","","html-keyboard-response","58","197882","0.0-58.0","CE4FE7F1882B457DB36AFC66D7A5F813","019ce76a-d192-7ce8-97ae-c62e331bfe0c","019ce768-b048-7627-b827-888248f65c31","","null","
                    <div class=""stimulus-container"">
                        <img src=""images/causal_sequence/saving_a_cat_causal/saving_a_cat_causal_3.png"" class=""exp-image"">
                        <div class=""question-area""></div> 
                    </div>","null","","","","","","",""
"","","","","","html-button-response","59","198515","0.0-59.0","CE4FE7F1882B457DB36AFC66D7A5F813","019ce76a-d192-7ce8-97ae-c62e331bfe0c","019ce768-b048-7627-b827-888248f65c31","","631","
                    <div class=""stimulus-container"">
                        <img src=""images/causal_sequence/saving_a_cat_causal/saving_a_cat_causal_3.png"" class=""exp-image"">
                        <div class=""question-area"">
                            <p style=""font-size: 20px; font-weight: bold; margin: 0;"">Is there a person in this image?</p>
                        </div>
                    </div>","1","main_causal_task","3","saving_a_cat_causal","","","",""
"","","","","","html-keyboard-response","60","203517","0.0-60.0","CE4FE7F1882B457DB36AFC66D7A5F813","019ce76a-d192-7ce8-97ae-c62e331bfe0c","019ce768-b048-7627-b827-888248f65c31","","null","
                    <div class=""stimulus-container"">
                        <img src=""images/causal_sequence/saving_a_cat_causal/saving_a_cat_causal_4.png"" class=""exp-image"">
                        <div class=""question-area""></div> 
                    </div>","null","","","","","","",""
"","","","","","html-button-response","61","204035","0.0-61.0","CE4FE7F1882B457DB36AFC66D7A5F813","019ce76a-d192-7ce8-97ae-c62e331bfe0c","019ce768-b048-7627-b827-888248f65c31","","514","
                    <div class=""stimulus-container"">
                        <img src=""images/causal_sequence/saving_a_cat_causal/saving_a_cat_causal_4.png"" class=""exp-image"">
                        <div class=""question-area"">
                            <p style=""font-size: 20px; font-weight: bold; margin: 0;"">Is there a person in this image?</p>
                        </div>
                    </div>","0","main_causal_task","4","saving_a_cat_causal","","","",""
"","","","","","html-keyboard-response","62","209036","0.0-62.0","CE4FE7F1882B457DB36AFC66D7A5F813","019ce76a-d192-7ce8-97ae-c62e331bfe0c","019ce768-b048-7627-b827-888248f65c31","","null","
                    <div class=""stimulus-container"">
                        <img src=""images/causal_sequence/saving_a_cat_causal/saving_a_cat_causal_5.png"" class=""exp-image"">
                        <div class=""question-area""></div> 
                    </div>","null","","","","","","",""
"","","","","","html-button-response","63","209959","0.0-63.0","CE4FE7F1882B457DB36AFC66D7A5F813","019ce76a-d192-7ce8-97ae-c62e331bfe0c","019ce768-b048-7627-b827-888248f65c31","","921","
                    <div class=""stimulus-container"">
                        <img src=""images/causal_sequence/saving_a_cat_causal/saving_a_cat_causal_5.png"" class=""exp-image"">
                        <div class=""question-area"">
                            <p style=""font-size: 20px; font-weight: bold; margin: 0;"">Is there a person in this image?</p>
                        </div>
                    </div>","0","main_causal_task","5","saving_a_cat_causal","","","",""
"","","","","","html-keyboard-response","64","214960","0.0-64.0","CE4FE7F1882B457DB36AFC66D7A5F813","019ce76a-d192-7ce8-97ae-c62e331bfe0c","019ce768-b048-7627-b827-888248f65c31","","null","
                    <div class=""stimulus-container"">
                        <img src=""images/causal_sequence/saving_a_cat_causal/saving_a_cat_causal_6.png"" class=""exp-image"">
                        <div class=""question-area""></div> 
                    </div>","null","","","","","","",""
"","","","","","html-button-response","65","216103","0.0-65.0","CE4FE7F1882B457DB36AFC66D7A5F813","019ce76a-d192-7ce8-97ae-c62e331bfe0c","019ce768-b048-7627-b827-888248f65c31","","1140","
                    <div class=""stimulus-container"">
                        <img src=""images/causal_sequence/saving_a_cat_causal/saving_a_cat_causal_6.png"" class=""exp-image"">
                        <div class=""question-area"">
                            <p style=""font-size: 20px; font-weight: bold; margin: 0;"">Is there a person in this image?</p>
                        </div>
                    </div>","0","main_causal_task","6","saving_a_cat_causal","","","",""
"","","","","","html-keyboard-response","66","221104","0.0-66.0","CE4FE7F1882B457DB36AFC66D7A5F813","019ce76a-d192-7ce8-97ae-c62e331bfe0c","019ce768-b048-7627-b827-888248f65c31","","null","
                    <div class=""stimulus-container"">
                        <img src=""images/causal_sequence/saving_a_cat_causal/saving_a_cat_causal_7.png"" class=""exp-image"">
                        <div class=""question-area""></div> 
                    </div>","null","","","","","","",""
"","","","","","html-button-response","67","222958","0.0-67.0","CE4FE7F1882B457DB36AFC66D7A5F813","019ce76a-d192-7ce8-97ae-c62e331bfe0c","019ce768-b048-7627-b827-888248f65c31","","1852","
                    <div class=""stimulus-container"">
                        <img src=""images/causal_sequence/saving_a_cat_causal/saving_a_cat_causal_7.png"" class=""exp-image"">
                        <div class=""question-area"">
                            <p style=""font-size: 20px; font-weight: bold; margin: 0;"">Is there a person in this image?</p>
                        </div>
                    </div>","0","main_causal_task","7","saving_a_cat_causal","","","",""
"","","","","","html-keyboard-response","68","227959","0.0-68.0","CE4FE7F1882B457DB36AFC66D7A5F813","019ce76a-d192-7ce8-97ae-c62e331bfe0c","019ce768-b048-7627-b827-888248f65c31","","null","
                    <div class=""stimulus-container"">
                        <img src=""images/causal_sequence/saving_a_cat_causal/saving_a_cat_causal_8.png"" class=""exp-image"">
                        <div class=""question-area""></div> 
                    </div>","null","","","","","","",""
"","","","","","html-button-response","69","228857","0.0-69.0","CE4FE7F1882B457DB36AFC66D7A5F813","019ce76a-d192-7ce8-97ae-c62e331bfe0c","019ce768-b048-7627-b827-888248f65c31","","896","
                    <div class=""stimulus-container"">
                        <img src=""images/causal_sequence/saving_a_cat_causal/saving_a_cat_causal_8.png"" class=""exp-image"">
                        <div class=""question-area"">
                            <p style=""font-size: 20px; font-weight: bold; margin: 0;"">Is there a person in this image?</p>
                        </div>
                    </div>","0","main_causal_task","8","saving_a_cat_causal","","","",""
"","","","","","html-keyboard-response","70","233859","0.0-70.0","CE4FE7F1882B457DB36AFC66D7A5F813","019ce76a-d192-7ce8-97ae-c62e331bfe0c","019ce768-b048-7627-b827-888248f65c31","","null","
                    <div class=""stimulus-container"">
                        <img src=""images/causal_sequence/saving_a_cat_causal/saving_a_cat_causal_9.png"" class=""exp-image"">
                        <div class=""question-area""></div> 
                    </div>","null","","","","","","",""
"","","","","","html-button-response","71","234645","0.0-71.0","CE4FE7F1882B457DB36AFC66D7A5F813","019ce76a-d192-7ce8-97ae-c62e331bfe0c","019ce768-b048-7627-b827-888248f65c31","","784","
                    <div class=""stimulus-container"">
                        <img src=""images/causal_sequence/saving_a_cat_causal/saving_a_cat_causal_9.png"" class=""exp-image"">
                        <div class=""question-area"">
                            <p style=""font-size: 20px; font-weight: bold; margin: 0;"">Is there a person in this image?</p>
                        </div>
                    </div>","0","main_causal_task","9","saving_a_cat_causal","","","",""
"","","","","","html-keyboard-response","72","235647","0.0-72.0","CE4FE7F1882B457DB36AFC66D7A5F813","019ce76a-d192-7ce8-97ae-c62e331bfe0c","019ce768-b048-7627-b827-888248f65c31","","null","<div style=""background-color: gray; width: 100vw; height: 100vh;""></div>","null","","","","","","",""
"","","","","","html-keyboard-response","73","240648","0.0-73.0","CE4FE7F1882B457DB36AFC66D7A5F813","019ce76a-d192-7ce8-97ae-c62e331bfe0c","019ce768-b048-7627-b827-888248f65c31","","null","
                    <div class=""stimulus-container"">
                        <img src=""images/causal_sequence/coin_causal/coin_causal_1.png"" class=""exp-image"">
                        <div class=""question-area""></div> 
                    </div>","null","","","","","","",""
"","","","","","html-button-response","74","241740","0.0-74.0","CE4FE7F1882B457DB36AFC66D7A5F813","019ce76a-d192-7ce8-97ae-c62e331bfe0c","019ce768-b048-7627-b827-888248f65c31","","1091","
                    <div class=""stimulus-container"">
                        <img src=""images/causal_sequence/coin_causal/coin_causal_1.png"" class=""exp-image"">
                        <div class=""question-area"">
                            <p style=""font-size: 20px; font-weight: bold; margin: 0;"">Is there a person in this image?</p>
                        </div>
                    </div>","0","main_causal_task","1","coin_causal","","","",""
"","","","","","html-keyboard-response","75","246742","0.0-75.0","CE4FE7F1882B457DB36AFC66D7A5F813","019ce76a-d192-7ce8-97ae-c62e331bfe0c","019ce768-b048-7627-b827-888248f65c31","","null","
                    <div class=""stimulus-container"">
                        <img src=""images/causal_sequence/coin_causal/coin_causal_2.png"" class=""exp-image"">
                        <div class=""question-area""></div> 
                    </div>","null","","","","","","",""
"","","","","","html-button-response","76","248508","0.0-76.0","CE4FE7F1882B457DB36AFC66D7A5F813","019ce76a-d192-7ce8-97ae-c62e331bfe0c","019ce768-b048-7627-b827-888248f65c31","","1765","
                    <div class=""stimulus-container"">
                        <img src=""images/causal_sequence/coin_causal/coin_causal_2.png"" class=""exp-image"">
                        <div class=""question-area"">
                            <p style=""font-size: 20px; font-weight: bold; margin: 0;"">Is there a person in this image?</p>
                        </div>
                    </div>","0","main_causal_task","2","coin_causal","","","",""
"","","","","","html-keyboard-response","77","253510","0.0-77.0","CE4FE7F1882B457DB36AFC66D7A5F813","019ce76a-d192-7ce8-97ae-c62e331bfe0c","019ce768-b048-7627-b827-888248f65c31","","null","
                    <div class=""stimulus-container"">
                        <img src=""images/causal_sequence/coin_causal/coin_causal_3.png"" class=""exp-image"">
                        <div class=""question-area""></div> 
                    </div>","null","","","","","","",""
"","","","","","html-button-response","78","254359","0.0-78.0","CE4FE7F1882B457DB36AFC66D7A5F813","019ce76a-d192-7ce8-97ae-c62e331bfe0c","019ce768-b048-7627-b827-888248f65c31","","847","
                    <div class=""stimulus-container"">
                        <img src=""images/causal_sequence/coin_causal/coin_causal_3.png"" class=""exp-image"">
                        <div class=""question-area"">
                            <p style=""font-size: 20px; font-weight: bold; margin: 0;"">Is there a person in this image?</p>
                        </div>
                    </div>","0","main_causal_task","3","coin_causal","","","",""
"","","","","","html-keyboard-response","79","259361","0.0-79.0","CE4FE7F1882B457DB36AFC66D7A5F813","019ce76a-d192-7ce8-97ae-c62e331bfe0c","019ce768-b048-7627-b827-888248f65c31","","null","
                    <div class=""stimulus-container"">
                        <img src=""images/causal_sequence/coin_causal/coin_causal_4.png"" class=""exp-image"">
                        <div class=""question-area""></div> 
                    </div>","null","","","","","","",""
"","","","","","html-button-response","80","259912","0.0-80.0","CE4FE7F1882B457DB36AFC66D7A5F813","019ce76a-d192-7ce8-97ae-c62e331bfe0c","019ce768-b048-7627-b827-888248f65c31","","548","
                    <div class=""stimulus-container"">
                        <img src=""images/causal_sequence/coin_causal/coin_causal_4.png"" class=""exp-image"">
                        <div class=""question-area"">
                            <p style=""font-size: 20px; font-weight: bold; margin: 0;"">Is there a person in this image?</p>
                        </div>
                    </div>","0","main_causal_task","4","coin_causal","","","",""
"","","","","","html-keyboard-response","81","264913","0.0-81.0","CE4FE7F1882B457DB36AFC66D7A5F813","019ce76a-d192-7ce8-97ae-c62e331bfe0c","019ce768-b048-7627-b827-888248f65c31","","null","
                    <div class=""stimulus-container"">
                        <img src=""images/causal_sequence/coin_causal/coin_causal_5.png"" class=""exp-image"">
                        <div class=""question-area""></div> 
                    </div>","null","","","","","","",""
"","","","","","html-button-response","82","265754","0.0-82.0","CE4FE7F1882B457DB36AFC66D7A5F813","019ce76a-d192-7ce8-97ae-c62e331bfe0c","019ce768-b048-7627-b827-888248f65c31","","839","
                    <div class=""stimulus-container"">
                        <img src=""images/causal_sequence/coin_causal/coin_causal_5.png"" class=""exp-image"">
                        <div class=""question-area"">
                            <p style=""font-size: 20px; font-weight: bold; margin: 0;"">Is there a person in this image?</p>
                        </div>
                    </div>","0","main_causal_task","5","coin_causal","","","",""
"","","","","","html-keyboard-response","83","270756","0.0-83.0","CE4FE7F1882B457DB36AFC66D7A5F813","019ce76a-d192-7ce8-97ae-c62e331bfe0c","019ce768-b048-7627-b827-888248f65c31","","null","
                    <div class=""stimulus-container"">
                        <img src=""images/causal_sequence/coin_causal/coin_causal_6.png"" class=""exp-image"">
                        <div class=""question-area""></div> 
                    </div>","null","","","","","","",""
"","","","","","html-button-response","84","271658","0.0-84.0","CE4FE7F1882B457DB36AFC66D7A5F813","019ce76a-d192-7ce8-97ae-c62e331bfe0c","019ce768-b048-7627-b827-888248f65c31","","900","
                    <div class=""stimulus-container"">
                        <img src=""images/causal_sequence/coin_causal/coin_causal_6.png"" class=""exp-image"">
                        <div class=""question-area"">
                            <p style=""font-size: 20px; font-weight: bold; margin: 0;"">Is there a person in this image?</p>
                        </div>
                    </div>","0","main_causal_task","6","coin_causal","","","",""
"","","","","","html-keyboard-response","85","276660","0.0-85.0","CE4FE7F1882B457DB36AFC66D7A5F813","019ce76a-d192-7ce8-97ae-c62e331bfe0c","019ce768-b048-7627-b827-888248f65c31","","null","
                    <div class=""stimulus-container"">
                        <img src=""images/causal_sequence/coin_causal/coin_causal_7.png"" class=""exp-image"">
                        <div class=""question-area""></div> 
                    </div>","null","","","","","","",""
"","","","","","html-button-response","86","278033","0.0-86.0","CE4FE7F1882B457DB36AFC66D7A5F813","019ce76a-d192-7ce8-97ae-c62e331bfe0c","019ce768-b048-7627-b827-888248f65c31","","1371","
                    <div class=""stimulus-container"">
                        <img src=""images/causal_sequence/coin_causal/coin_causal_7.png"" class=""exp-image"">
                        <div class=""question-area"">
                            <p style=""font-size: 20px; font-weight: bold; margin: 0;"">Is there a person in this image?</p>
                        </div>
                    </div>","1","main_causal_task","7","coin_causal","","","",""
"","","","","","html-keyboard-response","87","283034","0.0-87.0","CE4FE7F1882B457DB36AFC66D7A5F813","019ce76a-d192-7ce8-97ae-c62e331bfe0c","019ce768-b048-7627-b827-888248f65c31","","null","
                    <div class=""stimulus-container"">
                        <img src=""images/causal_sequence/coin_causal/coin_causal_8.png"" class=""exp-image"">
                        <div class=""question-area""></div> 
                    </div>","null","","","","","","",""
"","","","","","html-button-response","88","284004","0.0-88.0","CE4FE7F1882B457DB36AFC66D7A5F813","019ce76a-d192-7ce8-97ae-c62e331bfe0c","019ce768-b048-7627-b827-888248f65c31","","967","
                    <div class=""stimulus-container"">
                        <img src=""images/causal_sequence/coin_causal/coin_causal_8.png"" class=""exp-image"">
                        <div class=""question-area"">
                            <p style=""font-size: 20px; font-weight: bold; margin: 0;"">Is there a person in this image?</p>
                        </div>
                    </div>","0","main_causal_task","8","coin_causal","","","",""
"","","","","","html-keyboard-response","89","289005","0.0-89.0","CE4FE7F1882B457DB36AFC66D7A5F813","019ce76a-d192-7ce8-97ae-c62e331bfe0c","019ce768-b048-7627-b827-888248f65c31","","null","
                    <div class=""stimulus-container"">
                        <img src=""images/causal_sequence/coin_causal/coin_causal_9.png"" class=""exp-image"">
                        <div class=""question-area""></div> 
                    </div>","null","","","","","","",""
"","","","","","html-button-response","90","289761","0.0-90.0","CE4FE7F1882B457DB36AFC66D7A5F813","019ce76a-d192-7ce8-97ae-c62e331bfe0c","019ce768-b048-7627-b827-888248f65c31","","754","
                    <div class=""stimulus-container"">
                        <img src=""images/causal_sequence/coin_causal/coin_causal_9.png"" class=""exp-image"">
                        <div class=""question-area"">
                            <p style=""font-size: 20px; font-weight: bold; margin: 0;"">Is there a person in this image?</p>
                        </div>
                    </div>","0","main_causal_task","9","coin_causal","","","",""
"","","","","","html-keyboard-response","91","290762","0.0-91.0","CE4FE7F1882B457DB36AFC66D7A5F813","019ce76a-d192-7ce8-97ae-c62e331bfe0c","019ce768-b048-7627-b827-888248f65c31","","null","<div style=""background-color: gray; width: 100vw; height: 100vh;""></div>","null","","","","","","",""
"","","","","","html-keyboard-response","92","295763","0.0-92.0","CE4FE7F1882B457DB36AFC66D7A5F813","019ce76a-d192-7ce8-97ae-c62e331bfe0c","019ce768-b048-7627-b827-888248f65c31","","null","
                    <div class=""stimulus-container"">
                        <img src=""images/causal_sequence/the_performance_causal/the_performance_causal_1.png"" class=""exp-image"">
                        <div class=""question-area""></div> 
                    </div>","null","","","","","","",""
"","","","","","html-button-response","93","296681","0.0-93.0","CE4FE7F1882B457DB36AFC66D7A5F813","019ce76a-d192-7ce8-97ae-c62e331bfe0c","019ce768-b048-7627-b827-888248f65c31","","916","
                    <div class=""stimulus-container"">
                        <img src=""images/causal_sequence/the_performance_causal/the_performance_causal_1.png"" class=""exp-image"">
                        <div class=""question-area"">
                            <p style=""font-size: 20px; font-weight: bold; margin: 0;"">Is there a person in this image?</p>
                        </div>
                    </div>","0","main_causal_task","1","the_performance_causal","","","",""
"","","","","","html-keyboard-response","94","301683","0.0-94.0","CE4FE7F1882B457DB36AFC66D7A5F813","019ce76a-d192-7ce8-97ae-c62e331bfe0c","019ce768-b048-7627-b827-888248f65c31","","null","
                    <div class=""stimulus-container"">
                        <img src=""images/causal_sequence/the_performance_causal/the_performance_causal_2.png"" class=""exp-image"">
                        <div class=""question-area""></div> 
                    </div>","null","","","","","","",""
"","","","","","html-button-response","95","302171","0.0-95.0","CE4FE7F1882B457DB36AFC66D7A5F813","019ce76a-d192-7ce8-97ae-c62e331bfe0c","019ce768-b048-7627-b827-888248f65c31","","486","
                    <div class=""stimulus-container"">
                        <img src=""images/causal_sequence/the_performance_causal/the_performance_causal_2.png"" class=""exp-image"">
                        <div class=""question-area"">
                            <p style=""font-size: 20px; font-weight: bold; margin: 0;"">Is there a person in this image?</p>
                        </div>
                    </div>","0","main_causal_task","2","the_performance_causal","","","",""
"","","","","","html-keyboard-response","96","307173","0.0-96.0","CE4FE7F1882B457DB36AFC66D7A5F813","019ce76a-d192-7ce8-97ae-c62e331bfe0c","019ce768-b048-7627-b827-888248f65c31","","null","
                    <div class=""stimulus-container"">
                        <img src=""images/causal_sequence/the_performance_causal/the_performance_causal_3.png"" class=""exp-image"">
                        <div class=""question-area""></div> 
                    </div>","null","","","","","","",""
"","","","","","html-button-response","97","307624","0.0-97.0","CE4FE7F1882B457DB36AFC66D7A5F813","019ce76a-d192-7ce8-97ae-c62e331bfe0c","019ce768-b048-7627-b827-888248f65c31","","449","
                    <div class=""stimulus-container"">
                        <img src=""images/causal_sequence/the_performance_causal/the_performance_causal_3.png"" class=""exp-image"">
                        <div class=""question-area"">
                            <p style=""font-size: 20px; font-weight: bold; margin: 0;"">Is there a person in this image?</p>
                        </div>
                    </div>","0","main_causal_task","3","the_performance_causal","","","",""
"","","","","","html-keyboard-response","98","312626","0.0-98.0","CE4FE7F1882B457DB36AFC66D7A5F813","019ce76a-d192-7ce8-97ae-c62e331bfe0c","019ce768-b048-7627-b827-888248f65c31","","null","
                    <div class=""stimulus-container"">
                        <img src=""images/causal_sequence/the_performance_causal/the_performance_causal_4.png"" class=""exp-image"">
                        <div class=""question-area""></div> 
                    </div>","null","","","","","","",""
"","","","","","html-button-response","99","313488","0.0-99.0","CE4FE7F1882B457DB36AFC66D7A5F813","019ce76a-d192-7ce8-97ae-c62e331bfe0c","019ce768-b048-7627-b827-888248f65c31","","859","
                    <div class=""stimulus-container"">
                        <img src=""images/causal_sequence/the_performance_causal/the_performance_causal_4.png"" class=""exp-image"">
                        <div class=""question-area"">
                            <p style=""font-size: 20px; font-weight: bold; margin: 0;"">Is there a person in this image?</p>
                        </div>
                    </div>","0","main_causal_task","4","the_performance_causal","","","",""
"","","","","","html-keyboard-response","100","318491","0.0-100.0","CE4FE7F1882B457DB36AFC66D7A5F813","019ce76a-d192-7ce8-97ae-c62e331bfe0c","019ce768-b048-7627-b827-888248f65c31","","null","
                    <div class=""stimulus-container"">
                        <img src=""images/causal_sequence/the_performance_causal/the_performance_causal_5.png"" class=""exp-image"">
                        <div class=""question-area""></div> 
                    </div>","null","","","","","","",""
"","","","","","html-button-response","101","319153","0.0-101.0","CE4FE7F1882B457DB36AFC66D7A5F813","019ce76a-d192-7ce8-97ae-c62e331bfe0c","019ce768-b048-7627-b827-888248f65c31","","660","
                    <div class=""stimulus-container"">
                        <img src=""images/causal_sequence/the_performance_causal/the_performance_causal_5.png"" class=""exp-image"">
                        <div class=""question-area"">
                            <p style=""font-size: 20px; font-weight: bold; margin: 0;"">Is there a person in this image?</p>
                        </div>
                    </div>","0","main_causal_task","5","the_performance_causal","","","",""
"","","","","","html-keyboard-response","102","324154","0.0-102.0","CE4FE7F1882B457DB36AFC66D7A5F813","019ce76a-d192-7ce8-97ae-c62e331bfe0c","019ce768-b048-7627-b827-888248f65c31","","null","
                    <div class=""stimulus-container"">
                        <img src=""images/causal_sequence/the_performance_causal/the_performance_causal_6.png"" class=""exp-image"">
                        <div class=""question-area""></div> 
                    </div>","null","","","","","","",""
"","","","","","html-button-response","103","324782","0.0-103.0","CE4FE7F1882B457DB36AFC66D7A5F813","019ce76a-d192-7ce8-97ae-c62e331bfe0c","019ce768-b048-7627-b827-888248f65c31","","627","
                    <div class=""stimulus-container"">
                        <img src=""images/causal_sequence/the_performance_causal/the_performance_causal_6.png"" class=""exp-image"">
                        <div class=""question-area"">
                            <p style=""font-size: 20px; font-weight: bold; margin: 0;"">Is there a person in this image?</p>
                        </div>
                    </div>","0","main_causal_task","6","the_performance_causal","","","",""
"","","","","","html-keyboard-response","104","329784","0.0-104.0","CE4FE7F1882B457DB36AFC66D7A5F813","019ce76a-d192-7ce8-97ae-c62e331bfe0c","019ce768-b048-7627-b827-888248f65c31","","null","
                    <div class=""stimulus-container"">
                        <img src=""images/causal_sequence/the_performance_causal/the_performance_causal_7.png"" class=""exp-image"">
                        <div class=""question-area""></div> 
                    </div>","null","","","","","","",""
"","","","","","html-button-response","105","330593","0.0-105.0","CE4FE7F1882B457DB36AFC66D7A5F813","019ce76a-d192-7ce8-97ae-c62e331bfe0c","019ce768-b048-7627-b827-888248f65c31","","807","
                    <div class=""stimulus-container"">
                        <img src=""images/causal_sequence/the_performance_causal/the_performance_causal_7.png"" class=""exp-image"">
                        <div class=""question-area"">
                            <p style=""font-size: 20px; font-weight: bold; margin: 0;"">Is there a person in this image?</p>
                        </div>
                    </div>","0","main_causal_task","7","the_performance_causal","","","",""
"","","","","","html-keyboard-response","106","335595","0.0-106.0","CE4FE7F1882B457DB36AFC66D7A5F813","019ce76a-d192-7ce8-97ae-c62e331bfe0c","019ce768-b048-7627-b827-888248f65c31","","null","
                    <div class=""stimulus-container"">
                        <img src=""images/causal_sequence/the_performance_causal/the_performance_causal_8.png"" class=""exp-image"">
                        <div class=""question-area""></div> 
                    </div>","null","","","","","","",""
"","","","","","html-button-response","107","336469","0.0-107.0","CE4FE7F1882B457DB36AFC66D7A5F813","019ce76a-d192-7ce8-97ae-c62e331bfe0c","019ce768-b048-7627-b827-888248f65c31","","872","
                    <div class=""stimulus-container"">
                        <img src=""images/causal_sequence/the_performance_causal/the_performance_causal_8.png"" class=""exp-image"">
                        <div class=""question-area"">
                            <p style=""font-size: 20px; font-weight: bold; margin: 0;"">Is there a person in this image?</p>
                        </div>
                    </div>","0","main_causal_task","8","the_performance_causal","","","",""
"","","","","","html-keyboard-response","108","341471","0.0-108.0","CE4FE7F1882B457DB36AFC66D7A5F813","019ce76a-d192-7ce8-97ae-c62e331bfe0c","019ce768-b048-7627-b827-888248f65c31","","null","
                    <div class=""stimulus-container"">
                        <img src=""images/causal_sequence/the_performance_causal/the_performance_causal_9.png"" class=""exp-image"">
                        <div class=""question-area""></div> 
                    </div>","null","","","","","","",""
"","","","","","html-button-response","109","342507","0.0-109.0","CE4FE7F1882B457DB36AFC66D7A5F813","019ce76a-d192-7ce8-97ae-c62e331bfe0c","019ce768-b048-7627-b827-888248f65c31","","1034","
                    <div class=""stimulus-container"">
                        <img src=""images/causal_sequence/the_performance_causal/the_performance_causal_9.png"" class=""exp-image"">
                        <div class=""question-area"">
                            <p style=""font-size: 20px; font-weight: bold; margin: 0;"">Is there a person in this image?</p>
                        </div>
                    </div>","0","main_causal_task","9","the_performance_causal","","","",""
"","","","","","html-keyboard-response","110","343508","0.0-110.0","CE4FE7F1882B457DB36AFC66D7A5F813","019ce76a-d192-7ce8-97ae-c62e331bfe0c","019ce768-b048-7627-b827-888248f65c31","","null","<div style=""background-color: gray; width: 100vw; height: 100vh;""></div>","null","","","","","","",""
"","","","","","html-keyboard-response","111","348509","0.0-111.0","CE4FE7F1882B457DB36AFC66D7A5F813","019ce76a-d192-7ce8-97ae-c62e331bfe0c","019ce768-b048-7627-b827-888248f65c31","","null","
                    <div class=""stimulus-container"">
                        <img src=""images/causal_sequence/dog_causal/dog_causal_1.png"" class=""exp-image"">
                        <div class=""question-area""></div> 
                    </div>","null","","","","","","",""
"","","","","","html-button-response","112","349711","0.0-112.0","CE4FE7F1882B457DB36AFC66D7A5F813","019ce76a-d192-7ce8-97ae-c62e331bfe0c","019ce768-b048-7627-b827-888248f65c31","","1200","
                    <div class=""stimulus-container"">
                        <img src=""images/causal_sequence/dog_causal/dog_causal_1.png"" class=""exp-image"">
                        <div class=""question-area"">
                            <p style=""font-size: 20px; font-weight: bold; margin: 0;"">Is there a person in this image?</p>
                        </div>
                    </div>","0","main_causal_task","1","dog_causal","","","",""
"","","","","","html-keyboard-response","113","354713","0.0-113.0","CE4FE7F1882B457DB36AFC66D7A5F813","019ce76a-d192-7ce8-97ae-c62e331bfe0c","019ce768-b048-7627-b827-888248f65c31","","null","
                    <div class=""stimulus-container"">
                        <img src=""images/causal_sequence/dog_causal/dog_causal_2.png"" class=""exp-image"">
                        <div class=""question-area""></div> 
                    </div>","null","","","","","","",""
"","","","","","html-button-response","114","355172","0.0-114.0","CE4FE7F1882B457DB36AFC66D7A5F813","019ce76a-d192-7ce8-97ae-c62e331bfe0c","019ce768-b048-7627-b827-888248f65c31","","457","
                    <div class=""stimulus-container"">
                        <img src=""images/causal_sequence/dog_causal/dog_causal_2.png"" class=""exp-image"">
                        <div class=""question-area"">
                            <p style=""font-size: 20px; font-weight: bold; margin: 0;"">Is there a person in this image?</p>
                        </div>
                    </div>","0","main_causal_task","2","dog_causal","","","",""
"","","","","","html-keyboard-response","115","360174","0.0-115.0","CE4FE7F1882B457DB36AFC66D7A5F813","019ce76a-d192-7ce8-97ae-c62e331bfe0c","019ce768-b048-7627-b827-888248f65c31","","null","
                    <div class=""stimulus-container"">
                        <img src=""images/causal_sequence/dog_causal/dog_causal_3.png"" class=""exp-image"">
                        <div class=""question-area""></div> 
                    </div>","null","","","","","","",""
"","","","","","html-button-response","116","360970","0.0-116.0","CE4FE7F1882B457DB36AFC66D7A5F813","019ce76a-d192-7ce8-97ae-c62e331bfe0c","019ce768-b048-7627-b827-888248f65c31","","794","
                    <div class=""stimulus-container"">
                        <img src=""images/causal_sequence/dog_causal/dog_causal_3.png"" class=""exp-image"">
                        <div class=""question-area"">
                            <p style=""font-size: 20px; font-weight: bold; margin: 0;"">Is there a person in this image?</p>
                        </div>
                    </div>","0","main_causal_task","3","dog_causal","","","",""
"","","","","","html-keyboard-response","117","365973","0.0-117.0","CE4FE7F1882B457DB36AFC66D7A5F813","019ce76a-d192-7ce8-97ae-c62e331bfe0c","019ce768-b048-7627-b827-888248f65c31","","null","
                    <div class=""stimulus-container"">
                        <img src=""images/causal_sequence/dog_causal/dog_causal_4.png"" class=""exp-image"">
                        <div class=""question-area""></div> 
                    </div>","null","","","","","","",""
"","","","","","html-button-response","118","366598","0.0-118.0","CE4FE7F1882B457DB36AFC66D7A5F813","019ce76a-d192-7ce8-97ae-c62e331bfe0c","019ce768-b048-7627-b827-888248f65c31","","624","
                    <div class=""stimulus-container"">
                        <img src=""images/causal_sequence/dog_causal/dog_causal_4.png"" class=""exp-image"">
                        <div class=""question-area"">
                            <p style=""font-size: 20px; font-weight: bold; margin: 0;"">Is there a person in this image?</p>
                        </div>
                    </div>","0","main_causal_task","4","dog_causal","","","",""
"","","","","","html-keyboard-response","119","371599","0.0-119.0","CE4FE7F1882B457DB36AFC66D7A5F813","019ce76a-d192-7ce8-97ae-c62e331bfe0c","019ce768-b048-7627-b827-888248f65c31","","null","
                    <div class=""stimulus-container"">
                        <img src=""images/causal_sequence/dog_causal/dog_causal_5.png"" class=""exp-image"">
                        <div class=""question-area""></div> 
                    </div>","null","","","","","","",""
"","","","","","html-button-response","120","372135","0.0-120.0","CE4FE7F1882B457DB36AFC66D7A5F813","019ce76a-d192-7ce8-97ae-c62e331bfe0c","019ce768-b048-7627-b827-888248f65c31","","532","
                    <div class=""stimulus-container"">
                        <img src=""images/causal_sequence/dog_causal/dog_causal_5.png"" class=""exp-image"">
                        <div class=""question-area"">
                            <p style=""font-size: 20px; font-weight: bold; margin: 0;"">Is there a person in this image?</p>
                        </div>
                    </div>","0","main_causal_task","5","dog_causal","","","",""
"","","","","","html-keyboard-response","121","377136","0.0-121.0","CE4FE7F1882B457DB36AFC66D7A5F813","019ce76a-d192-7ce8-97ae-c62e331bfe0c","019ce768-b048-7627-b827-888248f65c31","","null","
                    <div class=""stimulus-container"">
                        <img src=""images/causal_sequence/dog_causal/dog_causal_6.png"" class=""exp-image"">
                        <div class=""question-area""></div> 
                    </div>","null","","","","","","",""
"","","","","","html-button-response","122","377673","0.0-122.0","CE4FE7F1882B457DB36AFC66D7A5F813","019ce76a-d192-7ce8-97ae-c62e331bfe0c","019ce768-b048-7627-b827-888248f65c31","","534","
                    <div class=""stimulus-container"">
                        <img src=""images/causal_sequence/dog_causal/dog_causal_6.png"" class=""exp-image"">
                        <div class=""question-area"">
                            <p style=""font-size: 20px; font-weight: bold; margin: 0;"">Is there a person in this image?</p>
                        </div>
                    </div>","0","main_causal_task","6","dog_causal","","","",""
"","","","","","html-keyboard-response","123","382674","0.0-123.0","CE4FE7F1882B457DB36AFC66D7A5F813","019ce76a-d192-7ce8-97ae-c62e331bfe0c","019ce768-b048-7627-b827-888248f65c31","","null","
                    <div class=""stimulus-container"">
                        <img src=""images/causal_sequence/dog_causal/dog_causal_7.png"" class=""exp-image"">
                        <div class=""question-area""></div> 
                    </div>","null","","","","","","",""
"","","","","","html-button-response","124","383117","0.0-124.0","CE4FE7F1882B457DB36AFC66D7A5F813","019ce76a-d192-7ce8-97ae-c62e331bfe0c","019ce768-b048-7627-b827-888248f65c31","","441","
                    <div class=""stimulus-container"">
                        <img src=""images/causal_sequence/dog_causal/dog_causal_7.png"" class=""exp-image"">
                        <div class=""question-area"">
                            <p style=""font-size: 20px; font-weight: bold; margin: 0;"">Is there a person in this image?</p>
                        </div>
                    </div>","0","main_causal_task","7","dog_causal","","","",""
"","","","","","html-keyboard-response","125","388120","0.0-125.0","CE4FE7F1882B457DB36AFC66D7A5F813","019ce76a-d192-7ce8-97ae-c62e331bfe0c","019ce768-b048-7627-b827-888248f65c31","","null","
                    <div class=""stimulus-container"">
                        <img src=""images/causal_sequence/dog_causal/dog_causal_8.png"" class=""exp-image"">
                        <div class=""question-area""></div> 
                    </div>","null","","","","","","",""
"","","","","","html-button-response","126","389091","0.0-126.0","CE4FE7F1882B457DB36AFC66D7A5F813","019ce76a-d192-7ce8-97ae-c62e331bfe0c","019ce768-b048-7627-b827-888248f65c31","","969","
                    <div class=""stimulus-container"">
                        <img src=""images/causal_sequence/dog_causal/dog_causal_8.png"" class=""exp-image"">
                        <div class=""question-area"">
                            <p style=""font-size: 20px; font-weight: bold; margin: 0;"">Is there a person in this image?</p>
                        </div>
                    </div>","0","main_causal_task","8","dog_causal","","","",""
"","","","","","html-keyboard-response","127","394093","0.0-127.0","CE4FE7F1882B457DB36AFC66D7A5F813","019ce76a-d192-7ce8-97ae-c62e331bfe0c","019ce768-b048-7627-b827-888248f65c31","","null","
                    <div class=""stimulus-container"">
                        <img src=""images/causal_sequence/dog_causal/dog_causal_9.png"" class=""exp-image"">
                        <div class=""question-area""></div> 
                    </div>","null","","","","","","",""
"","","","","","html-button-response","128","394915","0.0-128.0","CE4FE7F1882B457DB36AFC66D7A5F813","019ce76a-d192-7ce8-97ae-c62e331bfe0c","019ce768-b048-7627-b827-888248f65c31","","819","
                    <div class=""stimulus-container"">
                        <img src=""images/causal_sequence/dog_causal/dog_causal_9.png"" class=""exp-image"">
                        <div class=""question-area"">
                            <p style=""font-size: 20px; font-weight: bold; margin: 0;"">Is there a person in this image?</p>
                        </div>
                    </div>","0","main_causal_task","9","dog_causal","","","",""
"","","","","","instructions","129","396233","0.0-129.0","CE4FE7F1882B457DB36AFC66D7A5F813","019ce76a-d192-7ce8-97ae-c62e331bfe0c","019ce768-b048-7627-b827-888248f65c31","[{""page_index"":0,""viewing_time"":1316}]","1317","","","","","","","","",""
"","","","","","instructions","130","401661","0.0-130.0","CE4FE7F1882B457DB36AFC66D7A5F813","019ce76a-d192-7ce8-97ae-c62e331bfe0c","019ce768-b048-7627-b827-888248f65c31","[{""page_index"":0,""viewing_time"":5426}]","5427","","","","","","","","",""
"","","","","","html-keyboard-response","131","402662","0.0-131.0","CE4FE7F1882B457DB36AFC66D7A5F813","019ce76a-d192-7ce8-97ae-c62e331bfe0c","019ce768-b048-7627-b827-888248f65c31","","null","
        <div class=""stimulus-container"" style=""display: flex; align-items: center; justify-content: center; gap: 30px;"">
            <img src=""images/instructions/movie_1.png"" class=""exp-image"">
            <div style=""font-size: 40px; font-weight: bold; color: green; border: 5px solid green; padding: 25px; border-radius: 15px; background-color: #f0fff0;"">
                WORTH<br>$1
            </div>
        </div>
        <div class=""question-area""></div>","null","","","","","","",""
"","","","","","html-button-response","132","404070","0.0-132.0","CE4FE7F1882B457DB36AFC66D7A5F813","019ce76a-d192-7ce8-97ae-c62e331bfe0c","019ce768-b048-7627-b827-888248f65c31","","1407","
        <div class=""stimulus-container"" style=""display: flex; align-items: center; justify-content: center; gap: 30px;"">
            <img src=""images/instructions/movie_1.png"" class=""exp-image"">
            <div style=""font-size: 40px; font-weight: bold; color: green; border: 5px solid green; padding: 25px; border-radius: 15px; background-color: #f0fff0;"">
                WORTH<br>$1
            </div>
        </div>
        <div class=""question-area"">
            <p style=""font-size: 20px; font-weight: bold; margin: 0;"">Was there a person in this image?</p>
        </div>","0","","","","","","",""
"","","","","","instructions","133","406039","0.0-133.0","CE4FE7F1882B457DB36AFC66D7A5F813","019ce76a-d192-7ce8-97ae-c62e331bfe0c","019ce768-b048-7627-b827-888248f65c31","[{""page_index"":0,""viewing_time"":1968}]","1968","","","","","","","","",""
"","","","","","html-keyboard-response","134","416041","0.0-134.0","CE4FE7F1882B457DB36AFC66D7A5F813","019ce76a-d192-7ce8-97ae-c62e331bfe0c","019ce768-b048-7627-b827-888248f65c31","","null","
            <div class=""stimulus-container"" style=""display: flex; align-items: center; justify-content: center; gap: 30px;"">
                <img src=""images/causal_sequence/the_performance_causal/the_performance_causal_4.png"" class=""exp-image"">
                <div style=""font-size: 40px; font-weight: bold; color: green; border: 5px solid green; padding: 25px; border-radius: 15px; background-color: #f0fff0;"">
                    WORTH<br>$1
                </div>
            </div>
            <div class=""question-area""></div>","null","","","","","","",""
"","","","","","html-button-response","135","417295","0.0-135.0","CE4FE7F1882B457DB36AFC66D7A5F813","019ce76a-d192-7ce8-97ae-c62e331bfe0c","019ce768-b048-7627-b827-888248f65c31","","1253","
            <div class=""stimulus-container"" style=""display: flex; align-items: center; justify-content: center; gap: 30px;"">
                <img src=""images/causal_sequence/the_performance_causal/the_performance_causal_4.png"" class=""exp-image"">
                <div style=""font-size: 40px; font-weight: bold; color: green; border: 5px solid green; padding: 25px; border-radius: 15px; background-color: #f0fff0;"">
                    WORTH<br>$1
                </div>
            </div>
            <div class=""question-area"">
                <p style=""font-size: 20px; font-weight: bold; margin: 0;"">Was there a person in this image?</p>
            </div>","0","part2_value_learning","","the_performance_causal","4","","",""
"","","","","","html-keyboard-response","136","427297","0.0-136.0","CE4FE7F1882B457DB36AFC66D7A5F813","019ce76a-d192-7ce8-97ae-c62e331bfe0c","019ce768-b048-7627-b827-888248f65c31","","null","
            <div class=""stimulus-container"" style=""display: flex; align-items: center; justify-content: center; gap: 30px;"">
                <img src=""images/causal_sequence/museum_causal/museum_causal_3.png"" class=""exp-image"">
                <div style=""font-size: 40px; font-weight: bold; color: green; border: 5px solid green; padding: 25px; border-radius: 15px; background-color: #f0fff0;"">
                    WORTH<br>$1
                </div>
            </div>
            <div class=""question-area""></div>","null","","","","","","",""
"","","","","","html-button-response","137","428928","0.0-137.0","CE4FE7F1882B457DB36AFC66D7A5F813","019ce76a-d192-7ce8-97ae-c62e331bfe0c","019ce768-b048-7627-b827-888248f65c31","","1628","
            <div class=""stimulus-container"" style=""display: flex; align-items: center; justify-content: center; gap: 30px;"">
                <img src=""images/causal_sequence/museum_causal/museum_causal_3.png"" class=""exp-image"">
                <div style=""font-size: 40px; font-weight: bold; color: green; border: 5px solid green; padding: 25px; border-radius: 15px; background-color: #f0fff0;"">
                    WORTH<br>$1
                </div>
            </div>
            <div class=""question-area"">
                <p style=""font-size: 20px; font-weight: bold; margin: 0;"">Was there a person in this image?</p>
            </div>","0","part2_value_learning","","museum_causal","3","","",""
"","","","","","html-keyboard-response","138","438930","0.0-138.0","CE4FE7F1882B457DB36AFC66D7A5F813","019ce76a-d192-7ce8-97ae-c62e331bfe0c","019ce768-b048-7627-b827-888248f65c31","","null","
            <div class=""stimulus-container"" style=""display: flex; align-items: center; justify-content: center; gap: 30px;"">
                <img src=""images/causal_sequence/dog_causal/dog_causal_5.png"" class=""exp-image"">
                <div style=""font-size: 40px; font-weight: bold; color: green; border: 5px solid green; padding: 25px; border-radius: 15px; background-color: #f0fff0;"">
                    WORTH<br>$1
                </div>
            </div>
            <div class=""question-area""></div>","null","","","","","","",""
"","","","","","html-button-response","139","439890","0.0-139.0","CE4FE7F1882B457DB36AFC66D7A5F813","019ce76a-d192-7ce8-97ae-c62e331bfe0c","019ce768-b048-7627-b827-888248f65c31","","958","
            <div class=""stimulus-container"" style=""display: flex; align-items: center; justify-content: center; gap: 30px;"">
                <img src=""images/causal_sequence/dog_causal/dog_causal_5.png"" class=""exp-image"">
                <div style=""font-size: 40px; font-weight: bold; color: green; border: 5px solid green; padding: 25px; border-radius: 15px; background-color: #f0fff0;"">
                    WORTH<br>$1
                </div>
            </div>
            <div class=""question-area"">
                <p style=""font-size: 20px; font-weight: bold; margin: 0;"">Was there a person in this image?</p>
            </div>","0","part2_value_learning","","dog_causal","5","","",""
"","","","","","html-keyboard-response","140","449891","0.0-140.0","CE4FE7F1882B457DB36AFC66D7A5F813","019ce76a-d192-7ce8-97ae-c62e331bfe0c","019ce768-b048-7627-b827-888248f65c31","","null","
            <div class=""stimulus-container"" style=""display: flex; align-items: center; justify-content: center; gap: 30px;"">
                <img src=""images/causal_sequence/saving_a_cat_causal/saving_a_cat_causal_3.png"" class=""exp-image"">
                <div style=""font-size: 40px; font-weight: bold; color: green; border: 5px solid green; padding: 25px; border-radius: 15px; background-color: #f0fff0;"">
                    WORTH<br>$1
                </div>
            </div>
            <div class=""question-area""></div>","null","","","","","","",""
"","","","","","html-button-response","141","451144","0.0-141.0","CE4FE7F1882B457DB36AFC66D7A5F813","019ce76a-d192-7ce8-97ae-c62e331bfe0c","019ce768-b048-7627-b827-888248f65c31","","1251","
            <div class=""stimulus-container"" style=""display: flex; align-items: center; justify-content: center; gap: 30px;"">
                <img src=""images/causal_sequence/saving_a_cat_causal/saving_a_cat_causal_3.png"" class=""exp-image"">
                <div style=""font-size: 40px; font-weight: bold; color: green; border: 5px solid green; padding: 25px; border-radius: 15px; background-color: #f0fff0;"">
                    WORTH<br>$1
                </div>
            </div>
            <div class=""question-area"">
                <p style=""font-size: 20px; font-weight: bold; margin: 0;"">Was there a person in this image?</p>
            </div>","1","part2_value_learning","","saving_a_cat_causal","3","","",""
"","","","","","html-keyboard-response","142","461145","0.0-142.0","CE4FE7F1882B457DB36AFC66D7A5F813","019ce76a-d192-7ce8-97ae-c62e331bfe0c","019ce768-b048-7627-b827-888248f65c31","","null","
            <div class=""stimulus-container"" style=""display: flex; align-items: center; justify-content: center; gap: 30px;"">
                <img src=""images/causal_sequence/package_causal/package_causal_3.png"" class=""exp-image"">
                <div style=""font-size: 40px; font-weight: bold; color: green; border: 5px solid green; padding: 25px; border-radius: 15px; background-color: #f0fff0;"">
                    WORTH<br>$1
                </div>
            </div>
            <div class=""question-area""></div>","null","","","","","","",""
"","","","","","html-button-response","143","462178","0.0-143.0","CE4FE7F1882B457DB36AFC66D7A5F813","019ce76a-d192-7ce8-97ae-c62e331bfe0c","019ce768-b048-7627-b827-888248f65c31","","1030","
            <div class=""stimulus-container"" style=""display: flex; align-items: center; justify-content: center; gap: 30px;"">
                <img src=""images/causal_sequence/package_causal/package_causal_3.png"" class=""exp-image"">
                <div style=""font-size: 40px; font-weight: bold; color: green; border: 5px solid green; padding: 25px; border-radius: 15px; background-color: #f0fff0;"">
                    WORTH<br>$1
                </div>
            </div>
            <div class=""question-area"">
                <p style=""font-size: 20px; font-weight: bold; margin: 0;"">Was there a person in this image?</p>
            </div>","0","part2_value_learning","","package_causal","3","","",""
"","","","","","html-keyboard-response","144","472180","0.0-144.0","CE4FE7F1882B457DB36AFC66D7A5F813","019ce76a-d192-7ce8-97ae-c62e331bfe0c","019ce768-b048-7627-b827-888248f65c31","","null","
            <div class=""stimulus-container"" style=""display: flex; align-items: center; justify-content: center; gap: 30px;"">
                <img src=""images/causal_sequence/coin_causal/coin_causal_7.png"" class=""exp-image"">
                <div style=""font-size: 40px; font-weight: bold; color: green; border: 5px solid green; padding: 25px; border-radius: 15px; background-color: #f0fff0;"">
                    WORTH<br>$1
                </div>
            </div>
            <div class=""question-area""></div>","null","","","","","","",""
"","","","","","html-button-response","145","473825","0.0-145.0","CE4FE7F1882B457DB36AFC66D7A5F813","019ce76a-d192-7ce8-97ae-c62e331bfe0c","019ce768-b048-7627-b827-888248f65c31","","1643","
            <div class=""stimulus-container"" style=""display: flex; align-items: center; justify-content: center; gap: 30px;"">
                <img src=""images/causal_sequence/coin_causal/coin_causal_7.png"" class=""exp-image"">
                <div style=""font-size: 40px; font-weight: bold; color: green; border: 5px solid green; padding: 25px; border-radius: 15px; background-color: #f0fff0;"">
                    WORTH<br>$1
                </div>
            </div>
            <div class=""question-area"">
                <p style=""font-size: 20px; font-weight: bold; margin: 0;"">Was there a person in this image?</p>
            </div>","1","part2_value_learning","","coin_causal","7","","",""
"","","","","","instructions","146","475004","0.0-146.0","CE4FE7F1882B457DB36AFC66D7A5F813","019ce76a-d192-7ce8-97ae-c62e331bfe0c","019ce768-b048-7627-b827-888248f65c31","[{""page_index"":0,""viewing_time"":1178}]","1178","","","","","","","","",""
"","","","","","instructions","147","475893","0.0-147.0","CE4FE7F1882B457DB36AFC66D7A5F813","019ce76a-d192-7ce8-97ae-c62e331bfe0c","019ce768-b048-7627-b827-888248f65c31","[{""page_index"":0,""viewing_time"":887}]","888","","","","","","","","",""
"","","","","","html-keyboard-response","148","485896","0.0-148.0-0.0","CE4FE7F1882B457DB36AFC66D7A5F813","019ce76a-d192-7ce8-97ae-c62e331bfe0c","019ce768-b048-7627-b827-888248f65c31","","null","
                        <div style=""font-family: Arial; margin-bottom: 20px;""><h3>Which image is more valuable?</h3></div>
                        <div class=""stimulus-container"" style=""display: flex; width: 1100px; justify-content: center; gap: 50px;"">
                            <img src=""images/causal_sequence/the_performance_causal/the_performance_causal_2.png"" class=""exp-image"">
                            <img src=""images/causal_sequence/the_performance_causal/the_performance_causal_6.png"" class=""exp-image"">
                        </div>","null","","","","","","",""
"","","","","","html-button-response","149","487251","0.0-148.0-1.0","CE4FE7F1882B457DB36AFC66D7A5F813","019ce76a-d192-7ce8-97ae-c62e331bfe0c","019ce768-b048-7627-b827-888248f65c31","","1352","
                        <div style=""font-family: Arial; margin-bottom: 20px;""><h3>Which image is more valuable?</h3></div>
                        <div class=""stimulus-container"" style=""display: flex; width: 1100px; justify-content: center; gap: 50px;"">
                            <img src=""images/causal_sequence/the_performance_causal/the_performance_causal_2.png"" class=""exp-image"">
                            <img src=""images/causal_sequence/the_performance_causal/the_performance_causal_6.png"" class=""exp-image"">
                        </div>","1","part3_final_choice","","the_performance_causal","","4","6","2"
"","","","","","html-keyboard-response","150","497253","0.0-149.0-0.0","CE4FE7F1882B457DB36AFC66D7A5F813","019ce76a-d192-7ce8-97ae-c62e331bfe0c","019ce768-b048-7627-b827-888248f65c31","","null","
                        <div style=""font-family: Arial; margin-bottom: 20px;""><h3>Which image is more valuable?</h3></div>
                        <div class=""stimulus-container"" style=""display: flex; width: 1100px; justify-content: center; gap: 50px;"">
                            <img src=""images/causal_sequence/saving_a_cat_causal/saving_a_cat_causal_5.png"" class=""exp-image"">
                            <img src=""images/causal_sequence/saving_a_cat_causal/saving_a_cat_causal_1.png"" class=""exp-image"">
                        </div>","null","","","","","","",""
"","","","","","html-button-response","151","498195","0.0-149.0-1.0","CE4FE7F1882B457DB36AFC66D7A5F813","019ce76a-d192-7ce8-97ae-c62e331bfe0c","019ce768-b048-7627-b827-888248f65c31","","939","
                        <div style=""font-family: Arial; margin-bottom: 20px;""><h3>Which image is more valuable?</h3></div>
                        <div class=""stimulus-container"" style=""display: flex; width: 1100px; justify-content: center; gap: 50px;"">
                            <img src=""images/causal_sequence/saving_a_cat_causal/saving_a_cat_causal_5.png"" class=""exp-image"">
                            <img src=""images/causal_sequence/saving_a_cat_causal/saving_a_cat_causal_1.png"" class=""exp-image"">
                        </div>","1","part3_final_choice","","saving_a_cat_causal","","3","1","-2"
"","","","","","html-keyboard-response","152","508198","0.0-150.0-0.0","CE4FE7F1882B457DB36AFC66D7A5F813","019ce76a-d192-7ce8-97ae-c62e331bfe0c","019ce768-b048-7627-b827-888248f65c31","","null","
                        <div style=""font-family: Arial; margin-bottom: 20px;""><h3>Which image is more valuable?</h3></div>
                        <div class=""stimulus-container"" style=""display: flex; width: 1100px; justify-content: center; gap: 50px;"">
                            <img src=""images/causal_sequence/package_causal/package_causal_1.png"" class=""exp-image"">
                            <img src=""images/causal_sequence/package_causal/package_causal_5.png"" class=""exp-image"">
                        </div>","null","","","","","","",""
"","","","","","html-button-response","153","508807","0.0-150.0-1.0","CE4FE7F1882B457DB36AFC66D7A5F813","019ce76a-d192-7ce8-97ae-c62e331bfe0c","019ce768-b048-7627-b827-888248f65c31","","607","
                        <div style=""font-family: Arial; margin-bottom: 20px;""><h3>Which image is more valuable?</h3></div>
                        <div class=""stimulus-container"" style=""display: flex; width: 1100px; justify-content: center; gap: 50px;"">
                            <img src=""images/causal_sequence/package_causal/package_causal_1.png"" class=""exp-image"">
                            <img src=""images/causal_sequence/package_causal/package_causal_5.png"" class=""exp-image"">
                        </div>","1","part3_final_choice","","package_causal","","3","5","2"
"","","","","","html-keyboard-response","154","518810","0.0-151.0-0.0","CE4FE7F1882B457DB36AFC66D7A5F813","019ce76a-d192-7ce8-97ae-c62e331bfe0c","019ce768-b048-7627-b827-888248f65c31","","null","
                        <div style=""font-family: Arial; margin-bottom: 20px;""><h3>Which image is more valuable?</h3></div>
                        <div class=""stimulus-container"" style=""display: flex; width: 1100px; justify-content: center; gap: 50px;"">
                            <img src=""images/causal_sequence/coin_causal/coin_causal_9.png"" class=""exp-image"">
                            <img src=""images/causal_sequence/coin_causal/coin_causal_5.png"" class=""exp-image"">
                        </div>","null","","","","","","",""
"","","","","","html-button-response","155","519985","0.0-151.0-1.0","CE4FE7F1882B457DB36AFC66D7A5F813","019ce76a-d192-7ce8-97ae-c62e331bfe0c","019ce768-b048-7627-b827-888248f65c31","","1173","
                        <div style=""font-family: Arial; margin-bottom: 20px;""><h3>Which image is more valuable?</h3></div>
                        <div class=""stimulus-container"" style=""display: flex; width: 1100px; justify-content: center; gap: 50px;"">
                            <img src=""images/causal_sequence/coin_causal/coin_causal_9.png"" class=""exp-image"">
                            <img src=""images/causal_sequence/coin_causal/coin_causal_5.png"" class=""exp-image"">
                        </div>","1","part3_final_choice","","coin_causal","","7","5","-2"
"","","","","","html-keyboard-response","156","529987","0.0-152.0-0.0","CE4FE7F1882B457DB36AFC66D7A5F813","019ce76a-d192-7ce8-97ae-c62e331bfe0c","019ce768-b048-7627-b827-888248f65c31","","null","
                        <div style=""font-family: Arial; margin-bottom: 20px;""><h3>Which image is more valuable?</h3></div>
                        <div class=""stimulus-container"" style=""display: flex; width: 1100px; justify-content: center; gap: 50px;"">
                            <img src=""images/causal_sequence/museum_causal/museum_causal_5.png"" class=""exp-image"">
                            <img src=""images/causal_sequence/museum_causal/museum_causal_1.png"" class=""exp-image"">
                        </div>","null","","","","","","",""
"","","","","","html-button-response","157","531368","0.0-152.0-1.0","CE4FE7F1882B457DB36AFC66D7A5F813","019ce76a-d192-7ce8-97ae-c62e331bfe0c","019ce768-b048-7627-b827-888248f65c31","","1379","
                        <div style=""font-family: Arial; margin-bottom: 20px;""><h3>Which image is more valuable?</h3></div>
                        <div class=""stimulus-container"" style=""display: flex; width: 1100px; justify-content: center; gap: 50px;"">
                            <img src=""images/causal_sequence/museum_causal/museum_causal_5.png"" class=""exp-image"">
                            <img src=""images/causal_sequence/museum_causal/museum_causal_1.png"" class=""exp-image"">
                        </div>","1","part3_final_choice","","museum_causal","","3","1","-2"
"","","","","","html-keyboard-response","158","541370","0.0-153.0-0.0","CE4FE7F1882B457DB36AFC66D7A5F813","019ce76a-d192-7ce8-97ae-c62e331bfe0c","019ce768-b048-7627-b827-888248f65c31","","null","
                        <div style=""font-family: Arial; margin-bottom: 20px;""><h3>Which image is more valuable?</h3></div>
                        <div class=""stimulus-container"" style=""display: flex; width: 1100px; justify-content: center; gap: 50px;"">
                            <img src=""images/causal_sequence/dog_causal/dog_causal_3.png"" class=""exp-image"">
                            <img src=""images/causal_sequence/dog_causal/dog_causal_7.png"" class=""exp-image"">
                        </div>","null","","","","","","",""
"","","","","","html-button-response","159","545782","0.0-153.0-1.0","CE4FE7F1882B457DB36AFC66D7A5F813","019ce76a-d192-7ce8-97ae-c62e331bfe0c","019ce768-b048-7627-b827-888248f65c31","","4410","
                        <div style=""font-family: Arial; margin-bottom: 20px;""><h3>Which image is more valuable?</h3></div>
                        <div class=""stimulus-container"" style=""display: flex; width: 1100px; justify-content: center; gap: 50px;"">
                            <img src=""images/causal_sequence/dog_causal/dog_causal_3.png"" class=""exp-image"">
                            <img src=""images/causal_sequence/dog_causal/dog_causal_7.png"" class=""exp-image"">
                        </div>","0","part3_final_choice","","dog_causal","","5","3","-2"
"","","","","","survey-text","160","602652","0.0-154.0","CE4FE7F1882B457DB36AFC66D7A5F813","019ce76a-d192-7ce8-97ae-c62e331bfe0c","019ce768-b048-7627-b827-888248f65c31","","56857","","{""gender"":""female"",""age"":""18"",""decision_strategy"":""I decided the value of the images by how precious they seemed to me. "",""consistency_check"":""I used the same set of logic for all of the images to determine how valuable they were to me.""}","demographics_and_strategy","","","","","",""
"","","","","","instructions","161","607277","0.0-155.0","CE4FE7F1882B457DB36AFC66D7A5F813","019ce76a-d192-7ce8-97ae-c62e331bfe0c","019ce768-b048-7627-b827-888248f65c31","[{""page_index"":0,""viewing_time"":4623}]","4623","","","","","","","","",""
