"success","timeout","failed_images","failed_audio","failed_video","trial_type","trial_index","time_elapsed","internal_node_id","subject_id","study_id","session_id","view_history","rt","stimulus","response","task","image_index","folder","sequence_type","valuable_image_index","reward_type","chosen_image_index","target_X","correct_choice"
"true","false","[]","[]","[]","preload","0","167258","0.0-0.0","D97A7942B97D44C2892DF438DB3BD5D3","019cf704-1fa1-7142-95ea-ac266132fb08","019cf6fe-235e-7d95-bb9b-b011d2fe188e","","","","","","","","","","","","",""
"","","","","","instructions","1","173694","0.0-1.0","D97A7942B97D44C2892DF438DB3BD5D3","019cf704-1fa1-7142-95ea-ac266132fb08","019cf6fe-235e-7d95-bb9b-b011d2fe188e","[{""page_index"":0,""viewing_time"":6432}]","6432","","","","","","","","","","",""
"","","","","","instructions","2","176780","0.0-2.0","D97A7942B97D44C2892DF438DB3BD5D3","019cf704-1fa1-7142-95ea-ac266132fb08","019cf6fe-235e-7d95-bb9b-b011d2fe188e","[{""page_index"":0,""viewing_time"":3086}]","3086","","","","","","","","","","",""
"true","","","","","fullscreen","3","179999","0.0-3.0","D97A7942B97D44C2892DF438DB3BD5D3","019cf704-1fa1-7142-95ea-ac266132fb08","019cf6fe-235e-7d95-bb9b-b011d2fe188e","","2205","","","","","","","","","","",""
"","","","","","instructions","4","185354","0.0-4.0","D97A7942B97D44C2892DF438DB3BD5D3","019cf704-1fa1-7142-95ea-ac266132fb08","019cf6fe-235e-7d95-bb9b-b011d2fe188e","[{""page_index"":0,""viewing_time"":5353}]","5353","","","","","","","","","","",""
"","","","","","instructions","5","191830","0.0-5.0","D97A7942B97D44C2892DF438DB3BD5D3","019cf704-1fa1-7142-95ea-ac266132fb08","019cf6fe-235e-7d95-bb9b-b011d2fe188e","[{""page_index"":0,""viewing_time"":6474}]","6475","","","","","","","","","","",""
"","","","","","html-keyboard-response","6","195840","0.0-6.0","D97A7942B97D44C2892DF438DB3BD5D3","019cf704-1fa1-7142-95ea-ac266132fb08","019cf6fe-235e-7d95-bb9b-b011d2fe188e","","null","
                <div class=""stimulus-container"">
                    <img src=""images/instructions/movie_1.png"" class=""exp-image"">
                    <div class=""question-area""></div> 
                </div>","null","","","","","","","","",""
"","","","","","html-button-response","7","197867","0.0-7.0","D97A7942B97D44C2892DF438DB3BD5D3","019cf704-1fa1-7142-95ea-ac266132fb08","019cf6fe-235e-7d95-bb9b-b011d2fe188e","","2025","
                <div class=""stimulus-container"">
                    <img src=""images/instructions/movie_1.png"" class=""exp-image"">
                    <div class=""question-area"">
                        <p style=""font-size: 20px; font-weight: bold; margin: 0;"">Was there a person in this image?</p>
                    </div>
                </div>","0","example_question","1","","","","","","",""
"","","","","","html-keyboard-response","8","201869","0.0-8.0","D97A7942B97D44C2892DF438DB3BD5D3","019cf704-1fa1-7142-95ea-ac266132fb08","019cf6fe-235e-7d95-bb9b-b011d2fe188e","","null","
                <div class=""stimulus-container"">
                    <img src=""images/instructions/movie_2.png"" class=""exp-image"">
                    <div class=""question-area""></div> 
                </div>","null","","","","","","","","",""
"","","","","","html-button-response","9","203798","0.0-9.0","D97A7942B97D44C2892DF438DB3BD5D3","019cf704-1fa1-7142-95ea-ac266132fb08","019cf6fe-235e-7d95-bb9b-b011d2fe188e","","1927","
                <div class=""stimulus-container"">
                    <img src=""images/instructions/movie_2.png"" class=""exp-image"">
                    <div class=""question-area"">
                        <p style=""font-size: 20px; font-weight: bold; margin: 0;"">Was there a person in this image?</p>
                    </div>
                </div>","0","example_question","2","","","","","","",""
"","","","","","html-keyboard-response","10","207811","0.0-10.0","D97A7942B97D44C2892DF438DB3BD5D3","019cf704-1fa1-7142-95ea-ac266132fb08","019cf6fe-235e-7d95-bb9b-b011d2fe188e","","null","
                <div class=""stimulus-container"">
                    <img src=""images/instructions/movie_3.png"" class=""exp-image"">
                    <div class=""question-area""></div> 
                </div>","null","","","","","","","","",""
"","","","","","html-button-response","11","208953","0.0-11.0","D97A7942B97D44C2892DF438DB3BD5D3","019cf704-1fa1-7142-95ea-ac266132fb08","019cf6fe-235e-7d95-bb9b-b011d2fe188e","","1139","
                <div class=""stimulus-container"">
                    <img src=""images/instructions/movie_3.png"" class=""exp-image"">
                    <div class=""question-area"">
                        <p style=""font-size: 20px; font-weight: bold; margin: 0;"">Was there a person in this image?</p>
                    </div>
                </div>","0","example_question","3","","","","","","",""
"","","","","","html-keyboard-response","12","212967","0.0-12.0","D97A7942B97D44C2892DF438DB3BD5D3","019cf704-1fa1-7142-95ea-ac266132fb08","019cf6fe-235e-7d95-bb9b-b011d2fe188e","","null","
                <div class=""stimulus-container"">
                    <img src=""images/instructions/movie_4.png"" class=""exp-image"">
                    <div class=""question-area""></div> 
                </div>","null","","","","","","","","",""
"","","","","","html-button-response","13","214355","0.0-13.0","D97A7942B97D44C2892DF438DB3BD5D3","019cf704-1fa1-7142-95ea-ac266132fb08","019cf6fe-235e-7d95-bb9b-b011d2fe188e","","1386","
                <div class=""stimulus-container"">
                    <img src=""images/instructions/movie_4.png"" class=""exp-image"">
                    <div class=""question-area"">
                        <p style=""font-size: 20px; font-weight: bold; margin: 0;"">Was there a person in this image?</p>
                    </div>
                </div>","0","example_question","4","","","","","","",""
"","","","","","instructions","14","216607","0.0-14.0","D97A7942B97D44C2892DF438DB3BD5D3","019cf704-1fa1-7142-95ea-ac266132fb08","019cf6fe-235e-7d95-bb9b-b011d2fe188e","[{""page_index"":0,""viewing_time"":2252}]","2252","","","","","","","","","","",""
"","","","","","instructions","15","221755","0.0-15.0","D97A7942B97D44C2892DF438DB3BD5D3","019cf704-1fa1-7142-95ea-ac266132fb08","019cf6fe-235e-7d95-bb9b-b011d2fe188e","[{""page_index"":0,""viewing_time"":5147}]","5147","","","","","","","","","","",""
"","","","","","html-keyboard-response","16","222760","0.0-16.0","D97A7942B97D44C2892DF438DB3BD5D3","019cf704-1fa1-7142-95ea-ac266132fb08","019cf6fe-235e-7d95-bb9b-b011d2fe188e","","null","<div style=""background-color: white; width: 100vw; height: 100vh;""></div>","null","","","","","","","","",""
"","","","","","html-keyboard-response","17","227778","0.0-17.0","D97A7942B97D44C2892DF438DB3BD5D3","019cf704-1fa1-7142-95ea-ac266132fb08","019cf6fe-235e-7d95-bb9b-b011d2fe188e","","null","
                <div class=""stimulus-container"">
                    <img src=""images/schematic_sequence/supermarket_scheme/supermarket_scheme_1.png"" class=""exp-image"">
                    <div class=""question-area""></div> 
                </div>","null","","","","","","","","",""
"","","","","","html-button-response","18","230794","0.0-18.0","D97A7942B97D44C2892DF438DB3BD5D3","019cf704-1fa1-7142-95ea-ac266132fb08","019cf6fe-235e-7d95-bb9b-b011d2fe188e","","null","
                <div class=""stimulus-container"">
                    <img src=""images/schematic_sequence/supermarket_scheme/supermarket_scheme_1.png"" class=""exp-image"">
                    <div class=""question-area"">
                        <p style=""font-size: 20px; font-weight: bold; margin: 0;"">Is there a person in this image?</p>
                    </div>
                </div>","null","main_experiment_trial","1","supermarket_scheme","schematic_sequence","","","","",""
"","","","","","html-keyboard-response","19","235802","0.0-19.0","D97A7942B97D44C2892DF438DB3BD5D3","019cf704-1fa1-7142-95ea-ac266132fb08","019cf6fe-235e-7d95-bb9b-b011d2fe188e","","null","
                <div class=""stimulus-container"">
                    <img src=""images/schematic_sequence/supermarket_scheme/supermarket_scheme_2.png"" class=""exp-image"">
                    <div class=""question-area""></div> 
                </div>","null","","","","","","","","",""
"","","","","","html-button-response","20","236816","0.0-20.0","D97A7942B97D44C2892DF438DB3BD5D3","019cf704-1fa1-7142-95ea-ac266132fb08","019cf6fe-235e-7d95-bb9b-b011d2fe188e","","1013","
                <div class=""stimulus-container"">
                    <img src=""images/schematic_sequence/supermarket_scheme/supermarket_scheme_2.png"" class=""exp-image"">
                    <div class=""question-area"">
                        <p style=""font-size: 20px; font-weight: bold; margin: 0;"">Is there a person in this image?</p>
                    </div>
                </div>","1","main_experiment_trial","2","supermarket_scheme","schematic_sequence","","","","",""
"","","","","","html-keyboard-response","21","241818","0.0-21.0","D97A7942B97D44C2892DF438DB3BD5D3","019cf704-1fa1-7142-95ea-ac266132fb08","019cf6fe-235e-7d95-bb9b-b011d2fe188e","","null","
                <div class=""stimulus-container"">
                    <img src=""images/schematic_sequence/supermarket_scheme/supermarket_scheme_3.png"" class=""exp-image"">
                    <div class=""question-area""></div> 
                </div>","null","","","","","","","","",""
"","","","","","html-button-response","22","244827","0.0-22.0","D97A7942B97D44C2892DF438DB3BD5D3","019cf704-1fa1-7142-95ea-ac266132fb08","019cf6fe-235e-7d95-bb9b-b011d2fe188e","","null","
                <div class=""stimulus-container"">
                    <img src=""images/schematic_sequence/supermarket_scheme/supermarket_scheme_3.png"" class=""exp-image"">
                    <div class=""question-area"">
                        <p style=""font-size: 20px; font-weight: bold; margin: 0;"">Is there a person in this image?</p>
                    </div>
                </div>","null","main_experiment_trial","3","supermarket_scheme","schematic_sequence","","","","",""
"","","","","","html-keyboard-response","23","249830","0.0-23.0","D97A7942B97D44C2892DF438DB3BD5D3","019cf704-1fa1-7142-95ea-ac266132fb08","019cf6fe-235e-7d95-bb9b-b011d2fe188e","","null","
                <div class=""stimulus-container"">
                    <img src=""images/schematic_sequence/supermarket_scheme/supermarket_scheme_4.png"" class=""exp-image"">
                    <div class=""question-area""></div> 
                </div>","null","","","","","","","","",""
"","","","","","html-button-response","24","251338","0.0-24.0","D97A7942B97D44C2892DF438DB3BD5D3","019cf704-1fa1-7142-95ea-ac266132fb08","019cf6fe-235e-7d95-bb9b-b011d2fe188e","","1505","
                <div class=""stimulus-container"">
                    <img src=""images/schematic_sequence/supermarket_scheme/supermarket_scheme_4.png"" class=""exp-image"">
                    <div class=""question-area"">
                        <p style=""font-size: 20px; font-weight: bold; margin: 0;"">Is there a person in this image?</p>
                    </div>
                </div>","0","main_experiment_trial","4","supermarket_scheme","schematic_sequence","","","","",""
"","","","","","html-keyboard-response","25","256348","0.0-25.0","D97A7942B97D44C2892DF438DB3BD5D3","019cf704-1fa1-7142-95ea-ac266132fb08","019cf6fe-235e-7d95-bb9b-b011d2fe188e","","null","
                <div class=""stimulus-container"">
                    <img src=""images/schematic_sequence/supermarket_scheme/supermarket_scheme_5.png"" class=""exp-image"">
                    <div class=""question-area""></div> 
                </div>","null","","","","","","","","",""
"","","","","","html-button-response","26","256963","0.0-26.0","D97A7942B97D44C2892DF438DB3BD5D3","019cf704-1fa1-7142-95ea-ac266132fb08","019cf6fe-235e-7d95-bb9b-b011d2fe188e","","614","
                <div class=""stimulus-container"">
                    <img src=""images/schematic_sequence/supermarket_scheme/supermarket_scheme_5.png"" class=""exp-image"">
                    <div class=""question-area"">
                        <p style=""font-size: 20px; font-weight: bold; margin: 0;"">Is there a person in this image?</p>
                    </div>
                </div>","1","main_experiment_trial","5","supermarket_scheme","schematic_sequence","","","","",""
"","","","","","html-keyboard-response","27","261975","0.0-27.0","D97A7942B97D44C2892DF438DB3BD5D3","019cf704-1fa1-7142-95ea-ac266132fb08","019cf6fe-235e-7d95-bb9b-b011d2fe188e","","null","
                <div class=""stimulus-container"">
                    <img src=""images/schematic_sequence/supermarket_scheme/supermarket_scheme_6.png"" class=""exp-image"">
                    <div class=""question-area""></div> 
                </div>","null","","","","","","","","",""
"","","","","","html-button-response","28","262572","0.0-28.0","D97A7942B97D44C2892DF438DB3BD5D3","019cf704-1fa1-7142-95ea-ac266132fb08","019cf6fe-235e-7d95-bb9b-b011d2fe188e","","595","
                <div class=""stimulus-container"">
                    <img src=""images/schematic_sequence/supermarket_scheme/supermarket_scheme_6.png"" class=""exp-image"">
                    <div class=""question-area"">
                        <p style=""font-size: 20px; font-weight: bold; margin: 0;"">Is there a person in this image?</p>
                    </div>
                </div>","0","main_experiment_trial","6","supermarket_scheme","schematic_sequence","","","","",""
"","","","","","html-keyboard-response","29","267575","0.0-29.0","D97A7942B97D44C2892DF438DB3BD5D3","019cf704-1fa1-7142-95ea-ac266132fb08","019cf6fe-235e-7d95-bb9b-b011d2fe188e","","null","
                <div class=""stimulus-container"">
                    <img src=""images/schematic_sequence/supermarket_scheme/supermarket_scheme_7.png"" class=""exp-image"">
                    <div class=""question-area""></div> 
                </div>","null","","","","","","","","",""
"","","","","","html-button-response","30","268275","0.0-30.0","D97A7942B97D44C2892DF438DB3BD5D3","019cf704-1fa1-7142-95ea-ac266132fb08","019cf6fe-235e-7d95-bb9b-b011d2fe188e","","698","
                <div class=""stimulus-container"">
                    <img src=""images/schematic_sequence/supermarket_scheme/supermarket_scheme_7.png"" class=""exp-image"">
                    <div class=""question-area"">
                        <p style=""font-size: 20px; font-weight: bold; margin: 0;"">Is there a person in this image?</p>
                    </div>
                </div>","0","main_experiment_trial","7","supermarket_scheme","schematic_sequence","","","","",""
"","","","","","html-keyboard-response","31","273286","0.0-31.0","D97A7942B97D44C2892DF438DB3BD5D3","019cf704-1fa1-7142-95ea-ac266132fb08","019cf6fe-235e-7d95-bb9b-b011d2fe188e","","null","
                <div class=""stimulus-container"">
                    <img src=""images/schematic_sequence/supermarket_scheme/supermarket_scheme_8.png"" class=""exp-image"">
                    <div class=""question-area""></div> 
                </div>","null","","","","","","","","",""
"","","","","","html-button-response","32","273831","0.0-32.0","D97A7942B97D44C2892DF438DB3BD5D3","019cf704-1fa1-7142-95ea-ac266132fb08","019cf6fe-235e-7d95-bb9b-b011d2fe188e","","543","
                <div class=""stimulus-container"">
                    <img src=""images/schematic_sequence/supermarket_scheme/supermarket_scheme_8.png"" class=""exp-image"">
                    <div class=""question-area"">
                        <p style=""font-size: 20px; font-weight: bold; margin: 0;"">Is there a person in this image?</p>
                    </div>
                </div>","1","main_experiment_trial","8","supermarket_scheme","schematic_sequence","","","","",""
"","","","","","html-keyboard-response","33","278845","0.0-33.0","D97A7942B97D44C2892DF438DB3BD5D3","019cf704-1fa1-7142-95ea-ac266132fb08","019cf6fe-235e-7d95-bb9b-b011d2fe188e","","null","
                <div class=""stimulus-container"">
                    <img src=""images/schematic_sequence/supermarket_scheme/supermarket_scheme_9.png"" class=""exp-image"">
                    <div class=""question-area""></div> 
                </div>","null","","","","","","","","",""
"","","","","","html-button-response","34","280087","0.0-34.0","D97A7942B97D44C2892DF438DB3BD5D3","019cf704-1fa1-7142-95ea-ac266132fb08","019cf6fe-235e-7d95-bb9b-b011d2fe188e","","1240","
                <div class=""stimulus-container"">
                    <img src=""images/schematic_sequence/supermarket_scheme/supermarket_scheme_9.png"" class=""exp-image"">
                    <div class=""question-area"">
                        <p style=""font-size: 20px; font-weight: bold; margin: 0;"">Is there a person in this image?</p>
                    </div>
                </div>","0","main_experiment_trial","9","supermarket_scheme","schematic_sequence","","","","",""
"","","","","","html-keyboard-response","35","285102","0.0-35.0","D97A7942B97D44C2892DF438DB3BD5D3","019cf704-1fa1-7142-95ea-ac266132fb08","019cf6fe-235e-7d95-bb9b-b011d2fe188e","","null","
                <div class=""stimulus-container"">
                    <img src=""images/schematic_sequence/supermarket_scheme/supermarket_scheme_ten.png"" class=""exp-image"">
                    <div class=""question-area""></div> 
                </div>","null","","","","","","","","",""
"","","","","","html-button-response","36","286893","0.0-36.0","D97A7942B97D44C2892DF438DB3BD5D3","019cf704-1fa1-7142-95ea-ac266132fb08","019cf6fe-235e-7d95-bb9b-b011d2fe188e","","1788","
                <div class=""stimulus-container"">
                    <img src=""images/schematic_sequence/supermarket_scheme/supermarket_scheme_ten.png"" class=""exp-image"">
                    <div class=""question-area"">
                        <p style=""font-size: 20px; font-weight: bold; margin: 0;"">Is there a person in this image?</p>
                    </div>
                </div>","1","main_experiment_trial","ten","supermarket_scheme","schematic_sequence","","","","",""
"","","","","","html-keyboard-response","37","287908","0.0-37.0","D97A7942B97D44C2892DF438DB3BD5D3","019cf704-1fa1-7142-95ea-ac266132fb08","019cf6fe-235e-7d95-bb9b-b011d2fe188e","","null","<div style=""background-color: white; width: 100vw; height: 100vh;""></div>","null","","","","","","","","",""
"","","","","","html-keyboard-response","38","292914","0.0-38.0","D97A7942B97D44C2892DF438DB3BD5D3","019cf704-1fa1-7142-95ea-ac266132fb08","019cf6fe-235e-7d95-bb9b-b011d2fe188e","","null","
                <div class=""stimulus-container"">
                    <img src=""images/schematic_sequence/hotel_scheme/hotel_scheme_1.png"" class=""exp-image"">
                    <div class=""question-area""></div> 
                </div>","null","","","","","","","","",""
"","","","","","html-button-response","39","293784","0.0-39.0","D97A7942B97D44C2892DF438DB3BD5D3","019cf704-1fa1-7142-95ea-ac266132fb08","019cf6fe-235e-7d95-bb9b-b011d2fe188e","","867","
                <div class=""stimulus-container"">
                    <img src=""images/schematic_sequence/hotel_scheme/hotel_scheme_1.png"" class=""exp-image"">
                    <div class=""question-area"">
                        <p style=""font-size: 20px; font-weight: bold; margin: 0;"">Is there a person in this image?</p>
                    </div>
                </div>","1","main_experiment_trial","1","hotel_scheme","schematic_sequence","","","","",""
"","","","","","html-keyboard-response","40","298790","0.0-40.0","D97A7942B97D44C2892DF438DB3BD5D3","019cf704-1fa1-7142-95ea-ac266132fb08","019cf6fe-235e-7d95-bb9b-b011d2fe188e","","null","
                <div class=""stimulus-container"">
                    <img src=""images/schematic_sequence/hotel_scheme/hotel_scheme_2.png"" class=""exp-image"">
                    <div class=""question-area""></div> 
                </div>","null","","","","","","","","",""
"","","","","","html-button-response","41","299308","0.0-41.0","D97A7942B97D44C2892DF438DB3BD5D3","019cf704-1fa1-7142-95ea-ac266132fb08","019cf6fe-235e-7d95-bb9b-b011d2fe188e","","516","
                <div class=""stimulus-container"">
                    <img src=""images/schematic_sequence/hotel_scheme/hotel_scheme_2.png"" class=""exp-image"">
                    <div class=""question-area"">
                        <p style=""font-size: 20px; font-weight: bold; margin: 0;"">Is there a person in this image?</p>
                    </div>
                </div>","0","main_experiment_trial","2","hotel_scheme","schematic_sequence","","","","",""
"","","","","","html-keyboard-response","42","304325","0.0-42.0","D97A7942B97D44C2892DF438DB3BD5D3","019cf704-1fa1-7142-95ea-ac266132fb08","019cf6fe-235e-7d95-bb9b-b011d2fe188e","","null","
                <div class=""stimulus-container"">
                    <img src=""images/schematic_sequence/hotel_scheme/hotel_scheme_3.png"" class=""exp-image"">
                    <div class=""question-area""></div> 
                </div>","null","","","","","","","","",""
"","","","","","html-button-response","43","304786","0.0-43.0","D97A7942B97D44C2892DF438DB3BD5D3","019cf704-1fa1-7142-95ea-ac266132fb08","019cf6fe-235e-7d95-bb9b-b011d2fe188e","","459","
                <div class=""stimulus-container"">
                    <img src=""images/schematic_sequence/hotel_scheme/hotel_scheme_3.png"" class=""exp-image"">
                    <div class=""question-area"">
                        <p style=""font-size: 20px; font-weight: bold; margin: 0;"">Is there a person in this image?</p>
                    </div>
                </div>","0","main_experiment_trial","3","hotel_scheme","schematic_sequence","","","","",""
"","","","","","html-keyboard-response","44","309790","0.0-44.0","D97A7942B97D44C2892DF438DB3BD5D3","019cf704-1fa1-7142-95ea-ac266132fb08","019cf6fe-235e-7d95-bb9b-b011d2fe188e","","null","
                <div class=""stimulus-container"">
                    <img src=""images/schematic_sequence/hotel_scheme/hotel_scheme_4.png"" class=""exp-image"">
                    <div class=""question-area""></div> 
                </div>","null","","","","","","","","",""
"","","","","","html-button-response","45","310450","0.0-45.0","D97A7942B97D44C2892DF438DB3BD5D3","019cf704-1fa1-7142-95ea-ac266132fb08","019cf6fe-235e-7d95-bb9b-b011d2fe188e","","657","
                <div class=""stimulus-container"">
                    <img src=""images/schematic_sequence/hotel_scheme/hotel_scheme_4.png"" class=""exp-image"">
                    <div class=""question-area"">
                        <p style=""font-size: 20px; font-weight: bold; margin: 0;"">Is there a person in this image?</p>
                    </div>
                </div>","1","main_experiment_trial","4","hotel_scheme","schematic_sequence","","","","",""
"","","","","","html-keyboard-response","46","315461","0.0-46.0","D97A7942B97D44C2892DF438DB3BD5D3","019cf704-1fa1-7142-95ea-ac266132fb08","019cf6fe-235e-7d95-bb9b-b011d2fe188e","","null","
                <div class=""stimulus-container"">
                    <img src=""images/schematic_sequence/hotel_scheme/hotel_scheme_5.png"" class=""exp-image"">
                    <div class=""question-area""></div> 
                </div>","null","","","","","","","","",""
"","","","","","html-button-response","47","316044","0.0-47.0","D97A7942B97D44C2892DF438DB3BD5D3","019cf704-1fa1-7142-95ea-ac266132fb08","019cf6fe-235e-7d95-bb9b-b011d2fe188e","","581","
                <div class=""stimulus-container"">
                    <img src=""images/schematic_sequence/hotel_scheme/hotel_scheme_5.png"" class=""exp-image"">
                    <div class=""question-area"">
                        <p style=""font-size: 20px; font-weight: bold; margin: 0;"">Is there a person in this image?</p>
                    </div>
                </div>","0","main_experiment_trial","5","hotel_scheme","schematic_sequence","","","","",""
"","","","","","html-keyboard-response","48","321055","0.0-48.0","D97A7942B97D44C2892DF438DB3BD5D3","019cf704-1fa1-7142-95ea-ac266132fb08","019cf6fe-235e-7d95-bb9b-b011d2fe188e","","null","
                <div class=""stimulus-container"">
                    <img src=""images/schematic_sequence/hotel_scheme/hotel_scheme_6.png"" class=""exp-image"">
                    <div class=""question-area""></div> 
                </div>","null","","","","","","","","",""
"","","","","","html-button-response","49","321730","0.0-49.0","D97A7942B97D44C2892DF438DB3BD5D3","019cf704-1fa1-7142-95ea-ac266132fb08","019cf6fe-235e-7d95-bb9b-b011d2fe188e","","674","
                <div class=""stimulus-container"">
                    <img src=""images/schematic_sequence/hotel_scheme/hotel_scheme_6.png"" class=""exp-image"">
                    <div class=""question-area"">
                        <p style=""font-size: 20px; font-weight: bold; margin: 0;"">Is there a person in this image?</p>
                    </div>
                </div>","0","main_experiment_trial","6","hotel_scheme","schematic_sequence","","","","",""
"","","","","","html-keyboard-response","50","326748","0.0-50.0","D97A7942B97D44C2892DF438DB3BD5D3","019cf704-1fa1-7142-95ea-ac266132fb08","019cf6fe-235e-7d95-bb9b-b011d2fe188e","","null","
                <div class=""stimulus-container"">
                    <img src=""images/schematic_sequence/hotel_scheme/hotel_scheme_7.png"" class=""exp-image"">
                    <div class=""question-area""></div> 
                </div>","null","","","","","","","","",""
"","","","","","html-button-response","51","327314","0.0-51.0","D97A7942B97D44C2892DF438DB3BD5D3","019cf704-1fa1-7142-95ea-ac266132fb08","019cf6fe-235e-7d95-bb9b-b011d2fe188e","","565","
                <div class=""stimulus-container"">
                    <img src=""images/schematic_sequence/hotel_scheme/hotel_scheme_7.png"" class=""exp-image"">
                    <div class=""question-area"">
                        <p style=""font-size: 20px; font-weight: bold; margin: 0;"">Is there a person in this image?</p>
                    </div>
                </div>","0","main_experiment_trial","7","hotel_scheme","schematic_sequence","","","","",""
"","","","","","html-keyboard-response","52","332321","0.0-52.0","D97A7942B97D44C2892DF438DB3BD5D3","019cf704-1fa1-7142-95ea-ac266132fb08","019cf6fe-235e-7d95-bb9b-b011d2fe188e","","null","
                <div class=""stimulus-container"">
                    <img src=""images/schematic_sequence/hotel_scheme/hotel_scheme_8.png"" class=""exp-image"">
                    <div class=""question-area""></div> 
                </div>","null","","","","","","","","",""
"","","","","","html-button-response","53","332498","0.0-53.0","D97A7942B97D44C2892DF438DB3BD5D3","019cf704-1fa1-7142-95ea-ac266132fb08","019cf6fe-235e-7d95-bb9b-b011d2fe188e","","176","
                <div class=""stimulus-container"">
                    <img src=""images/schematic_sequence/hotel_scheme/hotel_scheme_8.png"" class=""exp-image"">
                    <div class=""question-area"">
                        <p style=""font-size: 20px; font-weight: bold; margin: 0;"">Is there a person in this image?</p>
                    </div>
                </div>","0","main_experiment_trial","8","hotel_scheme","schematic_sequence","","","","",""
"","","","","","html-keyboard-response","54","337504","0.0-54.0","D97A7942B97D44C2892DF438DB3BD5D3","019cf704-1fa1-7142-95ea-ac266132fb08","019cf6fe-235e-7d95-bb9b-b011d2fe188e","","null","
                <div class=""stimulus-container"">
                    <img src=""images/schematic_sequence/hotel_scheme/hotel_scheme_9.png"" class=""exp-image"">
                    <div class=""question-area""></div> 
                </div>","null","","","","","","","","",""
"","","","","","html-button-response","55","338004","0.0-55.0","D97A7942B97D44C2892DF438DB3BD5D3","019cf704-1fa1-7142-95ea-ac266132fb08","019cf6fe-235e-7d95-bb9b-b011d2fe188e","","499","
                <div class=""stimulus-container"">
                    <img src=""images/schematic_sequence/hotel_scheme/hotel_scheme_9.png"" class=""exp-image"">
                    <div class=""question-area"">
                        <p style=""font-size: 20px; font-weight: bold; margin: 0;"">Is there a person in this image?</p>
                    </div>
                </div>","0","main_experiment_trial","9","hotel_scheme","schematic_sequence","","","","",""
"","","","","","html-keyboard-response","56","343012","0.0-56.0","D97A7942B97D44C2892DF438DB3BD5D3","019cf704-1fa1-7142-95ea-ac266132fb08","019cf6fe-235e-7d95-bb9b-b011d2fe188e","","null","
                <div class=""stimulus-container"">
                    <img src=""images/schematic_sequence/hotel_scheme/hotel_scheme_ten.png"" class=""exp-image"">
                    <div class=""question-area""></div> 
                </div>","null","","","","","","","","",""
"","","","","","html-button-response","57","343491","0.0-57.0","D97A7942B97D44C2892DF438DB3BD5D3","019cf704-1fa1-7142-95ea-ac266132fb08","019cf6fe-235e-7d95-bb9b-b011d2fe188e","","477","
                <div class=""stimulus-container"">
                    <img src=""images/schematic_sequence/hotel_scheme/hotel_scheme_ten.png"" class=""exp-image"">
                    <div class=""question-area"">
                        <p style=""font-size: 20px; font-weight: bold; margin: 0;"">Is there a person in this image?</p>
                    </div>
                </div>","0","main_experiment_trial","ten","hotel_scheme","schematic_sequence","","","","",""
"","","","","","html-keyboard-response","58","344494","0.0-58.0","D97A7942B97D44C2892DF438DB3BD5D3","019cf704-1fa1-7142-95ea-ac266132fb08","019cf6fe-235e-7d95-bb9b-b011d2fe188e","","null","<div style=""background-color: white; width: 100vw; height: 100vh;""></div>","null","","","","","","","","",""
"","","","","","html-keyboard-response","59","349510","0.0-59.0","D97A7942B97D44C2892DF438DB3BD5D3","019cf704-1fa1-7142-95ea-ac266132fb08","019cf6fe-235e-7d95-bb9b-b011d2fe188e","","null","
                <div class=""stimulus-container"">
                    <img src=""images/schematic_sequence/interview_scheme/interview_scheme_1.png"" class=""exp-image"">
                    <div class=""question-area""></div> 
                </div>","null","","","","","","","","",""
"","","","","","html-button-response","60","351517","0.0-60.0","D97A7942B97D44C2892DF438DB3BD5D3","019cf704-1fa1-7142-95ea-ac266132fb08","019cf6fe-235e-7d95-bb9b-b011d2fe188e","","2006","
                <div class=""stimulus-container"">
                    <img src=""images/schematic_sequence/interview_scheme/interview_scheme_1.png"" class=""exp-image"">
                    <div class=""question-area"">
                        <p style=""font-size: 20px; font-weight: bold; margin: 0;"">Is there a person in this image?</p>
                    </div>
                </div>","1","main_experiment_trial","1","interview_scheme","schematic_sequence","","","","",""
"","","","","","html-keyboard-response","61","356523","0.0-61.0","D97A7942B97D44C2892DF438DB3BD5D3","019cf704-1fa1-7142-95ea-ac266132fb08","019cf6fe-235e-7d95-bb9b-b011d2fe188e","","null","
                <div class=""stimulus-container"">
                    <img src=""images/schematic_sequence/interview_scheme/interview_scheme_2.png"" class=""exp-image"">
                    <div class=""question-area""></div> 
                </div>","null","","","","","","","","",""
"","","","","","html-button-response","62","358975","0.0-62.0","D97A7942B97D44C2892DF438DB3BD5D3","019cf704-1fa1-7142-95ea-ac266132fb08","019cf6fe-235e-7d95-bb9b-b011d2fe188e","","2450","
                <div class=""stimulus-container"">
                    <img src=""images/schematic_sequence/interview_scheme/interview_scheme_2.png"" class=""exp-image"">
                    <div class=""question-area"">
                        <p style=""font-size: 20px; font-weight: bold; margin: 0;"">Is there a person in this image?</p>
                    </div>
                </div>","1","main_experiment_trial","2","interview_scheme","schematic_sequence","","","","",""
"","","","","","html-keyboard-response","63","363980","0.0-63.0","D97A7942B97D44C2892DF438DB3BD5D3","019cf704-1fa1-7142-95ea-ac266132fb08","019cf6fe-235e-7d95-bb9b-b011d2fe188e","","null","
                <div class=""stimulus-container"">
                    <img src=""images/schematic_sequence/interview_scheme/interview_scheme_3.png"" class=""exp-image"">
                    <div class=""question-area""></div> 
                </div>","null","","","","","","","","",""
"","","","","","html-button-response","64","364970","0.0-64.0","D97A7942B97D44C2892DF438DB3BD5D3","019cf704-1fa1-7142-95ea-ac266132fb08","019cf6fe-235e-7d95-bb9b-b011d2fe188e","","988","
                <div class=""stimulus-container"">
                    <img src=""images/schematic_sequence/interview_scheme/interview_scheme_3.png"" class=""exp-image"">
                    <div class=""question-area"">
                        <p style=""font-size: 20px; font-weight: bold; margin: 0;"">Is there a person in this image?</p>
                    </div>
                </div>","1","main_experiment_trial","3","interview_scheme","schematic_sequence","","","","",""
"","","","","","html-keyboard-response","65","369976","0.0-65.0","D97A7942B97D44C2892DF438DB3BD5D3","019cf704-1fa1-7142-95ea-ac266132fb08","019cf6fe-235e-7d95-bb9b-b011d2fe188e","","null","
                <div class=""stimulus-container"">
                    <img src=""images/schematic_sequence/interview_scheme/interview_scheme_4.png"" class=""exp-image"">
                    <div class=""question-area""></div> 
                </div>","null","","","","","","","","",""
"","","","","","html-button-response","66","370600","0.0-66.0","D97A7942B97D44C2892DF438DB3BD5D3","019cf704-1fa1-7142-95ea-ac266132fb08","019cf6fe-235e-7d95-bb9b-b011d2fe188e","","621","
                <div class=""stimulus-container"">
                    <img src=""images/schematic_sequence/interview_scheme/interview_scheme_4.png"" class=""exp-image"">
                    <div class=""question-area"">
                        <p style=""font-size: 20px; font-weight: bold; margin: 0;"">Is there a person in this image?</p>
                    </div>
                </div>","1","main_experiment_trial","4","interview_scheme","schematic_sequence","","","","",""
"","","","","","html-keyboard-response","67","375604","0.0-67.0","D97A7942B97D44C2892DF438DB3BD5D3","019cf704-1fa1-7142-95ea-ac266132fb08","019cf6fe-235e-7d95-bb9b-b011d2fe188e","","null","
                <div class=""stimulus-container"">
                    <img src=""images/schematic_sequence/interview_scheme/interview_scheme_5.png"" class=""exp-image"">
                    <div class=""question-area""></div> 
                </div>","null","","","","","","","","",""
"","","","","","html-button-response","68","378609","0.0-68.0","D97A7942B97D44C2892DF438DB3BD5D3","019cf704-1fa1-7142-95ea-ac266132fb08","019cf6fe-235e-7d95-bb9b-b011d2fe188e","","null","
                <div class=""stimulus-container"">
                    <img src=""images/schematic_sequence/interview_scheme/interview_scheme_5.png"" class=""exp-image"">
                    <div class=""question-area"">
                        <p style=""font-size: 20px; font-weight: bold; margin: 0;"">Is there a person in this image?</p>
                    </div>
                </div>","null","main_experiment_trial","5","interview_scheme","schematic_sequence","","","","",""
"","","","","","html-keyboard-response","69","383621","0.0-69.0","D97A7942B97D44C2892DF438DB3BD5D3","019cf704-1fa1-7142-95ea-ac266132fb08","019cf6fe-235e-7d95-bb9b-b011d2fe188e","","null","
                <div class=""stimulus-container"">
                    <img src=""images/schematic_sequence/interview_scheme/interview_scheme_6.png"" class=""exp-image"">
                    <div class=""question-area""></div> 
                </div>","null","","","","","","","","",""
"","","","","","html-button-response","70","386624","0.0-70.0","D97A7942B97D44C2892DF438DB3BD5D3","019cf704-1fa1-7142-95ea-ac266132fb08","019cf6fe-235e-7d95-bb9b-b011d2fe188e","","null","
                <div class=""stimulus-container"">
                    <img src=""images/schematic_sequence/interview_scheme/interview_scheme_6.png"" class=""exp-image"">
                    <div class=""question-area"">
                        <p style=""font-size: 20px; font-weight: bold; margin: 0;"">Is there a person in this image?</p>
                    </div>
                </div>","null","main_experiment_trial","6","interview_scheme","schematic_sequence","","","","",""
"","","","","","html-keyboard-response","71","391626","0.0-71.0","D97A7942B97D44C2892DF438DB3BD5D3","019cf704-1fa1-7142-95ea-ac266132fb08","019cf6fe-235e-7d95-bb9b-b011d2fe188e","","null","
                <div class=""stimulus-container"">
                    <img src=""images/schematic_sequence/interview_scheme/interview_scheme_7.png"" class=""exp-image"">
                    <div class=""question-area""></div> 
                </div>","null","","","","","","","","",""
"","","","","","html-button-response","72","392934","0.0-72.0","D97A7942B97D44C2892DF438DB3BD5D3","019cf704-1fa1-7142-95ea-ac266132fb08","019cf6fe-235e-7d95-bb9b-b011d2fe188e","","1306","
                <div class=""stimulus-container"">
                    <img src=""images/schematic_sequence/interview_scheme/interview_scheme_7.png"" class=""exp-image"">
                    <div class=""question-area"">
                        <p style=""font-size: 20px; font-weight: bold; margin: 0;"">Is there a person in this image?</p>
                    </div>
                </div>","0","main_experiment_trial","7","interview_scheme","schematic_sequence","","","","",""
"","","","","","html-keyboard-response","73","397949","0.0-73.0","D97A7942B97D44C2892DF438DB3BD5D3","019cf704-1fa1-7142-95ea-ac266132fb08","019cf6fe-235e-7d95-bb9b-b011d2fe188e","","null","
                <div class=""stimulus-container"">
                    <img src=""images/schematic_sequence/interview_scheme/interview_scheme_8.png"" class=""exp-image"">
                    <div class=""question-area""></div> 
                </div>","null","","","","","","","","",""
"","","","","","html-button-response","74","398580","0.0-74.0","D97A7942B97D44C2892DF438DB3BD5D3","019cf704-1fa1-7142-95ea-ac266132fb08","019cf6fe-235e-7d95-bb9b-b011d2fe188e","","629","
                <div class=""stimulus-container"">
                    <img src=""images/schematic_sequence/interview_scheme/interview_scheme_8.png"" class=""exp-image"">
                    <div class=""question-area"">
                        <p style=""font-size: 20px; font-weight: bold; margin: 0;"">Is there a person in this image?</p>
                    </div>
                </div>","0","main_experiment_trial","8","interview_scheme","schematic_sequence","","","","",""
"","","","","","html-keyboard-response","75","403596","0.0-75.0","D97A7942B97D44C2892DF438DB3BD5D3","019cf704-1fa1-7142-95ea-ac266132fb08","019cf6fe-235e-7d95-bb9b-b011d2fe188e","","null","
                <div class=""stimulus-container"">
                    <img src=""images/schematic_sequence/interview_scheme/interview_scheme_9.png"" class=""exp-image"">
                    <div class=""question-area""></div> 
                </div>","null","","","","","","","","",""
"","","","","","html-button-response","76","406580","0.0-76.0","D97A7942B97D44C2892DF438DB3BD5D3","019cf704-1fa1-7142-95ea-ac266132fb08","019cf6fe-235e-7d95-bb9b-b011d2fe188e","","2982","
                <div class=""stimulus-container"">
                    <img src=""images/schematic_sequence/interview_scheme/interview_scheme_9.png"" class=""exp-image"">
                    <div class=""question-area"">
                        <p style=""font-size: 20px; font-weight: bold; margin: 0;"">Is there a person in this image?</p>
                    </div>
                </div>","0","main_experiment_trial","9","interview_scheme","schematic_sequence","","","","",""
"","","","","","html-keyboard-response","77","411589","0.0-77.0","D97A7942B97D44C2892DF438DB3BD5D3","019cf704-1fa1-7142-95ea-ac266132fb08","019cf6fe-235e-7d95-bb9b-b011d2fe188e","","null","
                <div class=""stimulus-container"">
                    <img src=""images/schematic_sequence/interview_scheme/interview_scheme_ten.png"" class=""exp-image"">
                    <div class=""question-area""></div> 
                </div>","null","","","","","","","","",""
"","","","","","html-button-response","78","412968","0.0-78.0","D97A7942B97D44C2892DF438DB3BD5D3","019cf704-1fa1-7142-95ea-ac266132fb08","019cf6fe-235e-7d95-bb9b-b011d2fe188e","","1377","
                <div class=""stimulus-container"">
                    <img src=""images/schematic_sequence/interview_scheme/interview_scheme_ten.png"" class=""exp-image"">
                    <div class=""question-area"">
                        <p style=""font-size: 20px; font-weight: bold; margin: 0;"">Is there a person in this image?</p>
                    </div>
                </div>","0","main_experiment_trial","ten","interview_scheme","schematic_sequence","","","","",""
"","","","","","html-keyboard-response","79","413975","0.0-79.0","D97A7942B97D44C2892DF438DB3BD5D3","019cf704-1fa1-7142-95ea-ac266132fb08","019cf6fe-235e-7d95-bb9b-b011d2fe188e","","null","<div style=""background-color: white; width: 100vw; height: 100vh;""></div>","null","","","","","","","","",""
"","","","","","html-keyboard-response","80","418982","0.0-80.0","D97A7942B97D44C2892DF438DB3BD5D3","019cf704-1fa1-7142-95ea-ac266132fb08","019cf6fe-235e-7d95-bb9b-b011d2fe188e","","null","
                <div class=""stimulus-container"">
                    <img src=""images/schematic_sequence/dinner_party_scheme/dinner_party_scheme_1.png"" class=""exp-image"">
                    <div class=""question-area""></div> 
                </div>","null","","","","","","","","",""
"","","","","","html-button-response","81","421998","0.0-81.0","D97A7942B97D44C2892DF438DB3BD5D3","019cf704-1fa1-7142-95ea-ac266132fb08","019cf6fe-235e-7d95-bb9b-b011d2fe188e","","null","
                <div class=""stimulus-container"">
                    <img src=""images/schematic_sequence/dinner_party_scheme/dinner_party_scheme_1.png"" class=""exp-image"">
                    <div class=""question-area"">
                        <p style=""font-size: 20px; font-weight: bold; margin: 0;"">Is there a person in this image?</p>
                    </div>
                </div>","null","main_experiment_trial","1","dinner_party_scheme","schematic_sequence","","","","",""
"","","","","","html-keyboard-response","82","427010","0.0-82.0","D97A7942B97D44C2892DF438DB3BD5D3","019cf704-1fa1-7142-95ea-ac266132fb08","019cf6fe-235e-7d95-bb9b-b011d2fe188e","","null","
                <div class=""stimulus-container"">
                    <img src=""images/schematic_sequence/dinner_party_scheme/dinner_party_scheme_2.png"" class=""exp-image"">
                    <div class=""question-area""></div> 
                </div>","null","","","","","","","","",""
"","","","","","html-button-response","83","428034","0.0-83.0","D97A7942B97D44C2892DF438DB3BD5D3","019cf704-1fa1-7142-95ea-ac266132fb08","019cf6fe-235e-7d95-bb9b-b011d2fe188e","","1022","
                <div class=""stimulus-container"">
                    <img src=""images/schematic_sequence/dinner_party_scheme/dinner_party_scheme_2.png"" class=""exp-image"">
                    <div class=""question-area"">
                        <p style=""font-size: 20px; font-weight: bold; margin: 0;"">Is there a person in this image?</p>
                    </div>
                </div>","1","main_experiment_trial","2","dinner_party_scheme","schematic_sequence","","","","",""
"","","","","","html-keyboard-response","84","433048","0.0-84.0","D97A7942B97D44C2892DF438DB3BD5D3","019cf704-1fa1-7142-95ea-ac266132fb08","019cf6fe-235e-7d95-bb9b-b011d2fe188e","","null","
                <div class=""stimulus-container"">
                    <img src=""images/schematic_sequence/dinner_party_scheme/dinner_party_scheme_3.png"" class=""exp-image"">
                    <div class=""question-area""></div> 
                </div>","null","","","","","","","","",""
"","","","","","html-button-response","85","434360","0.0-85.0","D97A7942B97D44C2892DF438DB3BD5D3","019cf704-1fa1-7142-95ea-ac266132fb08","019cf6fe-235e-7d95-bb9b-b011d2fe188e","","1310","
                <div class=""stimulus-container"">
                    <img src=""images/schematic_sequence/dinner_party_scheme/dinner_party_scheme_3.png"" class=""exp-image"">
                    <div class=""question-area"">
                        <p style=""font-size: 20px; font-weight: bold; margin: 0;"">Is there a person in this image?</p>
                    </div>
                </div>","0","main_experiment_trial","3","dinner_party_scheme","schematic_sequence","","","","",""
"","","","","","html-keyboard-response","86","439371","0.0-86.0","D97A7942B97D44C2892DF438DB3BD5D3","019cf704-1fa1-7142-95ea-ac266132fb08","019cf6fe-235e-7d95-bb9b-b011d2fe188e","","null","
                <div class=""stimulus-container"">
                    <img src=""images/schematic_sequence/dinner_party_scheme/dinner_party_scheme_4.png"" class=""exp-image"">
                    <div class=""question-area""></div> 
                </div>","null","","","","","","","","",""
"","","","","","html-button-response","87","439883","0.0-87.0","D97A7942B97D44C2892DF438DB3BD5D3","019cf704-1fa1-7142-95ea-ac266132fb08","019cf6fe-235e-7d95-bb9b-b011d2fe188e","","510","
                <div class=""stimulus-container"">
                    <img src=""images/schematic_sequence/dinner_party_scheme/dinner_party_scheme_4.png"" class=""exp-image"">
                    <div class=""question-area"">
                        <p style=""font-size: 20px; font-weight: bold; margin: 0;"">Is there a person in this image?</p>
                    </div>
                </div>","0","main_experiment_trial","4","dinner_party_scheme","schematic_sequence","","","","",""
"","","","","","html-keyboard-response","88","444888","0.0-88.0","D97A7942B97D44C2892DF438DB3BD5D3","019cf704-1fa1-7142-95ea-ac266132fb08","019cf6fe-235e-7d95-bb9b-b011d2fe188e","","null","
                <div class=""stimulus-container"">
                    <img src=""images/schematic_sequence/dinner_party_scheme/dinner_party_scheme_5.png"" class=""exp-image"">
                    <div class=""question-area""></div> 
                </div>","null","","","","","","","","",""
"","","","","","html-button-response","89","445416","0.0-89.0","D97A7942B97D44C2892DF438DB3BD5D3","019cf704-1fa1-7142-95ea-ac266132fb08","019cf6fe-235e-7d95-bb9b-b011d2fe188e","","526","
                <div class=""stimulus-container"">
                    <img src=""images/schematic_sequence/dinner_party_scheme/dinner_party_scheme_5.png"" class=""exp-image"">
                    <div class=""question-area"">
                        <p style=""font-size: 20px; font-weight: bold; margin: 0;"">Is there a person in this image?</p>
                    </div>
                </div>","0","main_experiment_trial","5","dinner_party_scheme","schematic_sequence","","","","",""
"","","","","","html-keyboard-response","90","450418","0.0-90.0","D97A7942B97D44C2892DF438DB3BD5D3","019cf704-1fa1-7142-95ea-ac266132fb08","019cf6fe-235e-7d95-bb9b-b011d2fe188e","","null","
                <div class=""stimulus-container"">
                    <img src=""images/schematic_sequence/dinner_party_scheme/dinner_party_scheme_6.png"" class=""exp-image"">
                    <div class=""question-area""></div> 
                </div>","null","","","","","","","","",""
"","","","","","html-button-response","91","450815","0.0-91.0","D97A7942B97D44C2892DF438DB3BD5D3","019cf704-1fa1-7142-95ea-ac266132fb08","019cf6fe-235e-7d95-bb9b-b011d2fe188e","","394","
                <div class=""stimulus-container"">
                    <img src=""images/schematic_sequence/dinner_party_scheme/dinner_party_scheme_6.png"" class=""exp-image"">
                    <div class=""question-area"">
                        <p style=""font-size: 20px; font-weight: bold; margin: 0;"">Is there a person in this image?</p>
                    </div>
                </div>","0","main_experiment_trial","6","dinner_party_scheme","schematic_sequence","","","","",""
"","","","","","html-keyboard-response","92","455827","0.0-92.0","D97A7942B97D44C2892DF438DB3BD5D3","019cf704-1fa1-7142-95ea-ac266132fb08","019cf6fe-235e-7d95-bb9b-b011d2fe188e","","null","
                <div class=""stimulus-container"">
                    <img src=""images/schematic_sequence/dinner_party_scheme/dinner_party_scheme_7.png"" class=""exp-image"">
                    <div class=""question-area""></div> 
                </div>","null","","","","","","","","",""
"","","","","","html-button-response","93","456339","0.0-93.0","D97A7942B97D44C2892DF438DB3BD5D3","019cf704-1fa1-7142-95ea-ac266132fb08","019cf6fe-235e-7d95-bb9b-b011d2fe188e","","510","
                <div class=""stimulus-container"">
                    <img src=""images/schematic_sequence/dinner_party_scheme/dinner_party_scheme_7.png"" class=""exp-image"">
                    <div class=""question-area"">
                        <p style=""font-size: 20px; font-weight: bold; margin: 0;"">Is there a person in this image?</p>
                    </div>
                </div>","0","main_experiment_trial","7","dinner_party_scheme","schematic_sequence","","","","",""
"","","","","","html-keyboard-response","94","461356","0.0-94.0","D97A7942B97D44C2892DF438DB3BD5D3","019cf704-1fa1-7142-95ea-ac266132fb08","019cf6fe-235e-7d95-bb9b-b011d2fe188e","","null","
                <div class=""stimulus-container"">
                    <img src=""images/schematic_sequence/dinner_party_scheme/dinner_party_scheme_8.png"" class=""exp-image"">
                    <div class=""question-area""></div> 
                </div>","null","","","","","","","","",""
"","","","","","html-button-response","95","461925","0.0-95.0","D97A7942B97D44C2892DF438DB3BD5D3","019cf704-1fa1-7142-95ea-ac266132fb08","019cf6fe-235e-7d95-bb9b-b011d2fe188e","","566","
                <div class=""stimulus-container"">
                    <img src=""images/schematic_sequence/dinner_party_scheme/dinner_party_scheme_8.png"" class=""exp-image"">
                    <div class=""question-area"">
                        <p style=""font-size: 20px; font-weight: bold; margin: 0;"">Is there a person in this image?</p>
                    </div>
                </div>","0","main_experiment_trial","8","dinner_party_scheme","schematic_sequence","","","","",""
"","","","","","html-keyboard-response","96","466936","0.0-96.0","D97A7942B97D44C2892DF438DB3BD5D3","019cf704-1fa1-7142-95ea-ac266132fb08","019cf6fe-235e-7d95-bb9b-b011d2fe188e","","null","
                <div class=""stimulus-container"">
                    <img src=""images/schematic_sequence/dinner_party_scheme/dinner_party_scheme_9.png"" class=""exp-image"">
                    <div class=""question-area""></div> 
                </div>","null","","","","","","","","",""
"","","","","","html-button-response","97","467432","0.0-97.0","D97A7942B97D44C2892DF438DB3BD5D3","019cf704-1fa1-7142-95ea-ac266132fb08","019cf6fe-235e-7d95-bb9b-b011d2fe188e","","493","
                <div class=""stimulus-container"">
                    <img src=""images/schematic_sequence/dinner_party_scheme/dinner_party_scheme_9.png"" class=""exp-image"">
                    <div class=""question-area"">
                        <p style=""font-size: 20px; font-weight: bold; margin: 0;"">Is there a person in this image?</p>
                    </div>
                </div>","0","main_experiment_trial","9","dinner_party_scheme","schematic_sequence","","","","",""
"","","","","","html-keyboard-response","98","472448","0.0-98.0","D97A7942B97D44C2892DF438DB3BD5D3","019cf704-1fa1-7142-95ea-ac266132fb08","019cf6fe-235e-7d95-bb9b-b011d2fe188e","","null","
                <div class=""stimulus-container"">
                    <img src=""images/schematic_sequence/dinner_party_scheme/dinner_party_scheme_ten.png"" class=""exp-image"">
                    <div class=""question-area""></div> 
                </div>","null","","","","","","","","",""
"","","","","","html-button-response","99","473410","0.0-99.0","D97A7942B97D44C2892DF438DB3BD5D3","019cf704-1fa1-7142-95ea-ac266132fb08","019cf6fe-235e-7d95-bb9b-b011d2fe188e","","960","
                <div class=""stimulus-container"">
                    <img src=""images/schematic_sequence/dinner_party_scheme/dinner_party_scheme_ten.png"" class=""exp-image"">
                    <div class=""question-area"">
                        <p style=""font-size: 20px; font-weight: bold; margin: 0;"">Is there a person in this image?</p>
                    </div>
                </div>","0","main_experiment_trial","ten","dinner_party_scheme","schematic_sequence","","","","",""
"","","","","","html-keyboard-response","100","474419","0.0-100.0","D97A7942B97D44C2892DF438DB3BD5D3","019cf704-1fa1-7142-95ea-ac266132fb08","019cf6fe-235e-7d95-bb9b-b011d2fe188e","","null","<div style=""background-color: white; width: 100vw; height: 100vh;""></div>","null","","","","","","","","",""
"","","","","","html-keyboard-response","101","479433","0.0-101.0","D97A7942B97D44C2892DF438DB3BD5D3","019cf704-1fa1-7142-95ea-ac266132fb08","019cf6fe-235e-7d95-bb9b-b011d2fe188e","","null","
                <div class=""stimulus-container"">
                    <img src=""images/schematic_sequence/restaurant_scheme/restaurant_scheme_1.png"" class=""exp-image"">
                    <div class=""question-area""></div> 
                </div>","null","","","","","","","","",""
"","","","","","html-button-response","102","480458","0.0-102.0","D97A7942B97D44C2892DF438DB3BD5D3","019cf704-1fa1-7142-95ea-ac266132fb08","019cf6fe-235e-7d95-bb9b-b011d2fe188e","","1023","
                <div class=""stimulus-container"">
                    <img src=""images/schematic_sequence/restaurant_scheme/restaurant_scheme_1.png"" class=""exp-image"">
                    <div class=""question-area"">
                        <p style=""font-size: 20px; font-weight: bold; margin: 0;"">Is there a person in this image?</p>
                    </div>
                </div>","0","main_experiment_trial","1","restaurant_scheme","schematic_sequence","","","","",""
"","","","","","html-keyboard-response","103","485474","0.0-103.0","D97A7942B97D44C2892DF438DB3BD5D3","019cf704-1fa1-7142-95ea-ac266132fb08","019cf6fe-235e-7d95-bb9b-b011d2fe188e","","null","
                <div class=""stimulus-container"">
                    <img src=""images/schematic_sequence/restaurant_scheme/restaurant_scheme_2.png"" class=""exp-image"">
                    <div class=""question-area""></div> 
                </div>","null","","","","","","","","",""
"","","","","","html-button-response","104","488488","0.0-104.0","D97A7942B97D44C2892DF438DB3BD5D3","019cf704-1fa1-7142-95ea-ac266132fb08","019cf6fe-235e-7d95-bb9b-b011d2fe188e","","null","
                <div class=""stimulus-container"">
                    <img src=""images/schematic_sequence/restaurant_scheme/restaurant_scheme_2.png"" class=""exp-image"">
                    <div class=""question-area"">
                        <p style=""font-size: 20px; font-weight: bold; margin: 0;"">Is there a person in this image?</p>
                    </div>
                </div>","null","main_experiment_trial","2","restaurant_scheme","schematic_sequence","","","","",""
"","","","","","html-keyboard-response","105","493490","0.0-105.0","D97A7942B97D44C2892DF438DB3BD5D3","019cf704-1fa1-7142-95ea-ac266132fb08","019cf6fe-235e-7d95-bb9b-b011d2fe188e","","null","
                <div class=""stimulus-container"">
                    <img src=""images/schematic_sequence/restaurant_scheme/restaurant_scheme_3.png"" class=""exp-image"">
                    <div class=""question-area""></div> 
                </div>","null","","","","","","","","",""
"","","","","","html-button-response","106","494022","0.0-106.0","D97A7942B97D44C2892DF438DB3BD5D3","019cf704-1fa1-7142-95ea-ac266132fb08","019cf6fe-235e-7d95-bb9b-b011d2fe188e","","529","
                <div class=""stimulus-container"">
                    <img src=""images/schematic_sequence/restaurant_scheme/restaurant_scheme_3.png"" class=""exp-image"">
                    <div class=""question-area"">
                        <p style=""font-size: 20px; font-weight: bold; margin: 0;"">Is there a person in this image?</p>
                    </div>
                </div>","1","main_experiment_trial","3","restaurant_scheme","schematic_sequence","","","","",""
"","","","","","html-keyboard-response","107","499038","0.0-107.0","D97A7942B97D44C2892DF438DB3BD5D3","019cf704-1fa1-7142-95ea-ac266132fb08","019cf6fe-235e-7d95-bb9b-b011d2fe188e","","null","
                <div class=""stimulus-container"">
                    <img src=""images/schematic_sequence/restaurant_scheme/restaurant_scheme_4.png"" class=""exp-image"">
                    <div class=""question-area""></div> 
                </div>","null","","","","","","","","",""
"","","","","","html-button-response","108","499672","0.0-108.0","D97A7942B97D44C2892DF438DB3BD5D3","019cf704-1fa1-7142-95ea-ac266132fb08","019cf6fe-235e-7d95-bb9b-b011d2fe188e","","631","
                <div class=""stimulus-container"">
                    <img src=""images/schematic_sequence/restaurant_scheme/restaurant_scheme_4.png"" class=""exp-image"">
                    <div class=""question-area"">
                        <p style=""font-size: 20px; font-weight: bold; margin: 0;"">Is there a person in this image?</p>
                    </div>
                </div>","0","main_experiment_trial","4","restaurant_scheme","schematic_sequence","","","","",""
"","","","","","html-keyboard-response","109","504683","0.0-109.0","D97A7942B97D44C2892DF438DB3BD5D3","019cf704-1fa1-7142-95ea-ac266132fb08","019cf6fe-235e-7d95-bb9b-b011d2fe188e","","null","
                <div class=""stimulus-container"">
                    <img src=""images/schematic_sequence/restaurant_scheme/restaurant_scheme_5.png"" class=""exp-image"">
                    <div class=""question-area""></div> 
                </div>","null","","","","","","","","",""
"","","","","","html-button-response","110","505284","0.0-110.0","D97A7942B97D44C2892DF438DB3BD5D3","019cf704-1fa1-7142-95ea-ac266132fb08","019cf6fe-235e-7d95-bb9b-b011d2fe188e","","599","
                <div class=""stimulus-container"">
                    <img src=""images/schematic_sequence/restaurant_scheme/restaurant_scheme_5.png"" class=""exp-image"">
                    <div class=""question-area"">
                        <p style=""font-size: 20px; font-weight: bold; margin: 0;"">Is there a person in this image?</p>
                    </div>
                </div>","0","main_experiment_trial","5","restaurant_scheme","schematic_sequence","","","","",""
"","","","","","html-keyboard-response","111","510300","0.0-111.0","D97A7942B97D44C2892DF438DB3BD5D3","019cf704-1fa1-7142-95ea-ac266132fb08","019cf6fe-235e-7d95-bb9b-b011d2fe188e","","null","
                <div class=""stimulus-container"">
                    <img src=""images/schematic_sequence/restaurant_scheme/restaurant_scheme_6.png"" class=""exp-image"">
                    <div class=""question-area""></div> 
                </div>","null","","","","","","","","",""
"","","","","","html-button-response","112","511253","0.0-112.0","D97A7942B97D44C2892DF438DB3BD5D3","019cf704-1fa1-7142-95ea-ac266132fb08","019cf6fe-235e-7d95-bb9b-b011d2fe188e","","952","
                <div class=""stimulus-container"">
                    <img src=""images/schematic_sequence/restaurant_scheme/restaurant_scheme_6.png"" class=""exp-image"">
                    <div class=""question-area"">
                        <p style=""font-size: 20px; font-weight: bold; margin: 0;"">Is there a person in this image?</p>
                    </div>
                </div>","1","main_experiment_trial","6","restaurant_scheme","schematic_sequence","","","","",""
"","","","","","html-keyboard-response","113","516263","0.0-113.0","D97A7942B97D44C2892DF438DB3BD5D3","019cf704-1fa1-7142-95ea-ac266132fb08","019cf6fe-235e-7d95-bb9b-b011d2fe188e","","null","
                <div class=""stimulus-container"">
                    <img src=""images/schematic_sequence/restaurant_scheme/restaurant_scheme_7.png"" class=""exp-image"">
                    <div class=""question-area""></div> 
                </div>","null","","","","","","","","",""
"","","","","","html-button-response","114","517442","0.0-114.0","D97A7942B97D44C2892DF438DB3BD5D3","019cf704-1fa1-7142-95ea-ac266132fb08","019cf6fe-235e-7d95-bb9b-b011d2fe188e","","1177","
                <div class=""stimulus-container"">
                    <img src=""images/schematic_sequence/restaurant_scheme/restaurant_scheme_7.png"" class=""exp-image"">
                    <div class=""question-area"">
                        <p style=""font-size: 20px; font-weight: bold; margin: 0;"">Is there a person in this image?</p>
                    </div>
                </div>","1","main_experiment_trial","7","restaurant_scheme","schematic_sequence","","","","",""
"","","","","","html-keyboard-response","115","522448","0.0-115.0","D97A7942B97D44C2892DF438DB3BD5D3","019cf704-1fa1-7142-95ea-ac266132fb08","019cf6fe-235e-7d95-bb9b-b011d2fe188e","","null","
                <div class=""stimulus-container"">
                    <img src=""images/schematic_sequence/restaurant_scheme/restaurant_scheme_8.png"" class=""exp-image"">
                    <div class=""question-area""></div> 
                </div>","null","","","","","","","","",""
"","","","","","html-button-response","116","523753","0.0-116.0","D97A7942B97D44C2892DF438DB3BD5D3","019cf704-1fa1-7142-95ea-ac266132fb08","019cf6fe-235e-7d95-bb9b-b011d2fe188e","","1303","
                <div class=""stimulus-container"">
                    <img src=""images/schematic_sequence/restaurant_scheme/restaurant_scheme_8.png"" class=""exp-image"">
                    <div class=""question-area"">
                        <p style=""font-size: 20px; font-weight: bold; margin: 0;"">Is there a person in this image?</p>
                    </div>
                </div>","1","main_experiment_trial","8","restaurant_scheme","schematic_sequence","","","","",""
"","","","","","html-keyboard-response","117","528769","0.0-117.0","D97A7942B97D44C2892DF438DB3BD5D3","019cf704-1fa1-7142-95ea-ac266132fb08","019cf6fe-235e-7d95-bb9b-b011d2fe188e","","null","
                <div class=""stimulus-container"">
                    <img src=""images/schematic_sequence/restaurant_scheme/restaurant_scheme_9.png"" class=""exp-image"">
                    <div class=""question-area""></div> 
                </div>","null","","","","","","","","",""
"","","","","","html-button-response","118","530686","0.0-118.0","D97A7942B97D44C2892DF438DB3BD5D3","019cf704-1fa1-7142-95ea-ac266132fb08","019cf6fe-235e-7d95-bb9b-b011d2fe188e","","1916","
                <div class=""stimulus-container"">
                    <img src=""images/schematic_sequence/restaurant_scheme/restaurant_scheme_9.png"" class=""exp-image"">
                    <div class=""question-area"">
                        <p style=""font-size: 20px; font-weight: bold; margin: 0;"">Is there a person in this image?</p>
                    </div>
                </div>","0","main_experiment_trial","9","restaurant_scheme","schematic_sequence","","","","",""
"","","","","","html-keyboard-response","119","535699","0.0-119.0","D97A7942B97D44C2892DF438DB3BD5D3","019cf704-1fa1-7142-95ea-ac266132fb08","019cf6fe-235e-7d95-bb9b-b011d2fe188e","","null","
                <div class=""stimulus-container"">
                    <img src=""images/schematic_sequence/restaurant_scheme/restaurant_scheme_ten.png"" class=""exp-image"">
                    <div class=""question-area""></div> 
                </div>","null","","","","","","","","",""
"","","","","","html-button-response","120","537313","0.0-120.0","D97A7942B97D44C2892DF438DB3BD5D3","019cf704-1fa1-7142-95ea-ac266132fb08","019cf6fe-235e-7d95-bb9b-b011d2fe188e","","1614","
                <div class=""stimulus-container"">
                    <img src=""images/schematic_sequence/restaurant_scheme/restaurant_scheme_ten.png"" class=""exp-image"">
                    <div class=""question-area"">
                        <p style=""font-size: 20px; font-weight: bold; margin: 0;"">Is there a person in this image?</p>
                    </div>
                </div>","0","main_experiment_trial","ten","restaurant_scheme","schematic_sequence","","","","",""
"","","","","","html-keyboard-response","121","538326","0.0-121.0","D97A7942B97D44C2892DF438DB3BD5D3","019cf704-1fa1-7142-95ea-ac266132fb08","019cf6fe-235e-7d95-bb9b-b011d2fe188e","","null","<div style=""background-color: white; width: 100vw; height: 100vh;""></div>","null","","","","","","","","",""
"","","","","","html-keyboard-response","122","543333","0.0-122.0","D97A7942B97D44C2892DF438DB3BD5D3","019cf704-1fa1-7142-95ea-ac266132fb08","019cf6fe-235e-7d95-bb9b-b011d2fe188e","","null","
                <div class=""stimulus-container"">
                    <img src=""images/causal_sequence/saving_a_cat_causal/saving_a_cat_causal_1.png"" class=""exp-image"">
                    <div class=""question-area""></div> 
                </div>","null","","","","","","","","",""
"","","","","","html-button-response","123","544040","0.0-123.0","D97A7942B97D44C2892DF438DB3BD5D3","019cf704-1fa1-7142-95ea-ac266132fb08","019cf6fe-235e-7d95-bb9b-b011d2fe188e","","705","
                <div class=""stimulus-container"">
                    <img src=""images/causal_sequence/saving_a_cat_causal/saving_a_cat_causal_1.png"" class=""exp-image"">
                    <div class=""question-area"">
                        <p style=""font-size: 20px; font-weight: bold; margin: 0;"">Is there a person in this image?</p>
                    </div>
                </div>","0","main_experiment_trial","1","saving_a_cat_causal","causal_sequence","","","","",""
"","","","","","html-keyboard-response","124","549041","0.0-124.0","D97A7942B97D44C2892DF438DB3BD5D3","019cf704-1fa1-7142-95ea-ac266132fb08","019cf6fe-235e-7d95-bb9b-b011d2fe188e","","null","
                <div class=""stimulus-container"">
                    <img src=""images/causal_sequence/saving_a_cat_causal/saving_a_cat_causal_2.png"" class=""exp-image"">
                    <div class=""question-area""></div> 
                </div>","null","","","","","","","","",""
"","","","","","html-button-response","125","550204","0.0-125.0","D97A7942B97D44C2892DF438DB3BD5D3","019cf704-1fa1-7142-95ea-ac266132fb08","019cf6fe-235e-7d95-bb9b-b011d2fe188e","","1161","
                <div class=""stimulus-container"">
                    <img src=""images/causal_sequence/saving_a_cat_causal/saving_a_cat_causal_2.png"" class=""exp-image"">
                    <div class=""question-area"">
                        <p style=""font-size: 20px; font-weight: bold; margin: 0;"">Is there a person in this image?</p>
                    </div>
                </div>","1","main_experiment_trial","2","saving_a_cat_causal","causal_sequence","","","","",""
"","","","","","html-keyboard-response","126","555207","0.0-126.0","D97A7942B97D44C2892DF438DB3BD5D3","019cf704-1fa1-7142-95ea-ac266132fb08","019cf6fe-235e-7d95-bb9b-b011d2fe188e","","null","
                <div class=""stimulus-container"">
                    <img src=""images/causal_sequence/saving_a_cat_causal/saving_a_cat_causal_3.png"" class=""exp-image"">
                    <div class=""question-area""></div> 
                </div>","null","","","","","","","","",""
"","","","","","html-button-response","127","555727","0.0-127.0","D97A7942B97D44C2892DF438DB3BD5D3","019cf704-1fa1-7142-95ea-ac266132fb08","019cf6fe-235e-7d95-bb9b-b011d2fe188e","","518","
                <div class=""stimulus-container"">
                    <img src=""images/causal_sequence/saving_a_cat_causal/saving_a_cat_causal_3.png"" class=""exp-image"">
                    <div class=""question-area"">
                        <p style=""font-size: 20px; font-weight: bold; margin: 0;"">Is there a person in this image?</p>
                    </div>
                </div>","1","main_experiment_trial","3","saving_a_cat_causal","causal_sequence","","","","",""
"","","","","","html-keyboard-response","128","560732","0.0-128.0","D97A7942B97D44C2892DF438DB3BD5D3","019cf704-1fa1-7142-95ea-ac266132fb08","019cf6fe-235e-7d95-bb9b-b011d2fe188e","","null","
                <div class=""stimulus-container"">
                    <img src=""images/causal_sequence/saving_a_cat_causal/saving_a_cat_causal_4.png"" class=""exp-image"">
                    <div class=""question-area""></div> 
                </div>","null","","","","","","","","",""
"","","","","","html-button-response","129","562970","0.0-129.0","D97A7942B97D44C2892DF438DB3BD5D3","019cf704-1fa1-7142-95ea-ac266132fb08","019cf6fe-235e-7d95-bb9b-b011d2fe188e","","2237","
                <div class=""stimulus-container"">
                    <img src=""images/causal_sequence/saving_a_cat_causal/saving_a_cat_causal_4.png"" class=""exp-image"">
                    <div class=""question-area"">
                        <p style=""font-size: 20px; font-weight: bold; margin: 0;"">Is there a person in this image?</p>
                    </div>
                </div>","0","main_experiment_trial","4","saving_a_cat_causal","causal_sequence","","","","",""
"","","","","","html-keyboard-response","130","567985","0.0-130.0","D97A7942B97D44C2892DF438DB3BD5D3","019cf704-1fa1-7142-95ea-ac266132fb08","019cf6fe-235e-7d95-bb9b-b011d2fe188e","","null","
                <div class=""stimulus-container"">
                    <img src=""images/causal_sequence/saving_a_cat_causal/saving_a_cat_causal_5.png"" class=""exp-image"">
                    <div class=""question-area""></div> 
                </div>","null","","","","","","","","",""
"","","","","","html-button-response","131","569665","0.0-131.0","D97A7942B97D44C2892DF438DB3BD5D3","019cf704-1fa1-7142-95ea-ac266132fb08","019cf6fe-235e-7d95-bb9b-b011d2fe188e","","1679","
                <div class=""stimulus-container"">
                    <img src=""images/causal_sequence/saving_a_cat_causal/saving_a_cat_causal_5.png"" class=""exp-image"">
                    <div class=""question-area"">
                        <p style=""font-size: 20px; font-weight: bold; margin: 0;"">Is there a person in this image?</p>
                    </div>
                </div>","0","main_experiment_trial","5","saving_a_cat_causal","causal_sequence","","","","",""
"","","","","","html-keyboard-response","132","574673","0.0-132.0","D97A7942B97D44C2892DF438DB3BD5D3","019cf704-1fa1-7142-95ea-ac266132fb08","019cf6fe-235e-7d95-bb9b-b011d2fe188e","","null","
                <div class=""stimulus-container"">
                    <img src=""images/causal_sequence/saving_a_cat_causal/saving_a_cat_causal_6.png"" class=""exp-image"">
                    <div class=""question-area""></div> 
                </div>","null","","","","","","","","",""
"","","","","","html-button-response","133","576502","0.0-133.0","D97A7942B97D44C2892DF438DB3BD5D3","019cf704-1fa1-7142-95ea-ac266132fb08","019cf6fe-235e-7d95-bb9b-b011d2fe188e","","1826","
                <div class=""stimulus-container"">
                    <img src=""images/causal_sequence/saving_a_cat_causal/saving_a_cat_causal_6.png"" class=""exp-image"">
                    <div class=""question-area"">
                        <p style=""font-size: 20px; font-weight: bold; margin: 0;"">Is there a person in this image?</p>
                    </div>
                </div>","0","main_experiment_trial","6","saving_a_cat_causal","causal_sequence","","","","",""
"","","","","","html-keyboard-response","134","581507","0.0-134.0","D97A7942B97D44C2892DF438DB3BD5D3","019cf704-1fa1-7142-95ea-ac266132fb08","019cf6fe-235e-7d95-bb9b-b011d2fe188e","","null","
                <div class=""stimulus-container"">
                    <img src=""images/causal_sequence/saving_a_cat_causal/saving_a_cat_causal_7.png"" class=""exp-image"">
                    <div class=""question-area""></div> 
                </div>","null","","","","","","","","",""
"","","","","","html-button-response","135","584015","0.0-135.0","D97A7942B97D44C2892DF438DB3BD5D3","019cf704-1fa1-7142-95ea-ac266132fb08","019cf6fe-235e-7d95-bb9b-b011d2fe188e","","2506","
                <div class=""stimulus-container"">
                    <img src=""images/causal_sequence/saving_a_cat_causal/saving_a_cat_causal_7.png"" class=""exp-image"">
                    <div class=""question-area"">
                        <p style=""font-size: 20px; font-weight: bold; margin: 0;"">Is there a person in this image?</p>
                    </div>
                </div>","0","main_experiment_trial","7","saving_a_cat_causal","causal_sequence","","","","",""
"","","","","","html-keyboard-response","136","589023","0.0-136.0","D97A7942B97D44C2892DF438DB3BD5D3","019cf704-1fa1-7142-95ea-ac266132fb08","019cf6fe-235e-7d95-bb9b-b011d2fe188e","","null","
                <div class=""stimulus-container"">
                    <img src=""images/causal_sequence/saving_a_cat_causal/saving_a_cat_causal_8.png"" class=""exp-image"">
                    <div class=""question-area""></div> 
                </div>","null","","","","","","","","",""
"","","","","","html-button-response","137","590039","0.0-137.0","D97A7942B97D44C2892DF438DB3BD5D3","019cf704-1fa1-7142-95ea-ac266132fb08","019cf6fe-235e-7d95-bb9b-b011d2fe188e","","1014","
                <div class=""stimulus-container"">
                    <img src=""images/causal_sequence/saving_a_cat_causal/saving_a_cat_causal_8.png"" class=""exp-image"">
                    <div class=""question-area"">
                        <p style=""font-size: 20px; font-weight: bold; margin: 0;"">Is there a person in this image?</p>
                    </div>
                </div>","0","main_experiment_trial","8","saving_a_cat_causal","causal_sequence","","","","",""
"","","","","","html-keyboard-response","138","595049","0.0-138.0","D97A7942B97D44C2892DF438DB3BD5D3","019cf704-1fa1-7142-95ea-ac266132fb08","019cf6fe-235e-7d95-bb9b-b011d2fe188e","","null","
                <div class=""stimulus-container"">
                    <img src=""images/causal_sequence/saving_a_cat_causal/saving_a_cat_causal_9.png"" class=""exp-image"">
                    <div class=""question-area""></div> 
                </div>","null","","","","","","","","",""
"","","","","","html-button-response","139","595716","0.0-139.0","D97A7942B97D44C2892DF438DB3BD5D3","019cf704-1fa1-7142-95ea-ac266132fb08","019cf6fe-235e-7d95-bb9b-b011d2fe188e","","665","
                <div class=""stimulus-container"">
                    <img src=""images/causal_sequence/saving_a_cat_causal/saving_a_cat_causal_9.png"" class=""exp-image"">
                    <div class=""question-area"">
                        <p style=""font-size: 20px; font-weight: bold; margin: 0;"">Is there a person in this image?</p>
                    </div>
                </div>","0","main_experiment_trial","9","saving_a_cat_causal","causal_sequence","","","","",""
"","","","","","html-keyboard-response","140","600731","0.0-140.0","D97A7942B97D44C2892DF438DB3BD5D3","019cf704-1fa1-7142-95ea-ac266132fb08","019cf6fe-235e-7d95-bb9b-b011d2fe188e","","null","
                <div class=""stimulus-container"">
                    <img src=""images/causal_sequence/saving_a_cat_causal/saving_a_cat_causal_ten.png"" class=""exp-image"">
                    <div class=""question-area""></div> 
                </div>","null","","","","","","","","",""
"","","","","","html-button-response","141","601780","0.0-141.0","D97A7942B97D44C2892DF438DB3BD5D3","019cf704-1fa1-7142-95ea-ac266132fb08","019cf6fe-235e-7d95-bb9b-b011d2fe188e","","1048","
                <div class=""stimulus-container"">
                    <img src=""images/causal_sequence/saving_a_cat_causal/saving_a_cat_causal_ten.png"" class=""exp-image"">
                    <div class=""question-area"">
                        <p style=""font-size: 20px; font-weight: bold; margin: 0;"">Is there a person in this image?</p>
                    </div>
                </div>","0","main_experiment_trial","ten","saving_a_cat_causal","causal_sequence","","","","",""
"","","","","","html-keyboard-response","142","602796","0.0-142.0","D97A7942B97D44C2892DF438DB3BD5D3","019cf704-1fa1-7142-95ea-ac266132fb08","019cf6fe-235e-7d95-bb9b-b011d2fe188e","","null","<div style=""background-color: white; width: 100vw; height: 100vh;""></div>","null","","","","","","","","",""
"","","","","","html-keyboard-response","143","607811","0.0-143.0","D97A7942B97D44C2892DF438DB3BD5D3","019cf704-1fa1-7142-95ea-ac266132fb08","019cf6fe-235e-7d95-bb9b-b011d2fe188e","","null","
                <div class=""stimulus-container"">
                    <img src=""images/causal_sequence/package_causal/package_causal_1.png"" class=""exp-image"">
                    <div class=""question-area""></div> 
                </div>","null","","","","","","","","",""
"","","","","","html-button-response","144","608645","0.0-144.0","D97A7942B97D44C2892DF438DB3BD5D3","019cf704-1fa1-7142-95ea-ac266132fb08","019cf6fe-235e-7d95-bb9b-b011d2fe188e","","833","
                <div class=""stimulus-container"">
                    <img src=""images/causal_sequence/package_causal/package_causal_1.png"" class=""exp-image"">
                    <div class=""question-area"">
                        <p style=""font-size: 20px; font-weight: bold; margin: 0;"">Is there a person in this image?</p>
                    </div>
                </div>","0","main_experiment_trial","1","package_causal","causal_sequence","","","","",""
"","","","","","html-keyboard-response","145","613652","0.0-145.0","D97A7942B97D44C2892DF438DB3BD5D3","019cf704-1fa1-7142-95ea-ac266132fb08","019cf6fe-235e-7d95-bb9b-b011d2fe188e","","null","
                <div class=""stimulus-container"">
                    <img src=""images/causal_sequence/package_causal/package_causal_2.png"" class=""exp-image"">
                    <div class=""question-area""></div> 
                </div>","null","","","","","","","","",""
"","","","","","html-button-response","146","614887","0.0-146.0","D97A7942B97D44C2892DF438DB3BD5D3","019cf704-1fa1-7142-95ea-ac266132fb08","019cf6fe-235e-7d95-bb9b-b011d2fe188e","","1233","
                <div class=""stimulus-container"">
                    <img src=""images/causal_sequence/package_causal/package_causal_2.png"" class=""exp-image"">
                    <div class=""question-area"">
                        <p style=""font-size: 20px; font-weight: bold; margin: 0;"">Is there a person in this image?</p>
                    </div>
                </div>","0","main_experiment_trial","2","package_causal","causal_sequence","","","","",""
"","","","","","html-keyboard-response","147","619892","0.0-147.0","D97A7942B97D44C2892DF438DB3BD5D3","019cf704-1fa1-7142-95ea-ac266132fb08","019cf6fe-235e-7d95-bb9b-b011d2fe188e","","null","
                <div class=""stimulus-container"">
                    <img src=""images/causal_sequence/package_causal/package_causal_3.png"" class=""exp-image"">
                    <div class=""question-area""></div> 
                </div>","null","","","","","","","","",""
"","","","","","html-button-response","148","621094","0.0-148.0","D97A7942B97D44C2892DF438DB3BD5D3","019cf704-1fa1-7142-95ea-ac266132fb08","019cf6fe-235e-7d95-bb9b-b011d2fe188e","","1201","
                <div class=""stimulus-container"">
                    <img src=""images/causal_sequence/package_causal/package_causal_3.png"" class=""exp-image"">
                    <div class=""question-area"">
                        <p style=""font-size: 20px; font-weight: bold; margin: 0;"">Is there a person in this image?</p>
                    </div>
                </div>","0","main_experiment_trial","3","package_causal","causal_sequence","","","","",""
"","","","","","html-keyboard-response","149","626110","0.0-149.0","D97A7942B97D44C2892DF438DB3BD5D3","019cf704-1fa1-7142-95ea-ac266132fb08","019cf6fe-235e-7d95-bb9b-b011d2fe188e","","null","
                <div class=""stimulus-container"">
                    <img src=""images/causal_sequence/package_causal/package_causal_4.png"" class=""exp-image"">
                    <div class=""question-area""></div> 
                </div>","null","","","","","","","","",""
"","","","","","html-button-response","150","627181","0.0-150.0","D97A7942B97D44C2892DF438DB3BD5D3","019cf704-1fa1-7142-95ea-ac266132fb08","019cf6fe-235e-7d95-bb9b-b011d2fe188e","","1069","
                <div class=""stimulus-container"">
                    <img src=""images/causal_sequence/package_causal/package_causal_4.png"" class=""exp-image"">
                    <div class=""question-area"">
                        <p style=""font-size: 20px; font-weight: bold; margin: 0;"">Is there a person in this image?</p>
                    </div>
                </div>","1","main_experiment_trial","4","package_causal","causal_sequence","","","","",""
"","","","","","html-keyboard-response","151","632186","0.0-151.0","D97A7942B97D44C2892DF438DB3BD5D3","019cf704-1fa1-7142-95ea-ac266132fb08","019cf6fe-235e-7d95-bb9b-b011d2fe188e","","null","
                <div class=""stimulus-container"">
                    <img src=""images/causal_sequence/package_causal/package_causal_5.png"" class=""exp-image"">
                    <div class=""question-area""></div> 
                </div>","null","","","","","","","","",""
"","","","","","html-button-response","152","633035","0.0-152.0","D97A7942B97D44C2892DF438DB3BD5D3","019cf704-1fa1-7142-95ea-ac266132fb08","019cf6fe-235e-7d95-bb9b-b011d2fe188e","","848","
                <div class=""stimulus-container"">
                    <img src=""images/causal_sequence/package_causal/package_causal_5.png"" class=""exp-image"">
                    <div class=""question-area"">
                        <p style=""font-size: 20px; font-weight: bold; margin: 0;"">Is there a person in this image?</p>
                    </div>
                </div>","0","main_experiment_trial","5","package_causal","causal_sequence","","","","",""
"","","","","","html-keyboard-response","153","638052","0.0-153.0","D97A7942B97D44C2892DF438DB3BD5D3","019cf704-1fa1-7142-95ea-ac266132fb08","019cf6fe-235e-7d95-bb9b-b011d2fe188e","","null","
                <div class=""stimulus-container"">
                    <img src=""images/causal_sequence/package_causal/package_causal_6.png"" class=""exp-image"">
                    <div class=""question-area""></div> 
                </div>","null","","","","","","","","",""
"","","","","","html-button-response","154","639260","0.0-154.0","D97A7942B97D44C2892DF438DB3BD5D3","019cf704-1fa1-7142-95ea-ac266132fb08","019cf6fe-235e-7d95-bb9b-b011d2fe188e","","1207","
                <div class=""stimulus-container"">
                    <img src=""images/causal_sequence/package_causal/package_causal_6.png"" class=""exp-image"">
                    <div class=""question-area"">
                        <p style=""font-size: 20px; font-weight: bold; margin: 0;"">Is there a person in this image?</p>
                    </div>
                </div>","0","main_experiment_trial","6","package_causal","causal_sequence","","","","",""
"","","","","","html-keyboard-response","155","644272","0.0-155.0","D97A7942B97D44C2892DF438DB3BD5D3","019cf704-1fa1-7142-95ea-ac266132fb08","019cf6fe-235e-7d95-bb9b-b011d2fe188e","","null","
                <div class=""stimulus-container"">
                    <img src=""images/causal_sequence/package_causal/package_causal_7.png"" class=""exp-image"">
                    <div class=""question-area""></div> 
                </div>","null","","","","","","","","",""
"","","","","","html-button-response","156","646717","0.0-156.0","D97A7942B97D44C2892DF438DB3BD5D3","019cf704-1fa1-7142-95ea-ac266132fb08","019cf6fe-235e-7d95-bb9b-b011d2fe188e","","2444","
                <div class=""stimulus-container"">
                    <img src=""images/causal_sequence/package_causal/package_causal_7.png"" class=""exp-image"">
                    <div class=""question-area"">
                        <p style=""font-size: 20px; font-weight: bold; margin: 0;"">Is there a person in this image?</p>
                    </div>
                </div>","0","main_experiment_trial","7","package_causal","causal_sequence","","","","",""
"","","","","","html-keyboard-response","157","651727","0.0-157.0","D97A7942B97D44C2892DF438DB3BD5D3","019cf704-1fa1-7142-95ea-ac266132fb08","019cf6fe-235e-7d95-bb9b-b011d2fe188e","","null","
                <div class=""stimulus-container"">
                    <img src=""images/causal_sequence/package_causal/package_causal_8.png"" class=""exp-image"">
                    <div class=""question-area""></div> 
                </div>","null","","","","","","","","",""
"","","","","","html-button-response","158","653283","0.0-158.0","D97A7942B97D44C2892DF438DB3BD5D3","019cf704-1fa1-7142-95ea-ac266132fb08","019cf6fe-235e-7d95-bb9b-b011d2fe188e","","1554","
                <div class=""stimulus-container"">
                    <img src=""images/causal_sequence/package_causal/package_causal_8.png"" class=""exp-image"">
                    <div class=""question-area"">
                        <p style=""font-size: 20px; font-weight: bold; margin: 0;"">Is there a person in this image?</p>
                    </div>
                </div>","0","main_experiment_trial","8","package_causal","causal_sequence","","","","",""
"","","","","","html-keyboard-response","159","658291","0.0-159.0","D97A7942B97D44C2892DF438DB3BD5D3","019cf704-1fa1-7142-95ea-ac266132fb08","019cf6fe-235e-7d95-bb9b-b011d2fe188e","","null","
                <div class=""stimulus-container"">
                    <img src=""images/causal_sequence/package_causal/package_causal_9.png"" class=""exp-image"">
                    <div class=""question-area""></div> 
                </div>","null","","","","","","","","",""
"","","","","","html-button-response","160","658967","0.0-160.0","D97A7942B97D44C2892DF438DB3BD5D3","019cf704-1fa1-7142-95ea-ac266132fb08","019cf6fe-235e-7d95-bb9b-b011d2fe188e","","674","
                <div class=""stimulus-container"">
                    <img src=""images/causal_sequence/package_causal/package_causal_9.png"" class=""exp-image"">
                    <div class=""question-area"">
                        <p style=""font-size: 20px; font-weight: bold; margin: 0;"">Is there a person in this image?</p>
                    </div>
                </div>","0","main_experiment_trial","9","package_causal","causal_sequence","","","","",""
"","","","","","html-keyboard-response","161","663977","0.0-161.0","D97A7942B97D44C2892DF438DB3BD5D3","019cf704-1fa1-7142-95ea-ac266132fb08","019cf6fe-235e-7d95-bb9b-b011d2fe188e","","null","
                <div class=""stimulus-container"">
                    <img src=""images/causal_sequence/package_causal/package_causal_ten.png"" class=""exp-image"">
                    <div class=""question-area""></div> 
                </div>","null","","","","","","","","",""
"","","","","","html-button-response","162","666132","0.0-162.0","D97A7942B97D44C2892DF438DB3BD5D3","019cf704-1fa1-7142-95ea-ac266132fb08","019cf6fe-235e-7d95-bb9b-b011d2fe188e","","2153","
                <div class=""stimulus-container"">
                    <img src=""images/causal_sequence/package_causal/package_causal_ten.png"" class=""exp-image"">
                    <div class=""question-area"">
                        <p style=""font-size: 20px; font-weight: bold; margin: 0;"">Is there a person in this image?</p>
                    </div>
                </div>","0","main_experiment_trial","ten","package_causal","causal_sequence","","","","",""
"","","","","","html-keyboard-response","163","667139","0.0-163.0","D97A7942B97D44C2892DF438DB3BD5D3","019cf704-1fa1-7142-95ea-ac266132fb08","019cf6fe-235e-7d95-bb9b-b011d2fe188e","","null","<div style=""background-color: white; width: 100vw; height: 100vh;""></div>","null","","","","","","","","",""
"","","","","","html-keyboard-response","164","672156","0.0-164.0","D97A7942B97D44C2892DF438DB3BD5D3","019cf704-1fa1-7142-95ea-ac266132fb08","019cf6fe-235e-7d95-bb9b-b011d2fe188e","","null","
                <div class=""stimulus-container"">
                    <img src=""images/causal_sequence/dog_causal/dog_causal_1.png"" class=""exp-image"">
                    <div class=""question-area""></div> 
                </div>","null","","","","","","","","",""
"","","","","","html-button-response","165","672797","0.0-165.0","D97A7942B97D44C2892DF438DB3BD5D3","019cf704-1fa1-7142-95ea-ac266132fb08","019cf6fe-235e-7d95-bb9b-b011d2fe188e","","639","
                <div class=""stimulus-container"">
                    <img src=""images/causal_sequence/dog_causal/dog_causal_1.png"" class=""exp-image"">
                    <div class=""question-area"">
                        <p style=""font-size: 20px; font-weight: bold; margin: 0;"">Is there a person in this image?</p>
                    </div>
                </div>","0","main_experiment_trial","1","dog_causal","causal_sequence","","","","",""
"","","","","","html-keyboard-response","166","677802","0.0-166.0","D97A7942B97D44C2892DF438DB3BD5D3","019cf704-1fa1-7142-95ea-ac266132fb08","019cf6fe-235e-7d95-bb9b-b011d2fe188e","","null","
                <div class=""stimulus-container"">
                    <img src=""images/causal_sequence/dog_causal/dog_causal_2.png"" class=""exp-image"">
                    <div class=""question-area""></div> 
                </div>","null","","","","","","","","",""
"","","","","","html-button-response","167","678354","0.0-167.0","D97A7942B97D44C2892DF438DB3BD5D3","019cf704-1fa1-7142-95ea-ac266132fb08","019cf6fe-235e-7d95-bb9b-b011d2fe188e","","549","
                <div class=""stimulus-container"">
                    <img src=""images/causal_sequence/dog_causal/dog_causal_2.png"" class=""exp-image"">
                    <div class=""question-area"">
                        <p style=""font-size: 20px; font-weight: bold; margin: 0;"">Is there a person in this image?</p>
                    </div>
                </div>","0","main_experiment_trial","2","dog_causal","causal_sequence","","","","",""
"","","","","","html-keyboard-response","168","683364","0.0-168.0","D97A7942B97D44C2892DF438DB3BD5D3","019cf704-1fa1-7142-95ea-ac266132fb08","019cf6fe-235e-7d95-bb9b-b011d2fe188e","","null","
                <div class=""stimulus-container"">
                    <img src=""images/causal_sequence/dog_causal/dog_causal_3.png"" class=""exp-image"">
                    <div class=""question-area""></div> 
                </div>","null","","","","","","","","",""
"","","","","","html-button-response","169","683915","0.0-169.0","D97A7942B97D44C2892DF438DB3BD5D3","019cf704-1fa1-7142-95ea-ac266132fb08","019cf6fe-235e-7d95-bb9b-b011d2fe188e","","549","
                <div class=""stimulus-container"">
                    <img src=""images/causal_sequence/dog_causal/dog_causal_3.png"" class=""exp-image"">
                    <div class=""question-area"">
                        <p style=""font-size: 20px; font-weight: bold; margin: 0;"">Is there a person in this image?</p>
                    </div>
                </div>","0","main_experiment_trial","3","dog_causal","causal_sequence","","","","",""
"","","","","","html-keyboard-response","170","688930","0.0-170.0","D97A7942B97D44C2892DF438DB3BD5D3","019cf704-1fa1-7142-95ea-ac266132fb08","019cf6fe-235e-7d95-bb9b-b011d2fe188e","","null","
                <div class=""stimulus-container"">
                    <img src=""images/causal_sequence/dog_causal/dog_causal_4.png"" class=""exp-image"">
                    <div class=""question-area""></div> 
                </div>","null","","","","","","","","",""
"","","","","","html-button-response","171","690502","0.0-171.0","D97A7942B97D44C2892DF438DB3BD5D3","019cf704-1fa1-7142-95ea-ac266132fb08","019cf6fe-235e-7d95-bb9b-b011d2fe188e","","1570","
                <div class=""stimulus-container"">
                    <img src=""images/causal_sequence/dog_causal/dog_causal_4.png"" class=""exp-image"">
                    <div class=""question-area"">
                        <p style=""font-size: 20px; font-weight: bold; margin: 0;"">Is there a person in this image?</p>
                    </div>
                </div>","0","main_experiment_trial","4","dog_causal","causal_sequence","","","","",""
"","","","","","html-keyboard-response","172","695503","0.0-172.0","D97A7942B97D44C2892DF438DB3BD5D3","019cf704-1fa1-7142-95ea-ac266132fb08","019cf6fe-235e-7d95-bb9b-b011d2fe188e","","null","
                <div class=""stimulus-container"">
                    <img src=""images/causal_sequence/dog_causal/dog_causal_5.png"" class=""exp-image"">
                    <div class=""question-area""></div> 
                </div>","null","","","","","","","","",""
"","","","","","html-button-response","173","697037","0.0-173.0","D97A7942B97D44C2892DF438DB3BD5D3","019cf704-1fa1-7142-95ea-ac266132fb08","019cf6fe-235e-7d95-bb9b-b011d2fe188e","","1532","
                <div class=""stimulus-container"">
                    <img src=""images/causal_sequence/dog_causal/dog_causal_5.png"" class=""exp-image"">
                    <div class=""question-area"">
                        <p style=""font-size: 20px; font-weight: bold; margin: 0;"">Is there a person in this image?</p>
                    </div>
                </div>","0","main_experiment_trial","5","dog_causal","causal_sequence","","","","",""
"","","","","","html-keyboard-response","174","702052","0.0-174.0","D97A7942B97D44C2892DF438DB3BD5D3","019cf704-1fa1-7142-95ea-ac266132fb08","019cf6fe-235e-7d95-bb9b-b011d2fe188e","","null","
                <div class=""stimulus-container"">
                    <img src=""images/causal_sequence/dog_causal/dog_causal_6.png"" class=""exp-image"">
                    <div class=""question-area""></div> 
                </div>","null","","","","","","","","",""
"","","","","","html-button-response","175","704856","0.0-175.0","D97A7942B97D44C2892DF438DB3BD5D3","019cf704-1fa1-7142-95ea-ac266132fb08","019cf6fe-235e-7d95-bb9b-b011d2fe188e","","2802","
                <div class=""stimulus-container"">
                    <img src=""images/causal_sequence/dog_causal/dog_causal_6.png"" class=""exp-image"">
                    <div class=""question-area"">
                        <p style=""font-size: 20px; font-weight: bold; margin: 0;"">Is there a person in this image?</p>
                    </div>
                </div>","0","main_experiment_trial","6","dog_causal","causal_sequence","","","","",""
"","","","","","html-keyboard-response","176","709871","0.0-176.0","D97A7942B97D44C2892DF438DB3BD5D3","019cf704-1fa1-7142-95ea-ac266132fb08","019cf6fe-235e-7d95-bb9b-b011d2fe188e","","null","
                <div class=""stimulus-container"">
                    <img src=""images/causal_sequence/dog_causal/dog_causal_7.png"" class=""exp-image"">
                    <div class=""question-area""></div> 
                </div>","null","","","","","","","","",""
"","","","","","html-button-response","177","712878","0.0-177.0","D97A7942B97D44C2892DF438DB3BD5D3","019cf704-1fa1-7142-95ea-ac266132fb08","019cf6fe-235e-7d95-bb9b-b011d2fe188e","","null","
                <div class=""stimulus-container"">
                    <img src=""images/causal_sequence/dog_causal/dog_causal_7.png"" class=""exp-image"">
                    <div class=""question-area"">
                        <p style=""font-size: 20px; font-weight: bold; margin: 0;"">Is there a person in this image?</p>
                    </div>
                </div>","null","main_experiment_trial","7","dog_causal","causal_sequence","","","","",""
"","","","","","html-keyboard-response","178","717894","0.0-178.0","D97A7942B97D44C2892DF438DB3BD5D3","019cf704-1fa1-7142-95ea-ac266132fb08","019cf6fe-235e-7d95-bb9b-b011d2fe188e","","null","
                <div class=""stimulus-container"">
                    <img src=""images/causal_sequence/dog_causal/dog_causal_8.png"" class=""exp-image"">
                    <div class=""question-area""></div> 
                </div>","null","","","","","","","","",""
"","","","","","html-button-response","179","720905","0.0-179.0","D97A7942B97D44C2892DF438DB3BD5D3","019cf704-1fa1-7142-95ea-ac266132fb08","019cf6fe-235e-7d95-bb9b-b011d2fe188e","","null","
                <div class=""stimulus-container"">
                    <img src=""images/causal_sequence/dog_causal/dog_causal_8.png"" class=""exp-image"">
                    <div class=""question-area"">
                        <p style=""font-size: 20px; font-weight: bold; margin: 0;"">Is there a person in this image?</p>
                    </div>
                </div>","null","main_experiment_trial","8","dog_causal","causal_sequence","","","","",""
"","","","","","html-keyboard-response","180","725909","0.0-180.0","D97A7942B97D44C2892DF438DB3BD5D3","019cf704-1fa1-7142-95ea-ac266132fb08","019cf6fe-235e-7d95-bb9b-b011d2fe188e","","null","
                <div class=""stimulus-container"">
                    <img src=""images/causal_sequence/dog_causal/dog_causal_9.png"" class=""exp-image"">
                    <div class=""question-area""></div> 
                </div>","null","","","","","","","","",""
"","","","","","html-button-response","181","727010","0.0-181.0","D97A7942B97D44C2892DF438DB3BD5D3","019cf704-1fa1-7142-95ea-ac266132fb08","019cf6fe-235e-7d95-bb9b-b011d2fe188e","","1099","
                <div class=""stimulus-container"">
                    <img src=""images/causal_sequence/dog_causal/dog_causal_9.png"" class=""exp-image"">
                    <div class=""question-area"">
                        <p style=""font-size: 20px; font-weight: bold; margin: 0;"">Is there a person in this image?</p>
                    </div>
                </div>","0","main_experiment_trial","9","dog_causal","causal_sequence","","","","",""
"","","","","","html-keyboard-response","182","732012","0.0-182.0","D97A7942B97D44C2892DF438DB3BD5D3","019cf704-1fa1-7142-95ea-ac266132fb08","019cf6fe-235e-7d95-bb9b-b011d2fe188e","","null","
                <div class=""stimulus-container"">
                    <img src=""images/causal_sequence/dog_causal/dog_causal_ten.png"" class=""exp-image"">
                    <div class=""question-area""></div> 
                </div>","null","","","","","","","","",""
"","","","","","html-button-response","183","732959","0.0-183.0","D97A7942B97D44C2892DF438DB3BD5D3","019cf704-1fa1-7142-95ea-ac266132fb08","019cf6fe-235e-7d95-bb9b-b011d2fe188e","","946","
                <div class=""stimulus-container"">
