"success","timeout","failed_images","failed_audio","failed_video","trial_type","trial_index","time_elapsed","internal_node_id","subject_id","study_id","session_id","view_history","rt","stimulus","response","task","image_index","folder","sequence_type","presentation_order","valuable_image_index","reward_type","distance_from_x","target_X","chosen_image_index","is_x_plus_dist","correct_choice"
"true","false","[]","[]","[]","preload","0","5700","0.0-0.0","B5D29EBAE5AE4BD2BDF49E859966C88D","019cfa5a-7ad4-7710-bd81-0314559cd7fa","019cfa3a-388e-72ab-ad58-bdeb258f96cd","","","","","","","","","","","","","","","",""
"","","","","","instructions","1","8215","0.0-1.0","B5D29EBAE5AE4BD2BDF49E859966C88D","019cfa5a-7ad4-7710-bd81-0314559cd7fa","019cfa3a-388e-72ab-ad58-bdeb258f96cd","[{""page_index"":0,""viewing_time"":2514}]","2514","","","","","","","","","","","","","",""
"","","","","","instructions","2","11276","0.0-2.0","B5D29EBAE5AE4BD2BDF49E859966C88D","019cfa5a-7ad4-7710-bd81-0314559cd7fa","019cfa3a-388e-72ab-ad58-bdeb258f96cd","[{""page_index"":0,""viewing_time"":3061}]","3061","","","","","","","","","","","","","",""
"true","","","","","fullscreen","3","13303","0.0-3.0","B5D29EBAE5AE4BD2BDF49E859966C88D","019cfa5a-7ad4-7710-bd81-0314559cd7fa","019cfa3a-388e-72ab-ad58-bdeb258f96cd","","1024","","","","","","","","","","","","","",""
"","","","","","instructions","4","24556","0.0-4.0","B5D29EBAE5AE4BD2BDF49E859966C88D","019cfa5a-7ad4-7710-bd81-0314559cd7fa","019cfa3a-388e-72ab-ad58-bdeb258f96cd","[{""page_index"":0,""viewing_time"":11253}]","11253","","","","","","","","","","","","","",""
"","","","","","instructions","5","31422","0.0-5.0","B5D29EBAE5AE4BD2BDF49E859966C88D","019cfa5a-7ad4-7710-bd81-0314559cd7fa","019cfa3a-388e-72ab-ad58-bdeb258f96cd","[{""page_index"":0,""viewing_time"":6865}]","6866","","","","","","","","","","","","","",""
"","","","","","html-keyboard-response","6","35437","0.0-6.0","B5D29EBAE5AE4BD2BDF49E859966C88D","019cfa5a-7ad4-7710-bd81-0314559cd7fa","019cfa3a-388e-72ab-ad58-bdeb258f96cd","","null","
                <div class=""stimulus-container"">
                    <img src=""images/instructions/movie_1.png"" class=""exp-image"">
                    <div class=""question-area""></div> 
                </div>","null","","","","","","","","","","","",""
"","","","","","html-button-response","7","38154","0.0-7.0","B5D29EBAE5AE4BD2BDF49E859966C88D","019cfa5a-7ad4-7710-bd81-0314559cd7fa","019cfa3a-388e-72ab-ad58-bdeb258f96cd","","2716","
                <div class=""stimulus-container"">
                    <img src=""images/instructions/movie_1.png"" class=""exp-image"">
                    <div class=""question-area"">
                        <p style=""font-size: 20px; font-weight: bold; margin: 0;"">Was there a person in this image?</p>
                    </div>
                </div>","0","example_question","1","","","","","","","","","",""
"","","","","","html-keyboard-response","8","42162","0.0-8.0","B5D29EBAE5AE4BD2BDF49E859966C88D","019cfa5a-7ad4-7710-bd81-0314559cd7fa","019cfa3a-388e-72ab-ad58-bdeb258f96cd","","null","
                <div class=""stimulus-container"">
                    <img src=""images/instructions/movie_2.png"" class=""exp-image"">
                    <div class=""question-area""></div> 
                </div>","null","","","","","","","","","","","",""
"","","","","","html-button-response","9","42972","0.0-9.0","B5D29EBAE5AE4BD2BDF49E859966C88D","019cfa5a-7ad4-7710-bd81-0314559cd7fa","019cfa3a-388e-72ab-ad58-bdeb258f96cd","","809","
                <div class=""stimulus-container"">
                    <img src=""images/instructions/movie_2.png"" class=""exp-image"">
                    <div class=""question-area"">
                        <p style=""font-size: 20px; font-weight: bold; margin: 0;"">Was there a person in this image?</p>
                    </div>
                </div>","0","example_question","2","","","","","","","","","",""
"","","","","","html-keyboard-response","10","46977","0.0-10.0","B5D29EBAE5AE4BD2BDF49E859966C88D","019cfa5a-7ad4-7710-bd81-0314559cd7fa","019cfa3a-388e-72ab-ad58-bdeb258f96cd","","null","
                <div class=""stimulus-container"">
                    <img src=""images/instructions/movie_3.png"" class=""exp-image"">
                    <div class=""question-area""></div> 
                </div>","null","","","","","","","","","","","",""
"","","","","","html-button-response","11","47640","0.0-11.0","B5D29EBAE5AE4BD2BDF49E859966C88D","019cfa5a-7ad4-7710-bd81-0314559cd7fa","019cfa3a-388e-72ab-ad58-bdeb258f96cd","","661","
                <div class=""stimulus-container"">
                    <img src=""images/instructions/movie_3.png"" class=""exp-image"">
                    <div class=""question-area"">
                        <p style=""font-size: 20px; font-weight: bold; margin: 0;"">Was there a person in this image?</p>
                    </div>
                </div>","0","example_question","3","","","","","","","","","",""
"","","","","","html-keyboard-response","12","51646","0.0-12.0","B5D29EBAE5AE4BD2BDF49E859966C88D","019cfa5a-7ad4-7710-bd81-0314559cd7fa","019cfa3a-388e-72ab-ad58-bdeb258f96cd","","null","
                <div class=""stimulus-container"">
                    <img src=""images/instructions/movie_4.png"" class=""exp-image"">
                    <div class=""question-area""></div> 
                </div>","null","","","","","","","","","","","",""
"","","","","","html-button-response","13","52234","0.0-13.0","B5D29EBAE5AE4BD2BDF49E859966C88D","019cfa5a-7ad4-7710-bd81-0314559cd7fa","019cfa3a-388e-72ab-ad58-bdeb258f96cd","","587","
                <div class=""stimulus-container"">
                    <img src=""images/instructions/movie_4.png"" class=""exp-image"">
                    <div class=""question-area"">
                        <p style=""font-size: 20px; font-weight: bold; margin: 0;"">Was there a person in this image?</p>
                    </div>
                </div>","0","example_question","4","","","","","","","","","",""
"","","","","","instructions","14","53322","0.0-14.0","B5D29EBAE5AE4BD2BDF49E859966C88D","019cfa5a-7ad4-7710-bd81-0314559cd7fa","019cfa3a-388e-72ab-ad58-bdeb258f96cd","[{""page_index"":0,""viewing_time"":1087}]","1088","","","","","","","","","","","","","",""
"","","","","","instructions","15","58986","0.0-15.0","B5D29EBAE5AE4BD2BDF49E859966C88D","019cfa5a-7ad4-7710-bd81-0314559cd7fa","019cfa3a-388e-72ab-ad58-bdeb258f96cd","[{""page_index"":0,""viewing_time"":5663}]","5664","","","","","","","","","","","","","",""
"","","","","","html-keyboard-response","16","63991","0.0-16.0","B5D29EBAE5AE4BD2BDF49E859966C88D","019cfa5a-7ad4-7710-bd81-0314559cd7fa","019cfa3a-388e-72ab-ad58-bdeb258f96cd","","null","<div style=""background-color: white; width: 100vw; height: 100vh;""></div>","null","","","","","","","","","","","",""
"","","","","","html-keyboard-response","17","64995","0.0-17.0","B5D29EBAE5AE4BD2BDF49E859966C88D","019cfa5a-7ad4-7710-bd81-0314559cd7fa","019cfa3a-388e-72ab-ad58-bdeb258f96cd","","null","
                <div class=""stimulus-container"">
                    <img src=""images/causal_sequence/museum_causal/museum_causal_1.png"" class=""exp-image"">
                    <div class=""question-area""></div> 
                </div>","null","","","","","","","","","","","",""
"","","","","","html-button-response","18","66177","0.0-18.0","B5D29EBAE5AE4BD2BDF49E859966C88D","019cfa5a-7ad4-7710-bd81-0314559cd7fa","019cfa3a-388e-72ab-ad58-bdeb258f96cd","","1181","
                <div class=""stimulus-container"">
                    <img src=""images/causal_sequence/museum_causal/museum_causal_1.png"" class=""exp-image"">
                    <div class=""question-area"">
                        <p style=""font-size: 20px; font-weight: bold; margin: 0;"">Is there a person in this image?</p>
                    </div>
                </div>","0","main_experiment_trial","1","museum_causal","causal_sequence","chronological","","","","","","",""
"","","","","","html-keyboard-response","19","67189","0.0-19.0","B5D29EBAE5AE4BD2BDF49E859966C88D","019cfa5a-7ad4-7710-bd81-0314559cd7fa","019cfa3a-388e-72ab-ad58-bdeb258f96cd","","null","
                <div class=""stimulus-container"">
                    <img src=""images/causal_sequence/museum_causal/museum_causal_2.png"" class=""exp-image"">
                    <div class=""question-area""></div> 
                </div>","null","","","","","","","","","","","",""
"","","","","","html-button-response","20","69478","0.0-20.0","B5D29EBAE5AE4BD2BDF49E859966C88D","019cfa5a-7ad4-7710-bd81-0314559cd7fa","019cfa3a-388e-72ab-ad58-bdeb258f96cd","","2288","
                <div class=""stimulus-container"">
                    <img src=""images/causal_sequence/museum_causal/museum_causal_2.png"" class=""exp-image"">
                    <div class=""question-area"">
                        <p style=""font-size: 20px; font-weight: bold; margin: 0;"">Is there a person in this image?</p>
                    </div>
                </div>","1","main_experiment_trial","2","museum_causal","causal_sequence","chronological","","","","","","",""
"","","","","","html-keyboard-response","21","70486","0.0-21.0","B5D29EBAE5AE4BD2BDF49E859966C88D","019cfa5a-7ad4-7710-bd81-0314559cd7fa","019cfa3a-388e-72ab-ad58-bdeb258f96cd","","null","
                <div class=""stimulus-container"">
                    <img src=""images/causal_sequence/museum_causal/museum_causal_3.png"" class=""exp-image"">
                    <div class=""question-area""></div> 
                </div>","null","","","","","","","","","","","",""
"","","","","","html-button-response","22","71996","0.0-22.0","B5D29EBAE5AE4BD2BDF49E859966C88D","019cfa5a-7ad4-7710-bd81-0314559cd7fa","019cfa3a-388e-72ab-ad58-bdeb258f96cd","","1509","
                <div class=""stimulus-container"">
                    <img src=""images/causal_sequence/museum_causal/museum_causal_3.png"" class=""exp-image"">
                    <div class=""question-area"">
                        <p style=""font-size: 20px; font-weight: bold; margin: 0;"">Is there a person in this image?</p>
                    </div>
                </div>","0","main_experiment_trial","3","museum_causal","causal_sequence","chronological","","","","","","",""
"","","","","","html-keyboard-response","23","73012","0.0-23.0","B5D29EBAE5AE4BD2BDF49E859966C88D","019cfa5a-7ad4-7710-bd81-0314559cd7fa","019cfa3a-388e-72ab-ad58-bdeb258f96cd","","null","
                <div class=""stimulus-container"">
                    <img src=""images/causal_sequence/museum_causal/museum_causal_4.png"" class=""exp-image"">
                    <div class=""question-area""></div> 
                </div>","null","","","","","","","","","","","",""
"","","","","","html-button-response","24","74108","0.0-24.0","B5D29EBAE5AE4BD2BDF49E859966C88D","019cfa5a-7ad4-7710-bd81-0314559cd7fa","019cfa3a-388e-72ab-ad58-bdeb258f96cd","","1095","
                <div class=""stimulus-container"">
                    <img src=""images/causal_sequence/museum_causal/museum_causal_4.png"" class=""exp-image"">
                    <div class=""question-area"">
                        <p style=""font-size: 20px; font-weight: bold; margin: 0;"">Is there a person in this image?</p>
                    </div>
                </div>","1","main_experiment_trial","4","museum_causal","causal_sequence","chronological","","","","","","",""
"","","","","","html-keyboard-response","25","75120","0.0-25.0","B5D29EBAE5AE4BD2BDF49E859966C88D","019cfa5a-7ad4-7710-bd81-0314559cd7fa","019cfa3a-388e-72ab-ad58-bdeb258f96cd","","null","
                <div class=""stimulus-container"">
                    <img src=""images/causal_sequence/museum_causal/museum_causal_5.png"" class=""exp-image"">
                    <div class=""question-area""></div> 
                </div>","null","","","","","","","","","","","",""
"","","","","","html-button-response","26","76299","0.0-26.0","B5D29EBAE5AE4BD2BDF49E859966C88D","019cfa5a-7ad4-7710-bd81-0314559cd7fa","019cfa3a-388e-72ab-ad58-bdeb258f96cd","","1178","
                <div class=""stimulus-container"">
                    <img src=""images/causal_sequence/museum_causal/museum_causal_5.png"" class=""exp-image"">
                    <div class=""question-area"">
                        <p style=""font-size: 20px; font-weight: bold; margin: 0;"">Is there a person in this image?</p>
                    </div>
                </div>","0","main_experiment_trial","5","museum_causal","causal_sequence","chronological","","","","","","",""
"","","","","","html-keyboard-response","27","77305","0.0-27.0","B5D29EBAE5AE4BD2BDF49E859966C88D","019cfa5a-7ad4-7710-bd81-0314559cd7fa","019cfa3a-388e-72ab-ad58-bdeb258f96cd","","null","
                <div class=""stimulus-container"">
                    <img src=""images/causal_sequence/museum_causal/museum_causal_6.png"" class=""exp-image"">
                    <div class=""question-area""></div> 
                </div>","null","","","","","","","","","","","",""
"","","","","","html-button-response","28","77980","0.0-28.0","B5D29EBAE5AE4BD2BDF49E859966C88D","019cfa5a-7ad4-7710-bd81-0314559cd7fa","019cfa3a-388e-72ab-ad58-bdeb258f96cd","","674","
                <div class=""stimulus-container"">
                    <img src=""images/causal_sequence/museum_causal/museum_causal_6.png"" class=""exp-image"">
                    <div class=""question-area"">
                        <p style=""font-size: 20px; font-weight: bold; margin: 0;"">Is there a person in this image?</p>
                    </div>
                </div>","0","main_experiment_trial","6","museum_causal","causal_sequence","chronological","","","","","","",""
"","","","","","html-keyboard-response","29","78992","0.0-29.0","B5D29EBAE5AE4BD2BDF49E859966C88D","019cfa5a-7ad4-7710-bd81-0314559cd7fa","019cfa3a-388e-72ab-ad58-bdeb258f96cd","","null","
                <div class=""stimulus-container"">
                    <img src=""images/causal_sequence/museum_causal/museum_causal_7.png"" class=""exp-image"">
                    <div class=""question-area""></div> 
                </div>","null","","","","","","","","","","","",""
"","","","","","html-button-response","30","79954","0.0-30.0","B5D29EBAE5AE4BD2BDF49E859966C88D","019cfa5a-7ad4-7710-bd81-0314559cd7fa","019cfa3a-388e-72ab-ad58-bdeb258f96cd","","960","
                <div class=""stimulus-container"">
                    <img src=""images/causal_sequence/museum_causal/museum_causal_7.png"" class=""exp-image"">
                    <div class=""question-area"">
                        <p style=""font-size: 20px; font-weight: bold; margin: 0;"">Is there a person in this image?</p>
                    </div>
                </div>","1","main_experiment_trial","7","museum_causal","causal_sequence","chronological","","","","","","",""
"","","","","","html-keyboard-response","31","80963","0.0-31.0","B5D29EBAE5AE4BD2BDF49E859966C88D","019cfa5a-7ad4-7710-bd81-0314559cd7fa","019cfa3a-388e-72ab-ad58-bdeb258f96cd","","null","
                <div class=""stimulus-container"">
                    <img src=""images/causal_sequence/museum_causal/museum_causal_8.png"" class=""exp-image"">
                    <div class=""question-area""></div> 
                </div>","null","","","","","","","","","","","",""
"","","","","","html-button-response","32","81698","0.0-32.0","B5D29EBAE5AE4BD2BDF49E859966C88D","019cfa5a-7ad4-7710-bd81-0314559cd7fa","019cfa3a-388e-72ab-ad58-bdeb258f96cd","","733","
                <div class=""stimulus-container"">
                    <img src=""images/causal_sequence/museum_causal/museum_causal_8.png"" class=""exp-image"">
                    <div class=""question-area"">
                        <p style=""font-size: 20px; font-weight: bold; margin: 0;"">Is there a person in this image?</p>
                    </div>
                </div>","0","main_experiment_trial","8","museum_causal","causal_sequence","chronological","","","","","","",""
"","","","","","html-keyboard-response","33","82703","0.0-33.0","B5D29EBAE5AE4BD2BDF49E859966C88D","019cfa5a-7ad4-7710-bd81-0314559cd7fa","019cfa3a-388e-72ab-ad58-bdeb258f96cd","","null","
                <div class=""stimulus-container"">
                    <img src=""images/causal_sequence/museum_causal/museum_causal_9.png"" class=""exp-image"">
                    <div class=""question-area""></div> 
                </div>","null","","","","","","","","","","","",""
"","","","","","html-button-response","34","83504","0.0-34.0","B5D29EBAE5AE4BD2BDF49E859966C88D","019cfa5a-7ad4-7710-bd81-0314559cd7fa","019cfa3a-388e-72ab-ad58-bdeb258f96cd","","799","
                <div class=""stimulus-container"">
                    <img src=""images/causal_sequence/museum_causal/museum_causal_9.png"" class=""exp-image"">
                    <div class=""question-area"">
                        <p style=""font-size: 20px; font-weight: bold; margin: 0;"">Is there a person in this image?</p>
                    </div>
                </div>","1","main_experiment_trial","9","museum_causal","causal_sequence","chronological","","","","","","",""
"","","","","","html-keyboard-response","35","84507","0.0-35.0","B5D29EBAE5AE4BD2BDF49E859966C88D","019cfa5a-7ad4-7710-bd81-0314559cd7fa","019cfa3a-388e-72ab-ad58-bdeb258f96cd","","null","
                <div class=""stimulus-container"">
                    <img src=""images/causal_sequence/museum_causal/museum_causal_ten.png"" class=""exp-image"">
                    <div class=""question-area""></div> 
                </div>","null","","","","","","","","","","","",""
"","","","","","html-button-response","36","85449","0.0-36.0","B5D29EBAE5AE4BD2BDF49E859966C88D","019cfa5a-7ad4-7710-bd81-0314559cd7fa","019cfa3a-388e-72ab-ad58-bdeb258f96cd","","941","
                <div class=""stimulus-container"">
                    <img src=""images/causal_sequence/museum_causal/museum_causal_ten.png"" class=""exp-image"">
                    <div class=""question-area"">
                        <p style=""font-size: 20px; font-weight: bold; margin: 0;"">Is there a person in this image?</p>
                    </div>
                </div>","0","main_experiment_trial","ten","museum_causal","causal_sequence","chronological","","","","","","",""
"","","","","","html-keyboard-response","37","90453","0.0-37.0","B5D29EBAE5AE4BD2BDF49E859966C88D","019cfa5a-7ad4-7710-bd81-0314559cd7fa","019cfa3a-388e-72ab-ad58-bdeb258f96cd","","null","<div style=""background-color: white; width: 100vw; height: 100vh;""></div>","null","","","","","","","","","","","",""
"","","","","","html-keyboard-response","38","91462","0.0-38.0","B5D29EBAE5AE4BD2BDF49E859966C88D","019cfa5a-7ad4-7710-bd81-0314559cd7fa","019cfa3a-388e-72ab-ad58-bdeb258f96cd","","null","
                <div class=""stimulus-container"">
                    <img src=""images/causal_sequence/package_causal/package_causal_1.png"" class=""exp-image"">
                    <div class=""question-area""></div> 
                </div>","null","","","","","","","","","","","",""
"","","","","","html-button-response","39","92259","0.0-39.0","B5D29EBAE5AE4BD2BDF49E859966C88D","019cfa5a-7ad4-7710-bd81-0314559cd7fa","019cfa3a-388e-72ab-ad58-bdeb258f96cd","","796","
                <div class=""stimulus-container"">
                    <img src=""images/causal_sequence/package_causal/package_causal_1.png"" class=""exp-image"">
                    <div class=""question-area"">
                        <p style=""font-size: 20px; font-weight: bold; margin: 0;"">Is there a person in this image?</p>
                    </div>
                </div>","0","main_experiment_trial","1","package_causal","causal_sequence","chronological","","","","","","",""
"","","","","","html-keyboard-response","40","93264","0.0-40.0","B5D29EBAE5AE4BD2BDF49E859966C88D","019cfa5a-7ad4-7710-bd81-0314559cd7fa","019cfa3a-388e-72ab-ad58-bdeb258f96cd","","null","
                <div class=""stimulus-container"">
                    <img src=""images/causal_sequence/package_causal/package_causal_2.png"" class=""exp-image"">
                    <div class=""question-area""></div> 
                </div>","null","","","","","","","","","","","",""
"","","","","","html-button-response","41","93746","0.0-41.0","B5D29EBAE5AE4BD2BDF49E859966C88D","019cfa5a-7ad4-7710-bd81-0314559cd7fa","019cfa3a-388e-72ab-ad58-bdeb258f96cd","","481","
                <div class=""stimulus-container"">
                    <img src=""images/causal_sequence/package_causal/package_causal_2.png"" class=""exp-image"">
                    <div class=""question-area"">
                        <p style=""font-size: 20px; font-weight: bold; margin: 0;"">Is there a person in this image?</p>
                    </div>
                </div>","0","main_experiment_trial","2","package_causal","causal_sequence","chronological","","","","","","",""
"","","","","","html-keyboard-response","42","94757","0.0-42.0","B5D29EBAE5AE4BD2BDF49E859966C88D","019cfa5a-7ad4-7710-bd81-0314559cd7fa","019cfa3a-388e-72ab-ad58-bdeb258f96cd","","null","
                <div class=""stimulus-container"">
                    <img src=""images/causal_sequence/package_causal/package_causal_3.png"" class=""exp-image"">
                    <div class=""question-area""></div> 
                </div>","null","","","","","","","","","","","",""
"","","","","","html-button-response","43","95168","0.0-43.0","B5D29EBAE5AE4BD2BDF49E859966C88D","019cfa5a-7ad4-7710-bd81-0314559cd7fa","019cfa3a-388e-72ab-ad58-bdeb258f96cd","","410","
                <div class=""stimulus-container"">
                    <img src=""images/causal_sequence/package_causal/package_causal_3.png"" class=""exp-image"">
                    <div class=""question-area"">
                        <p style=""font-size: 20px; font-weight: bold; margin: 0;"">Is there a person in this image?</p>
                    </div>
                </div>","0","main_experiment_trial","3","package_causal","causal_sequence","chronological","","","","","","",""
"","","","","","html-keyboard-response","44","96184","0.0-44.0","B5D29EBAE5AE4BD2BDF49E859966C88D","019cfa5a-7ad4-7710-bd81-0314559cd7fa","019cfa3a-388e-72ab-ad58-bdeb258f96cd","","null","
                <div class=""stimulus-container"">
                    <img src=""images/causal_sequence/package_causal/package_causal_4.png"" class=""exp-image"">
                    <div class=""question-area""></div> 
                </div>","null","","","","","","","","","","","",""
"","","","","","html-button-response","45","97121","0.0-45.0","B5D29EBAE5AE4BD2BDF49E859966C88D","019cfa5a-7ad4-7710-bd81-0314559cd7fa","019cfa3a-388e-72ab-ad58-bdeb258f96cd","","935","
                <div class=""stimulus-container"">
                    <img src=""images/causal_sequence/package_causal/package_causal_4.png"" class=""exp-image"">
                    <div class=""question-area"">
                        <p style=""font-size: 20px; font-weight: bold; margin: 0;"">Is there a person in this image?</p>
                    </div>
                </div>","1","main_experiment_trial","4","package_causal","causal_sequence","chronological","","","","","","",""
"","","","","","html-keyboard-response","46","98126","0.0-46.0","B5D29EBAE5AE4BD2BDF49E859966C88D","019cfa5a-7ad4-7710-bd81-0314559cd7fa","019cfa3a-388e-72ab-ad58-bdeb258f96cd","","null","
                <div class=""stimulus-container"">
                    <img src=""images/causal_sequence/package_causal/package_causal_5.png"" class=""exp-image"">
                    <div class=""question-area""></div> 
                </div>","null","","","","","","","","","","","",""
"","","","","","html-button-response","47","98536","0.0-47.0","B5D29EBAE5AE4BD2BDF49E859966C88D","019cfa5a-7ad4-7710-bd81-0314559cd7fa","019cfa3a-388e-72ab-ad58-bdeb258f96cd","","409","
                <div class=""stimulus-container"">
                    <img src=""images/causal_sequence/package_causal/package_causal_5.png"" class=""exp-image"">
                    <div class=""question-area"">
                        <p style=""font-size: 20px; font-weight: bold; margin: 0;"">Is there a person in this image?</p>
                    </div>
                </div>","0","main_experiment_trial","5","package_causal","causal_sequence","chronological","","","","","","",""
"","","","","","html-keyboard-response","48","99551","0.0-48.0","B5D29EBAE5AE4BD2BDF49E859966C88D","019cfa5a-7ad4-7710-bd81-0314559cd7fa","019cfa3a-388e-72ab-ad58-bdeb258f96cd","","null","
                <div class=""stimulus-container"">
                    <img src=""images/causal_sequence/package_causal/package_causal_6.png"" class=""exp-image"">
                    <div class=""question-area""></div> 
                </div>","null","","","","","","","","","","","",""
"","","","","","html-button-response","49","100060","0.0-49.0","B5D29EBAE5AE4BD2BDF49E859966C88D","019cfa5a-7ad4-7710-bd81-0314559cd7fa","019cfa3a-388e-72ab-ad58-bdeb258f96cd","","508","
                <div class=""stimulus-container"">
                    <img src=""images/causal_sequence/package_causal/package_causal_6.png"" class=""exp-image"">
                    <div class=""question-area"">
                        <p style=""font-size: 20px; font-weight: bold; margin: 0;"">Is there a person in this image?</p>
                    </div>
                </div>","0","main_experiment_trial","6","package_causal","causal_sequence","chronological","","","","","","",""
"","","","","","html-keyboard-response","50","101063","0.0-50.0","B5D29EBAE5AE4BD2BDF49E859966C88D","019cfa5a-7ad4-7710-bd81-0314559cd7fa","019cfa3a-388e-72ab-ad58-bdeb258f96cd","","null","
                <div class=""stimulus-container"">
                    <img src=""images/causal_sequence/package_causal/package_causal_7.png"" class=""exp-image"">
                    <div class=""question-area""></div> 
                </div>","null","","","","","","","","","","","",""
"","","","","","html-button-response","51","101564","0.0-51.0","B5D29EBAE5AE4BD2BDF49E859966C88D","019cfa5a-7ad4-7710-bd81-0314559cd7fa","019cfa3a-388e-72ab-ad58-bdeb258f96cd","","501","
                <div class=""stimulus-container"">
                    <img src=""images/causal_sequence/package_causal/package_causal_7.png"" class=""exp-image"">
                    <div class=""question-area"">
                        <p style=""font-size: 20px; font-weight: bold; margin: 0;"">Is there a person in this image?</p>
                    </div>
                </div>","0","main_experiment_trial","7","package_causal","causal_sequence","chronological","","","","","","",""
"","","","","","html-keyboard-response","52","102571","0.0-52.0","B5D29EBAE5AE4BD2BDF49E859966C88D","019cfa5a-7ad4-7710-bd81-0314559cd7fa","019cfa3a-388e-72ab-ad58-bdeb258f96cd","","null","
                <div class=""stimulus-container"">
                    <img src=""images/causal_sequence/package_causal/package_causal_8.png"" class=""exp-image"">
                    <div class=""question-area""></div> 
                </div>","null","","","","","","","","","","","",""
"","","","","","html-button-response","53","103033","0.0-53.0","B5D29EBAE5AE4BD2BDF49E859966C88D","019cfa5a-7ad4-7710-bd81-0314559cd7fa","019cfa3a-388e-72ab-ad58-bdeb258f96cd","","461","
                <div class=""stimulus-container"">
                    <img src=""images/causal_sequence/package_causal/package_causal_8.png"" class=""exp-image"">
                    <div class=""question-area"">
                        <p style=""font-size: 20px; font-weight: bold; margin: 0;"">Is there a person in this image?</p>
                    </div>
                </div>","0","main_experiment_trial","8","package_causal","causal_sequence","chronological","","","","","","",""
"","","","","","html-keyboard-response","54","104038","0.0-54.0","B5D29EBAE5AE4BD2BDF49E859966C88D","019cfa5a-7ad4-7710-bd81-0314559cd7fa","019cfa3a-388e-72ab-ad58-bdeb258f96cd","","null","
                <div class=""stimulus-container"">
                    <img src=""images/causal_sequence/package_causal/package_causal_9.png"" class=""exp-image"">
                    <div class=""question-area""></div> 
                </div>","null","","","","","","","","","","","",""
"","","","","","html-button-response","55","104468","0.0-55.0","B5D29EBAE5AE4BD2BDF49E859966C88D","019cfa5a-7ad4-7710-bd81-0314559cd7fa","019cfa3a-388e-72ab-ad58-bdeb258f96cd","","428","
                <div class=""stimulus-container"">
                    <img src=""images/causal_sequence/package_causal/package_causal_9.png"" class=""exp-image"">
                    <div class=""question-area"">
                        <p style=""font-size: 20px; font-weight: bold; margin: 0;"">Is there a person in this image?</p>
                    </div>
                </div>","0","main_experiment_trial","9","package_causal","causal_sequence","chronological","","","","","","",""
"","","","","","html-keyboard-response","56","105472","0.0-56.0","B5D29EBAE5AE4BD2BDF49E859966C88D","019cfa5a-7ad4-7710-bd81-0314559cd7fa","019cfa3a-388e-72ab-ad58-bdeb258f96cd","","null","
                <div class=""stimulus-container"">
                    <img src=""images/causal_sequence/package_causal/package_causal_ten.png"" class=""exp-image"">
                    <div class=""question-area""></div> 
                </div>","null","","","","","","","","","","","",""
"","","","","","html-button-response","57","105977","0.0-57.0","B5D29EBAE5AE4BD2BDF49E859966C88D","019cfa5a-7ad4-7710-bd81-0314559cd7fa","019cfa3a-388e-72ab-ad58-bdeb258f96cd","","504","
                <div class=""stimulus-container"">
                    <img src=""images/causal_sequence/package_causal/package_causal_ten.png"" class=""exp-image"">
                    <div class=""question-area"">
                        <p style=""font-size: 20px; font-weight: bold; margin: 0;"">Is there a person in this image?</p>
                    </div>
                </div>","0","main_experiment_trial","ten","package_causal","causal_sequence","chronological","","","","","","",""
"","","","","","html-keyboard-response","58","110991","0.0-58.0","B5D29EBAE5AE4BD2BDF49E859966C88D","019cfa5a-7ad4-7710-bd81-0314559cd7fa","019cfa3a-388e-72ab-ad58-bdeb258f96cd","","null","<div style=""background-color: white; width: 100vw; height: 100vh;""></div>","null","","","","","","","","","","","",""
"","","","","","html-keyboard-response","59","111995","0.0-59.0","B5D29EBAE5AE4BD2BDF49E859966C88D","019cfa5a-7ad4-7710-bd81-0314559cd7fa","019cfa3a-388e-72ab-ad58-bdeb258f96cd","","null","
                <div class=""stimulus-container"">
                    <img src=""images/semantic_sequence/redecorating_a_house_semantic/redecorating_a_house_semantic_1.png"" class=""exp-image"">
                    <div class=""question-area""></div> 
                </div>","null","","","","","","","","","","","",""
"","","","","","html-button-response","60","113692","0.0-60.0","B5D29EBAE5AE4BD2BDF49E859966C88D","019cfa5a-7ad4-7710-bd81-0314559cd7fa","019cfa3a-388e-72ab-ad58-bdeb258f96cd","","1696","
                <div class=""stimulus-container"">
                    <img src=""images/semantic_sequence/redecorating_a_house_semantic/redecorating_a_house_semantic_1.png"" class=""exp-image"">
                    <div class=""question-area"">
                        <p style=""font-size: 20px; font-weight: bold; margin: 0;"">Is there a person in this image?</p>
                    </div>
                </div>","0","main_experiment_trial","1","redecorating_a_house_semantic","semantic_sequence","chronological","","","","","","",""
"","","","","","html-keyboard-response","61","114709","0.0-61.0","B5D29EBAE5AE4BD2BDF49E859966C88D","019cfa5a-7ad4-7710-bd81-0314559cd7fa","019cfa3a-388e-72ab-ad58-bdeb258f96cd","","null","
                <div class=""stimulus-container"">
                    <img src=""images/semantic_sequence/redecorating_a_house_semantic/redecorating_a_house_semantic_2.png"" class=""exp-image"">
                    <div class=""question-area""></div> 
                </div>","null","","","","","","","","","","","",""
"","","","","","html-button-response","62","115223","0.0-62.0","B5D29EBAE5AE4BD2BDF49E859966C88D","019cfa5a-7ad4-7710-bd81-0314559cd7fa","019cfa3a-388e-72ab-ad58-bdeb258f96cd","","514","
                <div class=""stimulus-container"">
                    <img src=""images/semantic_sequence/redecorating_a_house_semantic/redecorating_a_house_semantic_2.png"" class=""exp-image"">
                    <div class=""question-area"">
                        <p style=""font-size: 20px; font-weight: bold; margin: 0;"">Is there a person in this image?</p>
                    </div>
                </div>","0","main_experiment_trial","2","redecorating_a_house_semantic","semantic_sequence","chronological","","","","","","",""
"","","","","","html-keyboard-response","63","116225","0.0-63.0","B5D29EBAE5AE4BD2BDF49E859966C88D","019cfa5a-7ad4-7710-bd81-0314559cd7fa","019cfa3a-388e-72ab-ad58-bdeb258f96cd","","null","
                <div class=""stimulus-container"">
                    <img src=""images/semantic_sequence/redecorating_a_house_semantic/redecorating_a_house_semantic_3.png"" class=""exp-image"">
                    <div class=""question-area""></div> 
                </div>","null","","","","","","","","","","","",""
"","","","","","html-button-response","64","116669","0.0-64.0","B5D29EBAE5AE4BD2BDF49E859966C88D","019cfa5a-7ad4-7710-bd81-0314559cd7fa","019cfa3a-388e-72ab-ad58-bdeb258f96cd","","443","
                <div class=""stimulus-container"">
                    <img src=""images/semantic_sequence/redecorating_a_house_semantic/redecorating_a_house_semantic_3.png"" class=""exp-image"">
                    <div class=""question-area"">
                        <p style=""font-size: 20px; font-weight: bold; margin: 0;"">Is there a person in this image?</p>
                    </div>
                </div>","0","main_experiment_trial","3","redecorating_a_house_semantic","semantic_sequence","chronological","","","","","","",""
"","","","","","html-keyboard-response","65","117671","0.0-65.0","B5D29EBAE5AE4BD2BDF49E859966C88D","019cfa5a-7ad4-7710-bd81-0314559cd7fa","019cfa3a-388e-72ab-ad58-bdeb258f96cd","","null","
                <div class=""stimulus-container"">
                    <img src=""images/semantic_sequence/redecorating_a_house_semantic/redecorating_a_house_semantic_4.png"" class=""exp-image"">
                    <div class=""question-area""></div> 
                </div>","null","","","","","","","","","","","",""
"","","","","","html-button-response","66","118277","0.0-66.0","B5D29EBAE5AE4BD2BDF49E859966C88D","019cfa5a-7ad4-7710-bd81-0314559cd7fa","019cfa3a-388e-72ab-ad58-bdeb258f96cd","","606","
                <div class=""stimulus-container"">
                    <img src=""images/semantic_sequence/redecorating_a_house_semantic/redecorating_a_house_semantic_4.png"" class=""exp-image"">
                    <div class=""question-area"">
                        <p style=""font-size: 20px; font-weight: bold; margin: 0;"">Is there a person in this image?</p>
                    </div>
                </div>","0","main_experiment_trial","4","redecorating_a_house_semantic","semantic_sequence","chronological","","","","","","",""
"","","","","","html-keyboard-response","67","119283","0.0-67.0","B5D29EBAE5AE4BD2BDF49E859966C88D","019cfa5a-7ad4-7710-bd81-0314559cd7fa","019cfa3a-388e-72ab-ad58-bdeb258f96cd","","null","
                <div class=""stimulus-container"">
                    <img src=""images/semantic_sequence/redecorating_a_house_semantic/redecorating_a_house_semantic_5.png"" class=""exp-image"">
                    <div class=""question-area""></div> 
                </div>","null","","","","","","","","","","","",""
"","","","","","html-button-response","68","119941","0.0-68.0","B5D29EBAE5AE4BD2BDF49E859966C88D","019cfa5a-7ad4-7710-bd81-0314559cd7fa","019cfa3a-388e-72ab-ad58-bdeb258f96cd","","658","
                <div class=""stimulus-container"">
                    <img src=""images/semantic_sequence/redecorating_a_house_semantic/redecorating_a_house_semantic_5.png"" class=""exp-image"">
                    <div class=""question-area"">
                        <p style=""font-size: 20px; font-weight: bold; margin: 0;"">Is there a person in this image?</p>
                    </div>
                </div>","0","main_experiment_trial","5","redecorating_a_house_semantic","semantic_sequence","chronological","","","","","","",""
"","","","","","html-keyboard-response","69","120954","0.0-69.0","B5D29EBAE5AE4BD2BDF49E859966C88D","019cfa5a-7ad4-7710-bd81-0314559cd7fa","019cfa3a-388e-72ab-ad58-bdeb258f96cd","","null","
                <div class=""stimulus-container"">
                    <img src=""images/semantic_sequence/redecorating_a_house_semantic/redecorating_a_house_semantic_6.png"" class=""exp-image"">
                    <div class=""question-area""></div> 
                </div>","null","","","","","","","","","","","",""
"","","","","","html-button-response","70","121424","0.0-70.0","B5D29EBAE5AE4BD2BDF49E859966C88D","019cfa5a-7ad4-7710-bd81-0314559cd7fa","019cfa3a-388e-72ab-ad58-bdeb258f96cd","","468","
                <div class=""stimulus-container"">
                    <img src=""images/semantic_sequence/redecorating_a_house_semantic/redecorating_a_house_semantic_6.png"" class=""exp-image"">
                    <div class=""question-area"">
                        <p style=""font-size: 20px; font-weight: bold; margin: 0;"">Is there a person in this image?</p>
                    </div>
                </div>","0","main_experiment_trial","6","redecorating_a_house_semantic","semantic_sequence","chronological","","","","","","",""
"","","","","","html-keyboard-response","71","122438","0.0-71.0","B5D29EBAE5AE4BD2BDF49E859966C88D","019cfa5a-7ad4-7710-bd81-0314559cd7fa","019cfa3a-388e-72ab-ad58-bdeb258f96cd","","null","
                <div class=""stimulus-container"">
                    <img src=""images/semantic_sequence/redecorating_a_house_semantic/redecorating_a_house_semantic_7.png"" class=""exp-image"">
                    <div class=""question-area""></div> 
                </div>","null","","","","","","","","","","","",""
"","","","","","html-button-response","72","123000","0.0-72.0","B5D29EBAE5AE4BD2BDF49E859966C88D","019cfa5a-7ad4-7710-bd81-0314559cd7fa","019cfa3a-388e-72ab-ad58-bdeb258f96cd","","560","
                <div class=""stimulus-container"">
                    <img src=""images/semantic_sequence/redecorating_a_house_semantic/redecorating_a_house_semantic_7.png"" class=""exp-image"">
                    <div class=""question-area"">
                        <p style=""font-size: 20px; font-weight: bold; margin: 0;"">Is there a person in this image?</p>
                    </div>
                </div>","0","main_experiment_trial","7","redecorating_a_house_semantic","semantic_sequence","chronological","","","","","","",""
"","","","","","html-keyboard-response","73","124013","0.0-73.0","B5D29EBAE5AE4BD2BDF49E859966C88D","019cfa5a-7ad4-7710-bd81-0314559cd7fa","019cfa3a-388e-72ab-ad58-bdeb258f96cd","","null","
                <div class=""stimulus-container"">
                    <img src=""images/semantic_sequence/redecorating_a_house_semantic/redecorating_a_house_semantic_8.png"" class=""exp-image"">
                    <div class=""question-area""></div> 
                </div>","null","","","","","","","","","","","",""
"","","","","","html-button-response","74","124533","0.0-74.0","B5D29EBAE5AE4BD2BDF49E859966C88D","019cfa5a-7ad4-7710-bd81-0314559cd7fa","019cfa3a-388e-72ab-ad58-bdeb258f96cd","","519","
                <div class=""stimulus-container"">
                    <img src=""images/semantic_sequence/redecorating_a_house_semantic/redecorating_a_house_semantic_8.png"" class=""exp-image"">
                    <div class=""question-area"">
                        <p style=""font-size: 20px; font-weight: bold; margin: 0;"">Is there a person in this image?</p>
                    </div>
                </div>","0","main_experiment_trial","8","redecorating_a_house_semantic","semantic_sequence","chronological","","","","","","",""
"","","","","","html-keyboard-response","75","125537","0.0-75.0","B5D29EBAE5AE4BD2BDF49E859966C88D","019cfa5a-7ad4-7710-bd81-0314559cd7fa","019cfa3a-388e-72ab-ad58-bdeb258f96cd","","null","
                <div class=""stimulus-container"">
                    <img src=""images/semantic_sequence/redecorating_a_house_semantic/redecorating_a_house_semantic_9.png"" class=""exp-image"">
                    <div class=""question-area""></div> 
                </div>","null","","","","","","","","","","","",""
"","","","","","html-button-response","76","126598","0.0-76.0","B5D29EBAE5AE4BD2BDF49E859966C88D","019cfa5a-7ad4-7710-bd81-0314559cd7fa","019cfa3a-388e-72ab-ad58-bdeb258f96cd","","1061","
                <div class=""stimulus-container"">
                    <img src=""images/semantic_sequence/redecorating_a_house_semantic/redecorating_a_house_semantic_9.png"" class=""exp-image"">
                    <div class=""question-area"">
                        <p style=""font-size: 20px; font-weight: bold; margin: 0;"">Is there a person in this image?</p>
                    </div>
                </div>","0","main_experiment_trial","9","redecorating_a_house_semantic","semantic_sequence","chronological","","","","","","",""
"","","","","","html-keyboard-response","77","127603","0.0-77.0","B5D29EBAE5AE4BD2BDF49E859966C88D","019cfa5a-7ad4-7710-bd81-0314559cd7fa","019cfa3a-388e-72ab-ad58-bdeb258f96cd","","null","
                <div class=""stimulus-container"">
                    <img src=""images/semantic_sequence/redecorating_a_house_semantic/redecorating_a_house_semantic_ten.png"" class=""exp-image"">
                    <div class=""question-area""></div> 
                </div>","null","","","","","","","","","","","",""
"","","","","","html-button-response","78","128817","0.0-78.0","B5D29EBAE5AE4BD2BDF49E859966C88D","019cfa5a-7ad4-7710-bd81-0314559cd7fa","019cfa3a-388e-72ab-ad58-bdeb258f96cd","","1213","
                <div class=""stimulus-container"">
                    <img src=""images/semantic_sequence/redecorating_a_house_semantic/redecorating_a_house_semantic_ten.png"" class=""exp-image"">
                    <div class=""question-area"">
                        <p style=""font-size: 20px; font-weight: bold; margin: 0;"">Is there a person in this image?</p>
                    </div>
                </div>","0","main_experiment_trial","ten","redecorating_a_house_semantic","semantic_sequence","chronological","","","","","","",""
"","","","","","html-keyboard-response","79","133831","0.0-79.0","B5D29EBAE5AE4BD2BDF49E859966C88D","019cfa5a-7ad4-7710-bd81-0314559cd7fa","019cfa3a-388e-72ab-ad58-bdeb258f96cd","","null","<div style=""background-color: white; width: 100vw; height: 100vh;""></div>","null","","","","","","","","","","","",""
"","","","","","html-keyboard-response","80","134836","0.0-80.0","B5D29EBAE5AE4BD2BDF49E859966C88D","019cfa5a-7ad4-7710-bd81-0314559cd7fa","019cfa3a-388e-72ab-ad58-bdeb258f96cd","","null","
                <div class=""stimulus-container"">
                    <img src=""images/semantic_sequence/using_technology_semantic/using_technology_semantic_1.png"" class=""exp-image"">
                    <div class=""question-area""></div> 
                </div>","null","","","","","","","","","","","",""
"","","","","","html-button-response","81","135769","0.0-81.0","B5D29EBAE5AE4BD2BDF49E859966C88D","019cfa5a-7ad4-7710-bd81-0314559cd7fa","019cfa3a-388e-72ab-ad58-bdeb258f96cd","","933","
                <div class=""stimulus-container"">
                    <img src=""images/semantic_sequence/using_technology_semantic/using_technology_semantic_1.png"" class=""exp-image"">
                    <div class=""question-area"">
                        <p style=""font-size: 20px; font-weight: bold; margin: 0;"">Is there a person in this image?</p>
                    </div>
                </div>","0","main_experiment_trial","1","using_technology_semantic","semantic_sequence","chronological","","","","","","",""
"","","","","","html-keyboard-response","82","136781","0.0-82.0","B5D29EBAE5AE4BD2BDF49E859966C88D","019cfa5a-7ad4-7710-bd81-0314559cd7fa","019cfa3a-388e-72ab-ad58-bdeb258f96cd","","null","
                <div class=""stimulus-container"">
                    <img src=""images/semantic_sequence/using_technology_semantic/using_technology_semantic_2.png"" class=""exp-image"">
                    <div class=""question-area""></div> 
                </div>","null","","","","","","","","","","","",""
"","","","","","html-button-response","83","137405","0.0-83.0","B5D29EBAE5AE4BD2BDF49E859966C88D","019cfa5a-7ad4-7710-bd81-0314559cd7fa","019cfa3a-388e-72ab-ad58-bdeb258f96cd","","623","
                <div class=""stimulus-container"">
                    <img src=""images/semantic_sequence/using_technology_semantic/using_technology_semantic_2.png"" class=""exp-image"">
                    <div class=""question-area"">
                        <p style=""font-size: 20px; font-weight: bold; margin: 0;"">Is there a person in this image?</p>
                    </div>
                </div>","0","main_experiment_trial","2","using_technology_semantic","semantic_sequence","chronological","","","","","","",""
"","","","","","html-keyboard-response","84","138410","0.0-84.0","B5D29EBAE5AE4BD2BDF49E859966C88D","019cfa5a-7ad4-7710-bd81-0314559cd7fa","019cfa3a-388e-72ab-ad58-bdeb258f96cd","","null","
                <div class=""stimulus-container"">
                    <img src=""images/semantic_sequence/using_technology_semantic/using_technology_semantic_3.png"" class=""exp-image"">
                    <div class=""question-area""></div> 
                </div>","null","","","","","","","","","","","",""
"","","","","","html-button-response","85","139323","0.0-85.0","B5D29EBAE5AE4BD2BDF49E859966C88D","019cfa5a-7ad4-7710-bd81-0314559cd7fa","019cfa3a-388e-72ab-ad58-bdeb258f96cd","","912","
                <div class=""stimulus-container"">
                    <img src=""images/semantic_sequence/using_technology_semantic/using_technology_semantic_3.png"" class=""exp-image"">
                    <div class=""question-area"">
                        <p style=""font-size: 20px; font-weight: bold; margin: 0;"">Is there a person in this image?</p>
                    </div>
                </div>","0","main_experiment_trial","3","using_technology_semantic","semantic_sequence","chronological","","","","","","",""
"","","","","","html-keyboard-response","86","140340","0.0-86.0","B5D29EBAE5AE4BD2BDF49E859966C88D","019cfa5a-7ad4-7710-bd81-0314559cd7fa","019cfa3a-388e-72ab-ad58-bdeb258f96cd","","null","
                <div class=""stimulus-container"">
                    <img src=""images/semantic_sequence/using_technology_semantic/using_technology_semantic_4.png"" class=""exp-image"">
                    <div class=""question-area""></div> 
                </div>","null","","","","","","","","","","","",""
"","","","","","html-button-response","87","141377","0.0-87.0","B5D29EBAE5AE4BD2BDF49E859966C88D","019cfa5a-7ad4-7710-bd81-0314559cd7fa","019cfa3a-388e-72ab-ad58-bdeb258f96cd","","1036","
                <div class=""stimulus-container"">
                    <img src=""images/semantic_sequence/using_technology_semantic/using_technology_semantic_4.png"" class=""exp-image"">
                    <div class=""question-area"">
                        <p style=""font-size: 20px; font-weight: bold; margin: 0;"">Is there a person in this image?</p>
                    </div>
                </div>","0","main_experiment_trial","4","using_technology_semantic","semantic_sequence","chronological","","","","","","",""
"","","","","","html-keyboard-response","88","142392","0.0-88.0","B5D29EBAE5AE4BD2BDF49E859966C88D","019cfa5a-7ad4-7710-bd81-0314559cd7fa","019cfa3a-388e-72ab-ad58-bdeb258f96cd","","null","
                <div class=""stimulus-container"">
                    <img src=""images/semantic_sequence/using_technology_semantic/using_technology_semantic_5.png"" class=""exp-image"">
                    <div class=""question-area""></div> 
                </div>","null","","","","","","","","","","","",""
"","","","","","html-button-response","89","142889","0.0-89.0","B5D29EBAE5AE4BD2BDF49E859966C88D","019cfa5a-7ad4-7710-bd81-0314559cd7fa","019cfa3a-388e-72ab-ad58-bdeb258f96cd","","495","
                <div class=""stimulus-container"">
                    <img src=""images/semantic_sequence/using_technology_semantic/using_technology_semantic_5.png"" class=""exp-image"">
                    <div class=""question-area"">
                        <p style=""font-size: 20px; font-weight: bold; margin: 0;"">Is there a person in this image?</p>
                    </div>
                </div>","0","main_experiment_trial","5","using_technology_semantic","semantic_sequence","chronological","","","","","","",""
"","","","","","html-keyboard-response","90","143896","0.0-90.0","B5D29EBAE5AE4BD2BDF49E859966C88D","019cfa5a-7ad4-7710-bd81-0314559cd7fa","019cfa3a-388e-72ab-ad58-bdeb258f96cd","","null","
                <div class=""stimulus-container"">
                    <img src=""images/semantic_sequence/using_technology_semantic/using_technology_semantic_6.png"" class=""exp-image"">
                    <div class=""question-area""></div> 
                </div>","null","","","","","","","","","","","",""
"","","","","","html-button-response","91","144438","0.0-91.0","B5D29EBAE5AE4BD2BDF49E859966C88D","019cfa5a-7ad4-7710-bd81-0314559cd7fa","019cfa3a-388e-72ab-ad58-bdeb258f96cd","","542","
                <div class=""stimulus-container"">
                    <img src=""images/semantic_sequence/using_technology_semantic/using_technology_semantic_6.png"" class=""exp-image"">
                    <div class=""question-area"">
                        <p style=""font-size: 20px; font-weight: bold; margin: 0;"">Is there a person in this image?</p>
                    </div>
                </div>","0","main_experiment_trial","6","using_technology_semantic","semantic_sequence","chronological","","","","","","",""
"","","","","","html-keyboard-response","92","145444","0.0-92.0","B5D29EBAE5AE4BD2BDF49E859966C88D","019cfa5a-7ad4-7710-bd81-0314559cd7fa","019cfa3a-388e-72ab-ad58-bdeb258f96cd","","null","
                <div class=""stimulus-container"">
                    <img src=""images/semantic_sequence/using_technology_semantic/using_technology_semantic_7.png"" class=""exp-image"">
                    <div class=""question-area""></div> 
                </div>","null","","","","","","","","","","","",""
"","","","","","html-button-response","93","145881","0.0-93.0","B5D29EBAE5AE4BD2BDF49E859966C88D","019cfa5a-7ad4-7710-bd81-0314559cd7fa","019cfa3a-388e-72ab-ad58-bdeb258f96cd","","436","
                <div class=""stimulus-container"">
                    <img src=""images/semantic_sequence/using_technology_semantic/using_technology_semantic_7.png"" class=""exp-image"">
                    <div class=""question-area"">
                        <p style=""font-size: 20px; font-weight: bold; margin: 0;"">Is there a person in this image?</p>
                    </div>
                </div>","0","main_experiment_trial","7","using_technology_semantic","semantic_sequence","chronological","","","","","","",""
"","","","","","html-keyboard-response","94","146895","0.0-94.0","B5D29EBAE5AE4BD2BDF49E859966C88D","019cfa5a-7ad4-7710-bd81-0314559cd7fa","019cfa3a-388e-72ab-ad58-bdeb258f96cd","","null","
                <div class=""stimulus-container"">
                    <img src=""images/semantic_sequence/using_technology_semantic/using_technology_semantic_8.png"" class=""exp-image"">
                    <div class=""question-area""></div> 
                </div>","null","","","","","","","","","","","",""
"","","","","","html-button-response","95","147569","0.0-95.0","B5D29EBAE5AE4BD2BDF49E859966C88D","019cfa5a-7ad4-7710-bd81-0314559cd7fa","019cfa3a-388e-72ab-ad58-bdeb258f96cd","","673","
                <div class=""stimulus-container"">
                    <img src=""images/semantic_sequence/using_technology_semantic/using_technology_semantic_8.png"" class=""exp-image"">
                    <div class=""question-area"">
                        <p style=""font-size: 20px; font-weight: bold; margin: 0;"">Is there a person in this image?</p>
                    </div>
                </div>","0","main_experiment_trial","8","using_technology_semantic","semantic_sequence","chronological","","","","","","",""
"","","","","","html-keyboard-response","96","148571","0.0-96.0","B5D29EBAE5AE4BD2BDF49E859966C88D","019cfa5a-7ad4-7710-bd81-0314559cd7fa","019cfa3a-388e-72ab-ad58-bdeb258f96cd","","null","
                <div class=""stimulus-container"">
                    <img src=""images/semantic_sequence/using_technology_semantic/using_technology_semantic_9.png"" class=""exp-image"">
                    <div class=""question-area""></div> 
                </div>","null","","","","","","","","","","","",""
"","","","","","html-button-response","97","149171","0.0-97.0","B5D29EBAE5AE4BD2BDF49E859966C88D","019cfa5a-7ad4-7710-bd81-0314559cd7fa","019cfa3a-388e-72ab-ad58-bdeb258f96cd","","599","
                <div class=""stimulus-container"">
                    <img src=""images/semantic_sequence/using_technology_semantic/using_technology_semantic_9.png"" class=""exp-image"">
                    <div class=""question-area"">
                        <p style=""font-size: 20px; font-weight: bold; margin: 0;"">Is there a person in this image?</p>
                    </div>
                </div>","0","main_experiment_trial","9","using_technology_semantic","semantic_sequence","chronological","","","","","","",""
"","","","","","html-keyboard-response","98","150186","0.0-98.0","B5D29EBAE5AE4BD2BDF49E859966C88D","019cfa5a-7ad4-7710-bd81-0314559cd7fa","019cfa3a-388e-72ab-ad58-bdeb258f96cd","","null","
                <div class=""stimulus-container"">
                    <img src=""images/semantic_sequence/using_technology_semantic/using_technology_semantic_ten.png"" class=""exp-image"">
                    <div class=""question-area""></div> 
                </div>","null","","","","","","","","","","","",""
"","","","","","html-button-response","99","150701","0.0-99.0","B5D29EBAE5AE4BD2BDF49E859966C88D","019cfa5a-7ad4-7710-bd81-0314559cd7fa","019cfa3a-388e-72ab-ad58-bdeb258f96cd","","514","
                <div class=""stimulus-container"">
                    <img src=""images/semantic_sequence/using_technology_semantic/using_technology_semantic_ten.png"" class=""exp-image"">
                    <div class=""question-area"">
                        <p style=""font-size: 20px; font-weight: bold; margin: 0;"">Is there a person in this image?</p>
                    </div>
                </div>","0","main_experiment_trial","ten","using_technology_semantic","semantic_sequence","chronological","","","","","","",""
"","","","","","html-keyboard-response","100","155714","0.0-100.0","B5D29EBAE5AE4BD2BDF49E859966C88D","019cfa5a-7ad4-7710-bd81-0314559cd7fa","019cfa3a-388e-72ab-ad58-bdeb258f96cd","","null","<div style=""background-color: white; width: 100vw; height: 100vh;""></div>","null","","","","","","","","","","","",""
"","","","","","html-keyboard-response","101","156720","0.0-101.0","B5D29EBAE5AE4BD2BDF49E859966C88D","019cfa5a-7ad4-7710-bd81-0314559cd7fa","019cfa3a-388e-72ab-ad58-bdeb258f96cd","","null","
                <div class=""stimulus-container"">
                    <img src=""images/semantic_sequence/housework_semantic/housework_semantic_1.png"" class=""exp-image"">
                    <div class=""question-area""></div> 
                </div>","null","","","","","","","","","","","",""
"","","","","","html-button-response","102","157785","0.0-102.0","B5D29EBAE5AE4BD2BDF49E859966C88D","019cfa5a-7ad4-7710-bd81-0314559cd7fa","019cfa3a-388e-72ab-ad58-bdeb258f96cd","","1065","
                <div class=""stimulus-container"">
                    <img src=""images/semantic_sequence/housework_semantic/housework_semantic_1.png"" class=""exp-image"">
                    <div class=""question-area"">
                        <p style=""font-size: 20px; font-weight: bold; margin: 0;"">Is there a person in this image?</p>
                    </div>
                </div>","1","main_experiment_trial","1","housework_semantic","semantic_sequence","chronological","","","","","","",""
"","","","","","html-keyboard-response","103","158793","0.0-103.0","B5D29EBAE5AE4BD2BDF49E859966C88D","019cfa5a-7ad4-7710-bd81-0314559cd7fa","019cfa3a-388e-72ab-ad58-bdeb258f96cd","","null","
                <div class=""stimulus-container"">
                    <img src=""images/semantic_sequence/housework_semantic/housework_semantic_2.png"" class=""exp-image"">
                    <div class=""question-area""></div> 
                </div>","null","","","","","","","","","","","",""
"","","","","","html-button-response","104","159647","0.0-104.0","B5D29EBAE5AE4BD2BDF49E859966C88D","019cfa5a-7ad4-7710-bd81-0314559cd7fa","019cfa3a-388e-72ab-ad58-bdeb258f96cd","","853","
                <div class=""stimulus-container"">
                    <img src=""images/semantic_sequence/housework_semantic/housework_semantic_2.png"" class=""exp-image"">
                    <div class=""question-area"">
                        <p style=""font-size: 20px; font-weight: bold; margin: 0;"">Is there a person in this image?</p>
                    </div>
                </div>","0","main_experiment_trial","2","housework_semantic","semantic_sequence","chronological","","","","","","",""
"","","","","","html-keyboard-response","105","160652","0.0-105.0","B5D29EBAE5AE4BD2BDF49E859966C88D","019cfa5a-7ad4-7710-bd81-0314559cd7fa","019cfa3a-388e-72ab-ad58-bdeb258f96cd","","null","
                <div class=""stimulus-container"">
                    <img src=""images/semantic_sequence/housework_semantic/housework_semantic_3.png"" class=""exp-image"">
                    <div class=""question-area""></div> 
                </div>","null","","","","","","","","","","","",""
"","","","","","html-button-response","106","161000","0.0-106.0","B5D29EBAE5AE4BD2BDF49E859966C88D","019cfa5a-7ad4-7710-bd81-0314559cd7fa","019cfa3a-388e-72ab-ad58-bdeb258f96cd","","347","
                <div class=""stimulus-container"">
                    <img src=""images/semantic_sequence/housework_semantic/housework_semantic_3.png"" class=""exp-image"">
                    <div class=""question-area"">
                        <p style=""font-size: 20px; font-weight: bold; margin: 0;"">Is there a person in this image?</p>
                    </div>
                </div>","0","main_experiment_trial","3","housework_semantic","semantic_sequence","chronological","","","","","","",""
"","","","","","html-keyboard-response","107","162009","0.0-107.0","B5D29EBAE5AE4BD2BDF49E859966C88D","019cfa5a-7ad4-7710-bd81-0314559cd7fa","019cfa3a-388e-72ab-ad58-bdeb258f96cd","","null","
                <div class=""stimulus-container"">
                    <img src=""images/semantic_sequence/housework_semantic/housework_semantic_4.png"" class=""exp-image"">
                    <div class=""question-area""></div> 
                </div>","null","","","","","","","","","","","",""
"","","","","","html-button-response","108","162435","0.0-108.0","B5D29EBAE5AE4BD2BDF49E859966C88D","019cfa5a-7ad4-7710-bd81-0314559cd7fa","019cfa3a-388e-72ab-ad58-bdeb258f96cd","","425","
                <div class=""stimulus-container"">
                    <img src=""images/semantic_sequence/housework_semantic/housework_semantic_4.png"" class=""exp-image"">
                    <div class=""question-area"">
                        <p style=""font-size: 20px; font-weight: bold; margin: 0;"">Is there a person in this image?</p>
                    </div>
                </div>","0","main_experiment_trial","4","housework_semantic","semantic_sequence","chronological","","","","","","",""
"","","","","","html-keyboard-response","109","163443","0.0-109.0","B5D29EBAE5AE4BD2BDF49E859966C88D","019cfa5a-7ad4-7710-bd81-0314559cd7fa","019cfa3a-388e-72ab-ad58-bdeb258f96cd","","null","
                <div class=""stimulus-container"">
                    <img src=""images/semantic_sequence/housework_semantic/housework_semantic_5.png"" class=""exp-image"">
                    <div class=""question-area""></div> 
                </div>","null","","","","","","","","","","","",""
"","","","","","html-button-response","110","163853","0.0-110.0","B5D29EBAE5AE4BD2BDF49E859966C88D","019cfa5a-7ad4-7710-bd81-0314559cd7fa","019cfa3a-388e-72ab-ad58-bdeb258f96cd","","409","
                <div class=""stimulus-container"">
                    <img src=""images/semantic_sequence/housework_semantic/housework_semantic_5.png"" class=""exp-image"">
                    <div class=""question-area"">
                        <p style=""font-size: 20px; font-weight: bold; margin: 0;"">Is there a person in this image?</p>
                    </div>
                </div>","0","main_experiment_trial","5","housework_semantic","semantic_sequence","chronological","","","","","","",""
"","","","","","html-keyboard-response","111","164859","0.0-111.0","B5D29EBAE5AE4BD2BDF49E859966C88D","019cfa5a-7ad4-7710-bd81-0314559cd7fa","019cfa3a-388e-72ab-ad58-bdeb258f96cd","","null","
                <div class=""stimulus-container"">
                    <img src=""images/semantic_sequence/housework_semantic/housework_semantic_6.png"" class=""exp-image"">
                    <div class=""question-area""></div> 
                </div>","null","","","","","","","","","","","",""
"","","","","","html-button-response","112","165287","0.0-112.0","B5D29EBAE5AE4BD2BDF49E859966C88D","019cfa5a-7ad4-7710-bd81-0314559cd7fa","019cfa3a-388e-72ab-ad58-bdeb258f96cd","","426","
                <div class=""stimulus-container"">
                    <img src=""images/semantic_sequence/housework_semantic/housework_semantic_6.png"" class=""exp-image"">
                    <div class=""question-area"">
                        <p style=""font-size: 20px; font-weight: bold; margin: 0;"">Is there a person in this image?</p>
                    </div>
                </div>","0","main_experiment_trial","6","housework_semantic","semantic_sequence","chronological","","","","","","",""
"","","","","","html-keyboard-response","113","166302","0.0-113.0","B5D29EBAE5AE4BD2BDF49E859966C88D","019cfa5a-7ad4-7710-bd81-0314559cd7fa","019cfa3a-388e-72ab-ad58-bdeb258f96cd","","null","
                <div class=""stimulus-container"">
                    <img src=""images/semantic_sequence/housework_semantic/housework_semantic_7.png"" class=""exp-image"">
                    <div class=""question-area""></div> 
                </div>","null","","","","","","","","","","","",""
"","","","","","html-button-response","114","167447","0.0-114.0","B5D29EBAE5AE4BD2BDF49E859966C88D","019cfa5a-7ad4-7710-bd81-0314559cd7fa","019cfa3a-388e-72ab-ad58-bdeb258f96cd","","1144","
                <div class=""stimulus-container"">
                    <img src=""images/semantic_sequence/housework_semantic/housework_semantic_7.png"" class=""exp-image"">
                    <div class=""question-area"">
                        <p style=""font-size: 20px; font-weight: bold; margin: 0;"">Is there a person in this image?</p>
                    </div>
                </div>","1","main_experiment_trial","7","housework_semantic","semantic_sequence","chronological","","","","","","",""
"","","","","","html-keyboard-response","115","168461","0.0-115.0","B5D29EBAE5AE4BD2BDF49E859966C88D","019cfa5a-7ad4-7710-bd81-0314559cd7fa","019cfa3a-388e-72ab-ad58-bdeb258f96cd","","null","
                <div class=""stimulus-container"">
                    <img src=""images/semantic_sequence/housework_semantic/housework_semantic_8.png"" class=""exp-image"">
                    <div class=""question-area""></div> 
                </div>","null","","","","","","","","","","","",""
"","","","","","html-button-response","116","169614","0.0-116.0","B5D29EBAE5AE4BD2BDF49E859966C88D","019cfa5a-7ad4-7710-bd81-0314559cd7fa","019cfa3a-388e-72ab-ad58-bdeb258f96cd","","1152","
                <div class=""stimulus-container"">
                    <img src=""images/semantic_sequence/housework_semantic/housework_semantic_8.png"" class=""exp-image"">
                    <div class=""question-area"">
                        <p style=""font-size: 20px; font-weight: bold; margin: 0;"">Is there a person in this image?</p>
                    </div>
                </div>","0","main_experiment_trial","8","housework_semantic","semantic_sequence","chronological","","","","","","",""
"","","","","","html-keyboard-response","117","170626","0.0-117.0","B5D29EBAE5AE4BD2BDF49E859966C88D","019cfa5a-7ad4-7710-bd81-0314559cd7fa","019cfa3a-388e-72ab-ad58-bdeb258f96cd","","null","
                <div class=""stimulus-container"">
                    <img src=""images/semantic_sequence/housework_semantic/housework_semantic_9.png"" class=""exp-image"">
                    <div class=""question-area""></div> 
                </div>","null","","","","","","","","","","","",""
"","","","","","html-button-response","118","171001","0.0-118.0","B5D29EBAE5AE4BD2BDF49E859966C88D","019cfa5a-7ad4-7710-bd81-0314559cd7fa","019cfa3a-388e-72ab-ad58-bdeb258f96cd","","374","
                <div class=""stimulus-container"">
                    <img src=""images/semantic_sequence/housework_semantic/housework_semantic_9.png"" class=""exp-image"">
                    <div class=""question-area"">
                        <p style=""font-size: 20px; font-weight: bold; margin: 0;"">Is there a person in this image?</p>
                    </div>
                </div>","0","main_experiment_trial","9","housework_semantic","semantic_sequence","chronological","","","","","","",""
"","","","","","html-keyboard-response","119","172016","0.0-119.0","B5D29EBAE5AE4BD2BDF49E859966C88D","019cfa5a-7ad4-7710-bd81-0314559cd7fa","019cfa3a-388e-72ab-ad58-bdeb258f96cd","","null","
                <div class=""stimulus-container"">
                    <img src=""images/semantic_sequence/housework_semantic/housework_semantic_ten.png"" class=""exp-image"">
                    <div class=""question-area""></div> 
                </div>","null","","","","","","","","","","","",""
"","","","","","html-button-response","120","172427","0.0-120.0","B5D29EBAE5AE4BD2BDF49E859966C88D","019cfa5a-7ad4-7710-bd81-0314559cd7fa","019cfa3a-388e-72ab-ad58-bdeb258f96cd","","409","
                <div class=""stimulus-container"">
                    <img src=""images/semantic_sequence/housework_semantic/housework_semantic_ten.png"" class=""exp-image"">
                    <div class=""question-area"">
                        <p style=""font-size: 20px; font-weight: bold; margin: 0;"">Is there a person in this image?</p>
                    </div>
                </div>","0","main_experiment_trial","ten","housework_semantic","semantic_sequence","chronological","","","","","","",""
"","","","","","html-keyboard-response","121","177436","0.0-121.0","B5D29EBAE5AE4BD2BDF49E859966C88D","019cfa5a-7ad4-7710-bd81-0314559cd7fa","019cfa3a-388e-72ab-ad58-bdeb258f96cd","","null","<div style=""background-color: white; width: 100vw; height: 100vh;""></div>","null","","","","","","","","","","","",""
"","","","","","html-keyboard-response","122","178442","0.0-122.0","B5D29EBAE5AE4BD2BDF49E859966C88D","019cfa5a-7ad4-7710-bd81-0314559cd7fa","019cfa3a-388e-72ab-ad58-bdeb258f96cd","","null","
                <div class=""stimulus-container"">
                    <img src=""images/causal_sequence/coin_causal/coin_causal_1.png"" class=""exp-image"">
                    <div class=""question-area""></div> 
                </div>","null","","","","","","","","","","","",""
"","","","","","html-button-response","123","179466","0.0-123.0","B5D29EBAE5AE4BD2BDF49E859966C88D","019cfa5a-7ad4-7710-bd81-0314559cd7fa","019cfa3a-388e-72ab-ad58-bdeb258f96cd","","1024","
                <div class=""stimulus-container"">
                    <img src=""images/causal_sequence/coin_causal/coin_causal_1.png"" class=""exp-image"">
                    <div class=""question-area"">
                        <p style=""font-size: 20px; font-weight: bold; margin: 0;"">Is there a person in this image?</p>
                    </div>
                </div>","0","main_experiment_trial","1","coin_causal","causal_sequence","chronological","","","","","","",""
"","","","","","html-keyboard-response","124","180478","0.0-124.0","B5D29EBAE5AE4BD2BDF49E859966C88D","019cfa5a-7ad4-7710-bd81-0314559cd7fa","019cfa3a-388e-72ab-ad58-bdeb258f96cd","","null","
                <div class=""stimulus-container"">
                    <img src=""images/causal_sequence/coin_causal/coin_causal_2.png"" class=""exp-image"">
                    <div class=""question-area""></div> 
                </div>","null","","","","","","","","","","","",""
"","","","","","html-button-response","125","180897","0.0-125.0","B5D29EBAE5AE4BD2BDF49E859966C88D","019cfa5a-7ad4-7710-bd81-0314559cd7fa","019cfa3a-388e-72ab-ad58-bdeb258f96cd","","418","
                <div class=""stimulus-container"">
                    <img src=""images/causal_sequence/coin_causal/coin_causal_2.png"" class=""exp-image"">
                    <div class=""question-area"">
                        <p style=""font-size: 20px; font-weight: bold; margin: 0;"">Is there a person in this image?</p>
                    </div>
                </div>","0","main_experiment_trial","2","coin_causal","causal_sequence","chronological","","","","","","",""
"","","","","","html-keyboard-response","126","181912","0.0-126.0","B5D29EBAE5AE4BD2BDF49E859966C88D","019cfa5a-7ad4-7710-bd81-0314559cd7fa","019cfa3a-388e-72ab-ad58-bdeb258f96cd","","null","
                <div class=""stimulus-container"">
                    <img src=""images/causal_sequence/coin_causal/coin_causal_3.png"" class=""exp-image"">
                    <div class=""question-area""></div> 
                </div>","null","","","","","","","","","","","",""
"","","","","","html-button-response","127","182335","0.0-127.0","B5D29EBAE5AE4BD2BDF49E859966C88D","019cfa5a-7ad4-7710-bd81-0314559cd7fa","019cfa3a-388e-72ab-ad58-bdeb258f96cd","","421","
                <div class=""stimulus-container"">
                    <img src=""images/causal_sequence/coin_causal/coin_causal_3.png"" class=""exp-image"">
                    <div class=""question-area"">
                        <p style=""font-size: 20px; font-weight: bold; margin: 0;"">Is there a person in this image?</p>
                    </div>
                </div>","0","main_experiment_trial","3","coin_causal","causal_sequence","chronological","","","","","","",""
"","","","","","html-keyboard-response","128","183351","0.0-128.0","B5D29EBAE5AE4BD2BDF49E859966C88D","019cfa5a-7ad4-7710-bd81-0314559cd7fa","019cfa3a-388e-72ab-ad58-bdeb258f96cd","","null","
                <div class=""stimulus-container"">
                    <img src=""images/causal_sequence/coin_causal/coin_causal_4.png"" class=""exp-image"">
                    <div class=""question-area""></div> 
                </div>","null","","","","","","","","","","","",""
"","","","","","html-button-response","129","183745","0.0-129.0","B5D29EBAE5AE4BD2BDF49E859966C88D","019cfa5a-7ad4-7710-bd81-0314559cd7fa","019cfa3a-388e-72ab-ad58-bdeb258f96cd","","392","
                <div class=""stimulus-container"">
                    <img src=""images/causal_sequence/coin_causal/coin_causal_4.png"" class=""exp-image"">
                    <div class=""question-area"">
                        <p style=""font-size: 20px; font-weight: bold; margin: 0;"">Is there a person in this image?</p>
                    </div>
                </div>","0","main_experiment_trial","4","coin_causal","causal_sequence","chronological","","","","","","",""
"","","","","","html-keyboard-response","130","184756","0.0-130.0","B5D29EBAE5AE4BD2BDF49E859966C88D","019cfa5a-7ad4-7710-bd81-0314559cd7fa","019cfa3a-388e-72ab-ad58-bdeb258f96cd","","null","
                <div class=""stimulus-container"">
                    <img src=""images/causal_sequence/coin_causal/coin_causal_5.png"" class=""exp-image"">
                    <div class=""question-area""></div> 
                </div>","null","","","","","","","","","","","",""
"","","","","","html-button-response","131","185213","0.0-131.0","B5D29EBAE5AE4BD2BDF49E859966C88D","019cfa5a-7ad4-7710-bd81-0314559cd7fa","019cfa3a-388e-72ab-ad58-bdeb258f96cd","","455","
                <div class=""stimulus-container"">
                    <img src=""images/causal_sequence/coin_causal/coin_causal_5.png"" class=""exp-image"">
                    <div class=""question-area"">
                        <p style=""font-size: 20px; font-weight: bold; margin: 0;"">Is there a person in this image?</p>
                    </div>
                </div>","0","main_experiment_trial","5","coin_causal","causal_sequence","chronological","","","","","","",""
"","","","","","html-keyboard-response","132","186221","0.0-132.0","B5D29EBAE5AE4BD2BDF49E859966C88D","019cfa5a-7ad4-7710-bd81-0314559cd7fa","019cfa3a-388e-72ab-ad58-bdeb258f96cd","","null","
                <div class=""stimulus-container"">
                    <img src=""images/causal_sequence/coin_causal/coin_causal_6.png"" class=""exp-image"">
                    <div class=""question-area""></div> 
                </div>","null","","","","","","","","","","","",""
"","","","","","html-button-response","133","186662","0.0-133.0","B5D29EBAE5AE4BD2BDF49E859966C88D","019cfa5a-7ad4-7710-bd81-0314559cd7fa","019cfa3a-388e-72ab-ad58-bdeb258f96cd","","441","
                <div class=""stimulus-container"">
                    <img src=""images/causal_sequence/coin_causal/coin_causal_6.png"" class=""exp-image"">
                    <div class=""question-area"">
                        <p style=""font-size: 20px; font-weight: bold; margin: 0;"">Is there a person in this image?</p>
                    </div>
                </div>","0","main_experiment_trial","6","coin_causal","causal_sequence","chronological","","","","","","",""
"","","","","","html-keyboard-response","134","187667","0.0-134.0","B5D29EBAE5AE4BD2BDF49E859966C88D","019cfa5a-7ad4-7710-bd81-0314559cd7fa","019cfa3a-388e-72ab-ad58-bdeb258f96cd","","null","
                <div class=""stimulus-container"">
                    <img src=""images/causal_sequence/coin_causal/coin_causal_7.png"" class=""exp-image"">
                    <div class=""question-area""></div> 
                </div>","null","","","","","","","","","","","",""
"","","","","","html-button-response","135","188571","0.0-135.0","B5D29EBAE5AE4BD2BDF49E859966C88D","019cfa5a-7ad4-7710-bd81-0314559cd7fa","019cfa3a-388e-72ab-ad58-bdeb258f96cd","","902","
                <div class=""stimulus-container"">
                    <img src=""images/causal_sequence/coin_causal/coin_causal_7.png"" class=""exp-image"">
                    <div class=""question-area"">
                        <p style=""font-size: 20px; font-weight: bold; margin: 0;"">Is there a person in this image?</p>
                    </div>
                </div>","1","main_experiment_trial","7","coin_causal","causal_sequence","chronological","","","","","","",""
"","","","","","html-keyboard-response","136","189577","0.0-136.0","B5D29EBAE5AE4BD2BDF49E859966C88D","019cfa5a-7ad4-7710-bd81-0314559cd7fa","019cfa3a-388e-72ab-ad58-bdeb258f96cd","","null","
                <div class=""stimulus-container"">
                    <img src=""images/causal_sequence/coin_causal/coin_causal_8.png"" class=""exp-image"">
                    <div class=""question-area""></div> 
                </div>","null","","","","","","","","","","","",""
"","","","","","html-button-response","137","190142","0.0-137.0","B5D29EBAE5AE4BD2BDF49E859966C88D","019cfa5a-7ad4-7710-bd81-0314559cd7fa","019cfa3a-388e-72ab-ad58-bdeb258f96cd","","564","
                <div class=""stimulus-container"">
                    <img src=""images/causal_sequence/coin_causal/coin_causal_8.png"" class=""exp-image"">
                    <div class=""question-area"">
                        <p style=""font-size: 20px; font-weight: bold; margin: 0;"">Is there a person in this image?</p>
                    </div>
                </div>","0","main_experiment_trial","8","coin_causal","causal_sequence","chronological","","","","","","",""
"","","","","","html-keyboard-response","138","191151","0.0-138.0","B5D29EBAE5AE4BD2BDF49E859966C88D","019cfa5a-7ad4-7710-bd81-0314559cd7fa","019cfa3a-388e-72ab-ad58-bdeb258f96cd","","null","
                <div class=""stimulus-container"">
                    <img src=""images/causal_sequence/coin_causal/coin_causal_9.png"" class=""exp-image"">
                    <div class=""question-area""></div> 
                </div>","null","","","","","","","","","","","",""
"","","","","","html-button-response","139","191581","0.0-139.0","B5D29EBAE5AE4BD2BDF49E859966C88D","019cfa5a-7ad4-7710-bd81-0314559cd7fa","019cfa3a-388e-72ab-ad58-bdeb258f96cd","","429","
                <div class=""stimulus-container"">
                    <img src=""images/causal_sequence/coin_causal/coin_causal_9.png"" class=""exp-image"">
                    <div class=""question-area"">
                        <p style=""font-size: 20px; font-weight: bold; margin: 0;"">Is there a person in this image?</p>
                    </div>
                </div>","0","main_experiment_trial","9","coin_causal","causal_sequence","chronological","","","","","","",""
"","","","","","html-keyboard-response","140","192588","0.0-140.0","B5D29EBAE5AE4BD2BDF49E859966C88D","019cfa5a-7ad4-7710-bd81-0314559cd7fa","019cfa3a-388e-72ab-ad58-bdeb258f96cd","","null","
                <div class=""stimulus-container"">
                    <img src=""images/causal_sequence/coin_causal/coin_causal_ten.png"" class=""exp-image"">
                    <div class=""question-area""></div> 
                </div>","null","","","","","","","","","","","",""
"","","","","","html-button-response","141","192983","0.0-141.0","B5D29EBAE5AE4BD2BDF49E859966C88D","019cfa5a-7ad4-7710-bd81-0314559cd7fa","019cfa3a-388e-72ab-ad58-bdeb258f96cd","","394","
                <div class=""stimulus-container"">
                    <img src=""images/causal_sequence/coin_causal/coin_causal_ten.png"" class=""exp-image"">
                    <div class=""question-area"">
                        <p style=""font-size: 20px; font-weight: bold; margin: 0;"">Is there a person in this image?</p>
                    </div>
                </div>","0","main_experiment_trial","ten","coin_causal","causal_sequence","chronological","","","","","","",""
"","","","","","html-keyboard-response","142","197992","0.0-142.0","B5D29EBAE5AE4BD2BDF49E859966C88D","019cfa5a-7ad4-7710-bd81-0314559cd7fa","019cfa3a-388e-72ab-ad58-bdeb258f96cd","","null","<div style=""background-color: white; width: 100vw; height: 100vh;""></div>","null","","","","","","","","","","","",""
"","","","","","html-keyboard-response","143","199007","0.0-143.0","B5D29EBAE5AE4BD2BDF49E859966C88D","019cfa5a-7ad4-7710-bd81-0314559cd7fa","019cfa3a-388e-72ab-ad58-bdeb258f96cd","","null","
                <div class=""stimulus-container"">
                    <img src=""images/causal_sequence/saving_a_cat_causal/saving_a_cat_causal_1.png"" class=""exp-image"">
                    <div class=""question-area""></div> 
                </div>","null","","","","","","","","","","","",""
"","","","","","html-button-response","144","199437","0.0-144.0","B5D29EBAE5AE4BD2BDF49E859966C88D","019cfa5a-7ad4-7710-bd81-0314559cd7fa","019cfa3a-388e-72ab-ad58-bdeb258f96cd","","429","
                <div class=""stimulus-container"">
                    <img src=""images/causal_sequence/saving_a_cat_causal/saving_a_cat_causal_1.png"" class=""exp-image"">
                    <div class=""question-area"">
                        <p style=""font-size: 20px; font-weight: bold; margin: 0;"">Is there a person in this image?</p>
                    </div>
                </div>","0","main_experiment_trial","1","saving_a_cat_causal","causal_sequence","chronological","","","","","","",""
"","","","","","html-keyboard-response","145","200442","0.0-145.0","B5D29EBAE5AE4BD2BDF49E859966C88D","019cfa5a-7ad4-7710-bd81-0314559cd7fa","019cfa3a-388e-72ab-ad58-bdeb258f96cd","","null","
                <div class=""stimulus-container"">
                    <img src=""images/causal_sequence/saving_a_cat_causal/saving_a_cat_causal_2.png"" class=""exp-image"">
                    <div class=""question-area""></div> 
                </div>","null","","","","","","","","","","","",""
"","","","","","html-button-response","146","201571","0.0-146.0","B5D29EBAE5AE4BD2BDF49E859966C88D","019cfa5a-7ad4-7710-bd81-0314559cd7fa","019cfa3a-388e-72ab-ad58-bdeb258f96cd","","1127","
                <div class=""stimulus-container"">
                    <img src=""images/causal_sequence/saving_a_cat_causal/saving_a_cat_causal_2.png"" class=""exp-image"">
                    <div class=""question-area"">
                        <p style=""font-size: 20px; font-weight: bold; margin: 0;"">Is there a person in this image?</p>
                    </div>
                </div>","1","main_experiment_trial","2","saving_a_cat_causal","causal_sequence","chronological","","","","","","",""
"","","","","","html-keyboard-response","147","202577","0.0-147.0","B5D29EBAE5AE4BD2BDF49E859966C88D","019cfa5a-7ad4-7710-bd81-0314559cd7fa","019cfa3a-388e-72ab-ad58-bdeb258f96cd","","null","
                <div class=""stimulus-container"">
                    <img src=""images/causal_sequence/saving_a_cat_causal/saving_a_cat_causal_3.png"" class=""exp-image"">
                    <div class=""question-area""></div> 
                </div>","null","","","","","","","","","","","",""
"","","","","","html-button-response","148","203347","0.0-148.0","B5D29EBAE5AE4BD2BDF49E859966C88D","019cfa5a-7ad4-7710-bd81-0314559cd7fa","019cfa3a-388e-72ab-ad58-bdeb258f96cd","","770","
                <div class=""stimulus-container"">
                    <img src=""images/causal_sequence/saving_a_cat_causal/saving_a_cat_causal_3.png"" class=""exp-image"">
                    <div class=""question-area"">
                        <p style=""font-size: 20px; font-weight: bold; margin: 0;"">Is there a person in this image?</p>
                    </div>
                </div>","1","main_experiment_trial","3","saving_a_cat_causal","causal_sequence","chronological","","","","","","",""
"","","","","","html-keyboard-response","149","204351","0.0-149.0","B5D29EBAE5AE4BD2BDF49E859966C88D","019cfa5a-7ad4-7710-bd81-0314559cd7fa","019cfa3a-388e-72ab-ad58-bdeb258f96cd","","null","
                <div class=""stimulus-container"">
                    <img src=""images/causal_sequence/saving_a_cat_causal/saving_a_cat_causal_4.png"" class=""exp-image"">
                    <div class=""question-area""></div> 
                </div>","null","","","","","","","","","","","",""
"","","","","","html-button-response","150","205076","0.0-150.0","B5D29EBAE5AE4BD2BDF49E859966C88D","019cfa5a-7ad4-7710-bd81-0314559cd7fa","019cfa3a-388e-72ab-ad58-bdeb258f96cd","","725","
                <div class=""stimulus-container"">
                    <img src=""images/causal_sequence/saving_a_cat_causal/saving_a_cat_causal_4.png"" class=""exp-image"">
                    <div class=""question-area"">
                        <p style=""font-size: 20px; font-weight: bold; margin: 0;"">Is there a person in this image?</p>
                    </div>
                </div>","0","main_experiment_trial","4","saving_a_cat_causal","causal_sequence","chronological","","","","","","",""
"","","","","","html-keyboard-response","151","206087","0.0-151.0","B5D29EBAE5AE4BD2BDF49E859966C88D","019cfa5a-7ad4-7710-bd81-0314559cd7fa","019cfa3a-388e-72ab-ad58-bdeb258f96cd","","null","
                <div class=""stimulus-container"">
                    <img src=""images/causal_sequence/saving_a_cat_causal/saving_a_cat_causal_5.png"" class=""exp-image"">
                    <div class=""question-area""></div> 
                </div>","null","","","","","","","","","","","",""
"","","","","","html-button-response","152","206582","0.0-152.0","B5D29EBAE5AE4BD2BDF49E859966C88D","019cfa5a-7ad4-7710-bd81-0314559cd7fa","019cfa3a-388e-72ab-ad58-bdeb258f96cd","","494","
                <div class=""stimulus-container"">
                    <img src=""images/causal_sequence/saving_a_cat_causal/saving_a_cat_causal_5.png"" class=""exp-image"">
                    <div class=""question-area"">
                        <p style=""font-size: 20px; font-weight: bold; margin: 0;"">Is there a person in this image?</p>
                    </div>
                </div>","0","main_experiment_trial","5","saving_a_cat_causal","causal_sequence","chronological","","","","","","",""
"","","","","","html-keyboard-response","153","207590","0.0-153.0","B5D29EBAE5AE4BD2BDF49E859966C88D","019cfa5a-7ad4-7710-bd81-0314559cd7fa","019cfa3a-388e-72ab-ad58-bdeb258f96cd","","null","
                <div class=""stimulus-container"">
                    <img src=""images/causal_sequence/saving_a_cat_causal/saving_a_cat_causal_6.png"" class=""exp-image"">
                    <div class=""question-area""></div> 
                </div>","null","","","","","","","","","","","",""
"","","","","","html-button-response","154","207935","0.0-154.0","B5D29EBAE5AE4BD2BDF49E859966C88D","019cfa5a-7ad4-7710-bd81-0314559cd7fa","019cfa3a-388e-72ab-ad58-bdeb258f96cd","","344","
                <div class=""stimulus-container"">
                    <img src=""images/causal_sequence/saving_a_cat_causal/saving_a_cat_causal_6.png"" class=""exp-image"">
                    <div class=""question-area"">
                        <p style=""font-size: 20px; font-weight: bold; margin: 0;"">Is there a person in this image?</p>
                    </div>
                </div>","0","main_experiment_trial","6","saving_a_cat_causal","causal_sequence","chronological","","","","","","",""
"","","","","","html-keyboard-response","155","208951","0.0-155.0","B5D29EBAE5AE4BD2BDF49E859966C88D","019cfa5a-7ad4-7710-bd81-0314559cd7fa","019cfa3a-388e-72ab-ad58-bdeb258f96cd","","null","
                <div class=""stimulus-container"">
                    <img src=""images/causal_sequence/saving_a_cat_causal/saving_a_cat_causal_7.png"" class=""exp-image"">
                    <div class=""question-area""></div> 
                </div>","null","","","","","","","","","","","",""
"","","","","","html-button-response","156","209412","0.0-156.0","B5D29EBAE5AE4BD2BDF49E859966C88D","019cfa5a-7ad4-7710-bd81-0314559cd7fa","019cfa3a-388e-72ab-ad58-bdeb258f96cd","","460","
                <div class=""stimulus-container"">
                    <img src=""images/causal_sequence/saving_a_cat_causal/saving_a_cat_causal_7.png"" class=""exp-image"">
                    <div class=""question-area"">
                        <p style=""font-size: 20px; font-weight: bold; margin: 0;"">Is there a person in this image?</p>
                    </div>
                </div>","0","main_experiment_trial","7","saving_a_cat_causal","causal_sequence","chronological","","","","","","",""
"","","","","","html-keyboard-response","157","210422","0.0-157.0","B5D29EBAE5AE4BD2BDF49E859966C88D","019cfa5a-7ad4-7710-bd81-0314559cd7fa","019cfa3a-388e-72ab-ad58-bdeb258f96cd","","null","
                <div class=""stimulus-container"">
                    <img src=""images/causal_sequence/saving_a_cat_causal/saving_a_cat_causal_8.png"" class=""exp-image"">
                    <div class=""question-area""></div> 
                </div>","null","","","","","","","","","","","",""
"","","","","","html-button-response","158","210814","0.0-158.0","B5D29EBAE5AE4BD2BDF49E859966C88D","019cfa5a-7ad4-7710-bd81-0314559cd7fa","019cfa3a-388e-72ab-ad58-bdeb258f96cd","","391","
                <div class=""stimulus-container"">
                    <img src=""images/causal_sequence/saving_a_cat_causal/saving_a_cat_causal_8.png"" class=""exp-image"">
                    <div class=""question-area"">
                        <p style=""font-size: 20px; font-weight: bold; margin: 0;"">Is there a person in this image?</p>
                    </div>
                </div>","0","main_experiment_trial","8","saving_a_cat_causal","causal_sequence","chronological","","","","","","",""
"","","","","","html-keyboard-response","159","211820","0.0-159.0","B5D29EBAE5AE4BD2BDF49E859966C88D","019cfa5a-7ad4-7710-bd81-0314559cd7fa","019cfa3a-388e-72ab-ad58-bdeb258f96cd","","null","
                <div class=""stimulus-container"">
                    <img src=""images/causal_sequence/saving_a_cat_causal/saving_a_cat_causal_9.png"" class=""exp-image"">
                    <div class=""question-area""></div> 
                </div>","null","","","","","","","","","","","",""
"","","","","","html-button-response","160","212247","0.0-160.0","B5D29EBAE5AE4BD2BDF49E859966C88D","019cfa5a-7ad4-7710-bd81-0314559cd7fa","019cfa3a-388e-72ab-ad58-bdeb258f96cd","","427","
                <div class=""stimulus-container"">
                    <img src=""images/causal_sequence/saving_a_cat_causal/saving_a_cat_causal_9.png"" class=""exp-image"">
                    <div class=""question-area"">
                        <p style=""font-size: 20px; font-weight: bold; margin: 0;"">Is there a person in this image?</p>
                    </div>
                </div>","0","main_experiment_trial","9","saving_a_cat_causal","causal_sequence","chronological","","","","","","",""
"","","","","","html-keyboard-response","161","213250","0.0-161.0","B5D29EBAE5AE4BD2BDF49E859966C88D","019cfa5a-7ad4-7710-bd81-0314559cd7fa","019cfa3a-388e-72ab-ad58-bdeb258f96cd","","null","
                <div class=""stimulus-container"">
                    <img src=""images/causal_sequence/saving_a_cat_causal/saving_a_cat_causal_ten.png"" class=""exp-image"">
                    <div class=""question-area""></div> 
                </div>","null","","","","","","","","","","","",""
"","","","","","html-button-response","162","213639","0.0-162.0","B5D29EBAE5AE4BD2BDF49E859966C88D","019cfa5a-7ad4-7710-bd81-0314559cd7fa","019cfa3a-388e-72ab-ad58-bdeb258f96cd","","387","
                <div class=""stimulus-container"">
                    <img src=""images/causal_sequence/saving_a_cat_causal/saving_a_cat_causal_ten.png"" class=""exp-image"">
                    <div class=""question-area"">
                        <p style=""font-size: 20px; font-weight: bold; margin: 0;"">Is there a person in this image?</p>
                    </div>
                </div>","0","main_experiment_trial","ten","saving_a_cat_causal","causal_sequence","chronological","","","","","","",""
"","","","","","html-keyboard-response","163","218642","0.0-163.0","B5D29EBAE5AE4BD2BDF49E859966C88D","019cfa5a-7ad4-7710-bd81-0314559cd7fa","019cfa3a-388e-72ab-ad58-bdeb258f96cd","","null","<div style=""background-color: white; width: 100vw; height: 100vh;""></div>","null","","","","","","","","","","","",""
"","","","","","html-keyboard-response","164","219644","0.0-164.0","B5D29EBAE5AE4BD2BDF49E859966C88D","019cfa5a-7ad4-7710-bd81-0314559cd7fa","019cfa3a-388e-72ab-ad58-bdeb258f96cd","","null","
                <div class=""stimulus-container"">
                    <img src=""images/semantic_sequence/exploring_nature_semantic/exploring_nature_semantic_1.png"" class=""exp-image"">
                    <div class=""question-area""></div> 
                </div>","null","","","","","","","","","","","",""
"","","","","","html-button-response","165","220656","0.0-165.0","B5D29EBAE5AE4BD2BDF49E859966C88D","019cfa5a-7ad4-7710-bd81-0314559cd7fa","019cfa3a-388e-72ab-ad58-bdeb258f96cd","","1011","
                <div class=""stimulus-container"">
                    <img src=""images/semantic_sequence/exploring_nature_semantic/exploring_nature_semantic_1.png"" class=""exp-image"">
                    <div class=""question-area"">
                        <p style=""font-size: 20px; font-weight: bold; margin: 0;"">Is there a person in this image?</p>
                    </div>
                </div>","0","main_experiment_trial","1","exploring_nature_semantic","semantic_sequence","chronological","","","","","","",""
"","","","","","html-keyboard-response","166","221667","0.0-166.0","B5D29EBAE5AE4BD2BDF49E859966C88D","019cfa5a-7ad4-7710-bd81-0314559cd7fa","019cfa3a-388e-72ab-ad58-bdeb258f96cd","","null","
                <div class=""stimulus-container"">
                    <img src=""images/semantic_sequence/exploring_nature_semantic/exploring_nature_semantic_2.png"" class=""exp-image"">
                    <div class=""question-area""></div> 
                </div>","null","","","","","","","","","","","",""
"","","","","","html-button-response","167","222022","0.0-167.0","B5D29EBAE5AE4BD2BDF49E859966C88D","019cfa5a-7ad4-7710-bd81-0314559cd7fa","019cfa3a-388e-72ab-ad58-bdeb258f96cd","","354","
                <div class=""stimulus-container"">
                    <img src=""images/semantic_sequence/exploring_nature_semantic/exploring_nature_semantic_2.png"" class=""exp-image"">
                    <div class=""question-area"">
                        <p style=""font-size: 20px; font-weight: bold; margin: 0;"">Is there a person in this image?</p>
                    </div>
                </div>","0","main_experiment_trial","2","exploring_nature_semantic","semantic_sequence","chronological","","","","","","",""
"","","","","","html-keyboard-response","168","223029","0.0-168.0","B5D29EBAE5AE4BD2BDF49E859966C88D","019cfa5a-7ad4-7710-bd81-0314559cd7fa","019cfa3a-388e-72ab-ad58-bdeb258f96cd","","null","
                <div class=""stimulus-container"">
                    <img src=""images/semantic_sequence/exploring_nature_semantic/exploring_nature_semantic_3.png"" class=""exp-image"">
                    <div class=""question-area""></div> 
                </div>","null","","","","","","","","","","","",""
"","","","","","html-button-response","169","223364","0.0-169.0","B5D29EBAE5AE4BD2BDF49E859966C88D","019cfa5a-7ad4-7710-bd81-0314559cd7fa","019cfa3a-388e-72ab-ad58-bdeb258f96cd","","334","
                <div class=""stimulus-container"">
                    <img src=""images/semantic_sequence/exploring_nature_semantic/exploring_nature_semantic_3.png"" class=""exp-image"">
                    <div class=""question-area"">
                        <p style=""font-size: 20px; font-weight: bold; margin: 0;"">Is there a person in this image?</p>
                    </div>
                </div>","0","main_experiment_trial","3","exploring_nature_semantic","semantic_sequence","chronological","","","","","","",""
"","","","","","html-keyboard-response","170","224379","0.0-170.0","B5D29EBAE5AE4BD2BDF49E859966C88D","019cfa5a-7ad4-7710-bd81-0314559cd7fa","019cfa3a-388e-72ab-ad58-bdeb258f96cd","","null","
                <div class=""stimulus-container"">
                    <img src=""images/semantic_sequence/exploring_nature_semantic/exploring_nature_semantic_4.png"" class=""exp-image"">
                    <div class=""question-area""></div> 
                </div>","null","","","","","","","","","","","",""
"","","","","","html-button-response","171","224685","0.0-171.0","B5D29EBAE5AE4BD2BDF49E859966C88D","019cfa5a-7ad4-7710-bd81-0314559cd7fa","019cfa3a-388e-72ab-ad58-bdeb258f96cd","","305","
                <div class=""stimulus-container"">
                    <img src=""images/semantic_sequence/exploring_nature_semantic/exploring_nature_semantic_4.png"" class=""exp-image"">
                    <div class=""question-area"">
                        <p style=""font-size: 20px; font-weight: bold; margin: 0;"">Is there a person in this image?</p>
                    </div>
                </div>","0","main_experiment_trial","4","exploring_nature_semantic","semantic_sequence","chronological","","","","","","",""
"","","","","","html-keyboard-response","172","225692","0.0-172.0","B5D29EBAE5AE4BD2BDF49E859966C88D","019cfa5a-7ad4-7710-bd81-0314559cd7fa","019cfa3a-388e-72ab-ad58-bdeb258f96cd","","null","
                <div class=""stimulus-container"">
                    <img src=""images/semantic_sequence/exploring_nature_semantic/exploring_nature_semantic_5.png"" class=""exp-image"">
                    <div class=""question-area""></div> 
                </div>","null","","","","","","","","","","","",""
"","","","","","html-button-response","173","226446","0.0-173.0","B5D29EBAE5AE4BD2BDF49E859966C88D","019cfa5a-7ad4-7710-bd81-0314559cd7fa","019cfa3a-388e-72ab-ad58-bdeb258f96cd","","754","
                <div class=""stimulus-container"">
                    <img src=""images/semantic_sequence/exploring_nature_semantic/exploring_nature_semantic_5.png"" class=""exp-image"">
                    <div class=""question-area"">
                        <p style=""font-size: 20px; font-weight: bold; margin: 0;"">Is there a person in this image?</p>
                    </div>
                </div>","0","main_experiment_trial","5","exploring_nature_semantic","semantic_sequence","chronological","","","","","","",""
"","","","","","html-keyboard-response","174","227453","0.0-174.0","B5D29EBAE5AE4BD2BDF49E859966C88D","019cfa5a-7ad4-7710-bd81-0314559cd7fa","019cfa3a-388e-72ab-ad58-bdeb258f96cd","","null","
                <div class=""stimulus-container"">
                    <img src=""images/semantic_sequence/exploring_nature_semantic/exploring_nature_semantic_6.png"" class=""exp-image"">
                    <div class=""question-area""></div> 
                </div>","null","","","","","","","","","","","",""
"","","","","","html-button-response","175","227809","0.0-175.0","B5D29EBAE5AE4BD2BDF49E859966C88D","019cfa5a-7ad4-7710-bd81-0314559cd7fa","019cfa3a-388e-72ab-ad58-bdeb258f96cd","","354","
                <div class=""stimulus-container"">
                    <img src=""images/semantic_sequence/exploring_nature_semantic/exploring_nature_semantic_6.png"" class=""exp-image"">
                    <div class=""question-area"">
                        <p style=""font-size: 20px; font-weight: bold; margin: 0;"">Is there a person in this image?</p>
                    </div>
                </div>","0","main_experiment_trial","6","exploring_nature_semantic","semantic_sequence","chronological","","","","","","",""
"","","","","","html-keyboard-response","176","228811","0.0-176.0","B5D29EBAE5AE4BD2BDF49E859966C88D","019cfa5a-7ad4-7710-bd81-0314559cd7fa","019cfa3a-388e-72ab-ad58-bdeb258f96cd","","null","
                <div class=""stimulus-container"">
                    <img src=""images/semantic_sequence/exploring_nature_semantic/exploring_nature_semantic_7.png"" class=""exp-image"">
                    <div class=""question-area""></div> 
                </div>","null","","","","","","","","","","","",""
"","","","","","html-button-response","177","229208","0.0-177.0","B5D29EBAE5AE4BD2BDF49E859966C88D","019cfa5a-7ad4-7710-bd81-0314559cd7fa","019cfa3a-388e-72ab-ad58-bdeb258f96cd","","396","
