"success","timeout","failed_images","failed_audio","failed_video","trial_type","trial_index","time_elapsed","internal_node_id","subject_id","study_id","session_id","view_history","rt","stimulus","response","task","image_index","folder","sequence_type","valuable_image_index","reward_type","chosen_image_index","target_X","correct_choice"
"true","false","[]","[]","[]","preload","0","159529","0.0-0.0","CD73943BC63040AC9182FBC0C2DD7D2C","019cf548-4940-785f-92fd-17adfa904e0d","019cf509-e3f1-72d9-bf6b-e2f1118fdaab","","","","","","","","","","","","",""
"","","","","","instructions","1","179965","0.0-1.0","CD73943BC63040AC9182FBC0C2DD7D2C","019cf548-4940-785f-92fd-17adfa904e0d","019cf509-e3f1-72d9-bf6b-e2f1118fdaab","[{""page_index"":0,""viewing_time"":20434}]","20434","","","","","","","","","","",""
"","","","","","instructions","2","234439","0.0-2.0","CD73943BC63040AC9182FBC0C2DD7D2C","019cf548-4940-785f-92fd-17adfa904e0d","019cf509-e3f1-72d9-bf6b-e2f1118fdaab","[{""page_index"":0,""viewing_time"":54473}]","54473","","","","","","","","","","",""
"true","","","","","fullscreen","3","238419","0.0-3.0","CD73943BC63040AC9182FBC0C2DD7D2C","019cf548-4940-785f-92fd-17adfa904e0d","019cf509-e3f1-72d9-bf6b-e2f1118fdaab","","2964","","","","","","","","","","",""
"","","","","","instructions","4","256439","0.0-4.0","CD73943BC63040AC9182FBC0C2DD7D2C","019cf548-4940-785f-92fd-17adfa904e0d","019cf509-e3f1-72d9-bf6b-e2f1118fdaab","[{""page_index"":0,""viewing_time"":18018}]","18018","","","","","","","","","","",""
"","","","","","instructions","5","269711","0.0-5.0","CD73943BC63040AC9182FBC0C2DD7D2C","019cf548-4940-785f-92fd-17adfa904e0d","019cf509-e3f1-72d9-bf6b-e2f1118fdaab","[{""page_index"":0,""viewing_time"":13270}]","13271","","","","","","","","","","",""
"","","","","","html-keyboard-response","6","273715","0.0-6.0","CD73943BC63040AC9182FBC0C2DD7D2C","019cf548-4940-785f-92fd-17adfa904e0d","019cf509-e3f1-72d9-bf6b-e2f1118fdaab","","null","
                <div class=""stimulus-container"">
                    <img src=""images/instructions/movie_1.png"" class=""exp-image"">
                    <div class=""question-area""></div> 
                </div>","null","","","","","","","","",""
"","","","","","html-button-response","7","276731","0.0-7.0","CD73943BC63040AC9182FBC0C2DD7D2C","019cf548-4940-785f-92fd-17adfa904e0d","019cf509-e3f1-72d9-bf6b-e2f1118fdaab","","null","
                <div class=""stimulus-container"">
                    <img src=""images/instructions/movie_1.png"" class=""exp-image"">
                    <div class=""question-area"">
                        <p style=""font-size: 20px; font-weight: bold; margin: 0;"">Was there a person in this image?</p>
                    </div>
                </div>","null","example_question","1","","","","","","",""
"","","","","","html-keyboard-response","8","280747","0.0-8.0","CD73943BC63040AC9182FBC0C2DD7D2C","019cf548-4940-785f-92fd-17adfa904e0d","019cf509-e3f1-72d9-bf6b-e2f1118fdaab","","null","
                <div class=""stimulus-container"">
                    <img src=""images/instructions/movie_2.png"" class=""exp-image"">
                    <div class=""question-area""></div> 
                </div>","null","","","","","","","","",""
"","","","","","html-button-response","9","283096","0.0-9.0","CD73943BC63040AC9182FBC0C2DD7D2C","019cf548-4940-785f-92fd-17adfa904e0d","019cf509-e3f1-72d9-bf6b-e2f1118fdaab","","2346","
                <div class=""stimulus-container"">
                    <img src=""images/instructions/movie_2.png"" class=""exp-image"">
                    <div class=""question-area"">
                        <p style=""font-size: 20px; font-weight: bold; margin: 0;"">Was there a person in this image?</p>
                    </div>
                </div>","1","example_question","2","","","","","","",""
"","","","","","html-keyboard-response","10","287100","0.0-10.0","CD73943BC63040AC9182FBC0C2DD7D2C","019cf548-4940-785f-92fd-17adfa904e0d","019cf509-e3f1-72d9-bf6b-e2f1118fdaab","","null","
                <div class=""stimulus-container"">
                    <img src=""images/instructions/movie_3.png"" class=""exp-image"">
                    <div class=""question-area""></div> 
                </div>","null","","","","","","","","",""
"","","","","","html-button-response","11","288708","0.0-11.0","CD73943BC63040AC9182FBC0C2DD7D2C","019cf548-4940-785f-92fd-17adfa904e0d","019cf509-e3f1-72d9-bf6b-e2f1118fdaab","","1606","
                <div class=""stimulus-container"">
                    <img src=""images/instructions/movie_3.png"" class=""exp-image"">
                    <div class=""question-area"">
                        <p style=""font-size: 20px; font-weight: bold; margin: 0;"">Was there a person in this image?</p>
                    </div>
                </div>","0","example_question","3","","","","","","",""
"","","","","","html-keyboard-response","12","292715","0.0-12.0","CD73943BC63040AC9182FBC0C2DD7D2C","019cf548-4940-785f-92fd-17adfa904e0d","019cf509-e3f1-72d9-bf6b-e2f1118fdaab","","null","
                <div class=""stimulus-container"">
                    <img src=""images/instructions/movie_4.png"" class=""exp-image"">
                    <div class=""question-area""></div> 
                </div>","null","","","","","","","","",""
"","","","","","html-button-response","13","293954","0.0-13.0","CD73943BC63040AC9182FBC0C2DD7D2C","019cf548-4940-785f-92fd-17adfa904e0d","019cf509-e3f1-72d9-bf6b-e2f1118fdaab","","1237","
                <div class=""stimulus-container"">
                    <img src=""images/instructions/movie_4.png"" class=""exp-image"">
                    <div class=""question-area"">
                        <p style=""font-size: 20px; font-weight: bold; margin: 0;"">Was there a person in this image?</p>
                    </div>
                </div>","0","example_question","4","","","","","","",""
"","","","","","instructions","14","296746","0.0-14.0","CD73943BC63040AC9182FBC0C2DD7D2C","019cf548-4940-785f-92fd-17adfa904e0d","019cf509-e3f1-72d9-bf6b-e2f1118fdaab","[{""page_index"":0,""viewing_time"":2791}]","2791","","","","","","","","","","",""
"","","","","","instructions","15","305019","0.0-15.0","CD73943BC63040AC9182FBC0C2DD7D2C","019cf548-4940-785f-92fd-17adfa904e0d","019cf509-e3f1-72d9-bf6b-e2f1118fdaab","[{""page_index"":0,""viewing_time"":8271}]","8272","","","","","","","","","","",""
"","","","","","html-keyboard-response","16","306029","0.0-16.0","CD73943BC63040AC9182FBC0C2DD7D2C","019cf548-4940-785f-92fd-17adfa904e0d","019cf509-e3f1-72d9-bf6b-e2f1118fdaab","","null","<div style=""background-color: white; width: 100vw; height: 100vh;""></div>","null","","","","","","","","",""
"","","","","","html-keyboard-response","17","311042","0.0-17.0","CD73943BC63040AC9182FBC0C2DD7D2C","019cf548-4940-785f-92fd-17adfa904e0d","019cf509-e3f1-72d9-bf6b-e2f1118fdaab","","null","
                <div class=""stimulus-container"">
                    <img src=""images/causal_sequence/museum_causal/museum_causal_1.png"" class=""exp-image"">
                    <div class=""question-area""></div> 
                </div>","null","","","","","","","","",""
"","","","","","html-button-response","18","312489","0.0-18.0","CD73943BC63040AC9182FBC0C2DD7D2C","019cf548-4940-785f-92fd-17adfa904e0d","019cf509-e3f1-72d9-bf6b-e2f1118fdaab","","1445","
                <div class=""stimulus-container"">
                    <img src=""images/causal_sequence/museum_causal/museum_causal_1.png"" class=""exp-image"">
                    <div class=""question-area"">
                        <p style=""font-size: 20px; font-weight: bold; margin: 0;"">Is there a person in this image?</p>
                    </div>
                </div>","0","main_experiment_trial","1","museum_causal","causal_sequence","","","","",""
"","","","","","html-keyboard-response","19","317495","0.0-19.0","CD73943BC63040AC9182FBC0C2DD7D2C","019cf548-4940-785f-92fd-17adfa904e0d","019cf509-e3f1-72d9-bf6b-e2f1118fdaab","","null","
                <div class=""stimulus-container"">
                    <img src=""images/causal_sequence/museum_causal/museum_causal_2.png"" class=""exp-image"">
                    <div class=""question-area""></div> 
                </div>","null","","","","","","","","",""
"","","","","","html-button-response","20","318585","0.0-20.0","CD73943BC63040AC9182FBC0C2DD7D2C","019cf548-4940-785f-92fd-17adfa904e0d","019cf509-e3f1-72d9-bf6b-e2f1118fdaab","","1088","
                <div class=""stimulus-container"">
                    <img src=""images/causal_sequence/museum_causal/museum_causal_2.png"" class=""exp-image"">
                    <div class=""question-area"">
                        <p style=""font-size: 20px; font-weight: bold; margin: 0;"">Is there a person in this image?</p>
                    </div>
                </div>","0","main_experiment_trial","2","museum_causal","causal_sequence","","","","",""
"","","","","","html-keyboard-response","21","323600","0.0-21.0","CD73943BC63040AC9182FBC0C2DD7D2C","019cf548-4940-785f-92fd-17adfa904e0d","019cf509-e3f1-72d9-bf6b-e2f1118fdaab","","null","
                <div class=""stimulus-container"">
                    <img src=""images/causal_sequence/museum_causal/museum_causal_3.png"" class=""exp-image"">
                    <div class=""question-area""></div> 
                </div>","null","","","","","","","","",""
"","","","","","html-button-response","22","325322","0.0-22.0","CD73943BC63040AC9182FBC0C2DD7D2C","019cf548-4940-785f-92fd-17adfa904e0d","019cf509-e3f1-72d9-bf6b-e2f1118fdaab","","1719","
                <div class=""stimulus-container"">
                    <img src=""images/causal_sequence/museum_causal/museum_causal_3.png"" class=""exp-image"">
                    <div class=""question-area"">
                        <p style=""font-size: 20px; font-weight: bold; margin: 0;"">Is there a person in this image?</p>
                    </div>
                </div>","1","main_experiment_trial","3","museum_causal","causal_sequence","","","","",""
"","","","","","html-keyboard-response","23","330324","0.0-23.0","CD73943BC63040AC9182FBC0C2DD7D2C","019cf548-4940-785f-92fd-17adfa904e0d","019cf509-e3f1-72d9-bf6b-e2f1118fdaab","","null","
                <div class=""stimulus-container"">
                    <img src=""images/causal_sequence/museum_causal/museum_causal_4.png"" class=""exp-image"">
                    <div class=""question-area""></div> 
                </div>","null","","","","","","","","",""
"","","","","","html-button-response","24","331832","0.0-24.0","CD73943BC63040AC9182FBC0C2DD7D2C","019cf548-4940-785f-92fd-17adfa904e0d","019cf509-e3f1-72d9-bf6b-e2f1118fdaab","","1505","
                <div class=""stimulus-container"">
                    <img src=""images/causal_sequence/museum_causal/museum_causal_4.png"" class=""exp-image"">
                    <div class=""question-area"">
                        <p style=""font-size: 20px; font-weight: bold; margin: 0;"">Is there a person in this image?</p>
                    </div>
                </div>","1","main_experiment_trial","4","museum_causal","causal_sequence","","","","",""
"","","","","","html-keyboard-response","25","336840","0.0-25.0","CD73943BC63040AC9182FBC0C2DD7D2C","019cf548-4940-785f-92fd-17adfa904e0d","019cf509-e3f1-72d9-bf6b-e2f1118fdaab","","null","
                <div class=""stimulus-container"">
                    <img src=""images/causal_sequence/museum_causal/museum_causal_5.png"" class=""exp-image"">
                    <div class=""question-area""></div> 
                </div>","null","","","","","","","","",""
"","","","","","html-button-response","26","337900","0.0-26.0","CD73943BC63040AC9182FBC0C2DD7D2C","019cf548-4940-785f-92fd-17adfa904e0d","019cf509-e3f1-72d9-bf6b-e2f1118fdaab","","1059","
                <div class=""stimulus-container"">
                    <img src=""images/causal_sequence/museum_causal/museum_causal_5.png"" class=""exp-image"">
                    <div class=""question-area"">
                        <p style=""font-size: 20px; font-weight: bold; margin: 0;"">Is there a person in this image?</p>
                    </div>
                </div>","0","main_experiment_trial","5","museum_causal","causal_sequence","","","","",""
"","","","","","html-keyboard-response","27","342913","0.0-27.0","CD73943BC63040AC9182FBC0C2DD7D2C","019cf548-4940-785f-92fd-17adfa904e0d","019cf509-e3f1-72d9-bf6b-e2f1118fdaab","","null","
                <div class=""stimulus-container"">
                    <img src=""images/causal_sequence/museum_causal/museum_causal_6.png"" class=""exp-image"">
                    <div class=""question-area""></div> 
                </div>","null","","","","","","","","",""
"","","","","","html-button-response","28","344246","0.0-28.0","CD73943BC63040AC9182FBC0C2DD7D2C","019cf548-4940-785f-92fd-17adfa904e0d","019cf509-e3f1-72d9-bf6b-e2f1118fdaab","","1331","
                <div class=""stimulus-container"">
                    <img src=""images/causal_sequence/museum_causal/museum_causal_6.png"" class=""exp-image"">
                    <div class=""question-area"">
                        <p style=""font-size: 20px; font-weight: bold; margin: 0;"">Is there a person in this image?</p>
                    </div>
                </div>","0","main_experiment_trial","6","museum_causal","causal_sequence","","","","",""
"","","","","","html-keyboard-response","29","349262","0.0-29.0","CD73943BC63040AC9182FBC0C2DD7D2C","019cf548-4940-785f-92fd-17adfa904e0d","019cf509-e3f1-72d9-bf6b-e2f1118fdaab","","null","
                <div class=""stimulus-container"">
                    <img src=""images/causal_sequence/museum_causal/museum_causal_7.png"" class=""exp-image"">
                    <div class=""question-area""></div> 
                </div>","null","","","","","","","","",""
"","","","","","html-button-response","30","350661","0.0-30.0","CD73943BC63040AC9182FBC0C2DD7D2C","019cf548-4940-785f-92fd-17adfa904e0d","019cf509-e3f1-72d9-bf6b-e2f1118fdaab","","1398","
                <div class=""stimulus-container"">
                    <img src=""images/causal_sequence/museum_causal/museum_causal_7.png"" class=""exp-image"">
                    <div class=""question-area"">
                        <p style=""font-size: 20px; font-weight: bold; margin: 0;"">Is there a person in this image?</p>
                    </div>
                </div>","1","main_experiment_trial","7","museum_causal","causal_sequence","","","","",""
"","","","","","html-keyboard-response","31","355669","0.0-31.0","CD73943BC63040AC9182FBC0C2DD7D2C","019cf548-4940-785f-92fd-17adfa904e0d","019cf509-e3f1-72d9-bf6b-e2f1118fdaab","","null","
                <div class=""stimulus-container"">
                    <img src=""images/causal_sequence/museum_causal/museum_causal_8.png"" class=""exp-image"">
                    <div class=""question-area""></div> 
                </div>","null","","","","","","","","",""
"","","","","","html-button-response","32","357203","0.0-32.0","CD73943BC63040AC9182FBC0C2DD7D2C","019cf548-4940-785f-92fd-17adfa904e0d","019cf509-e3f1-72d9-bf6b-e2f1118fdaab","","1532","
                <div class=""stimulus-container"">
                    <img src=""images/causal_sequence/museum_causal/museum_causal_8.png"" class=""exp-image"">
                    <div class=""question-area"">
                        <p style=""font-size: 20px; font-weight: bold; margin: 0;"">Is there a person in this image?</p>
                    </div>
                </div>","0","main_experiment_trial","8","museum_causal","causal_sequence","","","","",""
"","","","","","html-keyboard-response","33","362214","0.0-33.0","CD73943BC63040AC9182FBC0C2DD7D2C","019cf548-4940-785f-92fd-17adfa904e0d","019cf509-e3f1-72d9-bf6b-e2f1118fdaab","","null","
                <div class=""stimulus-container"">
                    <img src=""images/causal_sequence/museum_causal/museum_causal_9.png"" class=""exp-image"">
                    <div class=""question-area""></div> 
                </div>","null","","","","","","","","",""
"","","","","","html-button-response","34","363636","0.0-34.0","CD73943BC63040AC9182FBC0C2DD7D2C","019cf548-4940-785f-92fd-17adfa904e0d","019cf509-e3f1-72d9-bf6b-e2f1118fdaab","","1420","
                <div class=""stimulus-container"">
                    <img src=""images/causal_sequence/museum_causal/museum_causal_9.png"" class=""exp-image"">
                    <div class=""question-area"">
                        <p style=""font-size: 20px; font-weight: bold; margin: 0;"">Is there a person in this image?</p>
                    </div>
                </div>","1","main_experiment_trial","9","museum_causal","causal_sequence","","","","",""
"","","","","","html-keyboard-response","35","368652","0.0-35.0","CD73943BC63040AC9182FBC0C2DD7D2C","019cf548-4940-785f-92fd-17adfa904e0d","019cf509-e3f1-72d9-bf6b-e2f1118fdaab","","null","
                <div class=""stimulus-container"">
                    <img src=""images/causal_sequence/museum_causal/museum_causal_ten.png"" class=""exp-image"">
                    <div class=""question-area""></div> 
                </div>","null","","","","","","","","",""
"","","","","","html-button-response","36","369953","0.0-36.0","CD73943BC63040AC9182FBC0C2DD7D2C","019cf548-4940-785f-92fd-17adfa904e0d","019cf509-e3f1-72d9-bf6b-e2f1118fdaab","","1299","
                <div class=""stimulus-container"">
                    <img src=""images/causal_sequence/museum_causal/museum_causal_ten.png"" class=""exp-image"">
                    <div class=""question-area"">
                        <p style=""font-size: 20px; font-weight: bold; margin: 0;"">Is there a person in this image?</p>
                    </div>
                </div>","0","main_experiment_trial","ten","museum_causal","causal_sequence","","","","",""
"","","","","","html-keyboard-response","37","370965","0.0-37.0","CD73943BC63040AC9182FBC0C2DD7D2C","019cf548-4940-785f-92fd-17adfa904e0d","019cf509-e3f1-72d9-bf6b-e2f1118fdaab","","null","<div style=""background-color: white; width: 100vw; height: 100vh;""></div>","null","","","","","","","","",""
"","","","","","html-keyboard-response","38","375967","0.0-38.0","CD73943BC63040AC9182FBC0C2DD7D2C","019cf548-4940-785f-92fd-17adfa904e0d","019cf509-e3f1-72d9-bf6b-e2f1118fdaab","","null","
                <div class=""stimulus-container"">
                    <img src=""images/schematic_sequence/flight_scheme/flight_scheme_1.png"" class=""exp-image"">
                    <div class=""question-area""></div> 
                </div>","null","","","","","","","","",""
"","","","","","html-button-response","39","376853","0.0-39.0","CD73943BC63040AC9182FBC0C2DD7D2C","019cf548-4940-785f-92fd-17adfa904e0d","019cf509-e3f1-72d9-bf6b-e2f1118fdaab","","884","
                <div class=""stimulus-container"">
                    <img src=""images/schematic_sequence/flight_scheme/flight_scheme_1.png"" class=""exp-image"">
                    <div class=""question-area"">
                        <p style=""font-size: 20px; font-weight: bold; margin: 0;"">Is there a person in this image?</p>
                    </div>
                </div>","0","main_experiment_trial","1","flight_scheme","schematic_sequence","","","","",""
"","","","","","html-keyboard-response","40","381860","0.0-40.0","CD73943BC63040AC9182FBC0C2DD7D2C","019cf548-4940-785f-92fd-17adfa904e0d","019cf509-e3f1-72d9-bf6b-e2f1118fdaab","","null","
                <div class=""stimulus-container"">
                    <img src=""images/schematic_sequence/flight_scheme/flight_scheme_2.png"" class=""exp-image"">
                    <div class=""question-area""></div> 
                </div>","null","","","","","","","","",""
"","","","","","html-button-response","41","383267","0.0-41.0","CD73943BC63040AC9182FBC0C2DD7D2C","019cf548-4940-785f-92fd-17adfa904e0d","019cf509-e3f1-72d9-bf6b-e2f1118fdaab","","1406","
                <div class=""stimulus-container"">
                    <img src=""images/schematic_sequence/flight_scheme/flight_scheme_2.png"" class=""exp-image"">
                    <div class=""question-area"">
                        <p style=""font-size: 20px; font-weight: bold; margin: 0;"">Is there a person in this image?</p>
                    </div>
                </div>","1","main_experiment_trial","2","flight_scheme","schematic_sequence","","","","",""
"","","","","","html-keyboard-response","42","388278","0.0-42.0","CD73943BC63040AC9182FBC0C2DD7D2C","019cf548-4940-785f-92fd-17adfa904e0d","019cf509-e3f1-72d9-bf6b-e2f1118fdaab","","null","
                <div class=""stimulus-container"">
                    <img src=""images/schematic_sequence/flight_scheme/flight_scheme_3.png"" class=""exp-image"">
                    <div class=""question-area""></div> 
                </div>","null","","","","","","","","",""
"","","","","","html-button-response","43","389748","0.0-43.0","CD73943BC63040AC9182FBC0C2DD7D2C","019cf548-4940-785f-92fd-17adfa904e0d","019cf509-e3f1-72d9-bf6b-e2f1118fdaab","","1468","
                <div class=""stimulus-container"">
                    <img src=""images/schematic_sequence/flight_scheme/flight_scheme_3.png"" class=""exp-image"">
                    <div class=""question-area"">
                        <p style=""font-size: 20px; font-weight: bold; margin: 0;"">Is there a person in this image?</p>
                    </div>
                </div>","0","main_experiment_trial","3","flight_scheme","schematic_sequence","","","","",""
"","","","","","html-keyboard-response","44","394757","0.0-44.0","CD73943BC63040AC9182FBC0C2DD7D2C","019cf548-4940-785f-92fd-17adfa904e0d","019cf509-e3f1-72d9-bf6b-e2f1118fdaab","","null","
                <div class=""stimulus-container"">
                    <img src=""images/schematic_sequence/flight_scheme/flight_scheme_4.png"" class=""exp-image"">
                    <div class=""question-area""></div> 
                </div>","null","","","","","","","","",""
"","","","","","html-button-response","45","396017","0.0-45.0","CD73943BC63040AC9182FBC0C2DD7D2C","019cf548-4940-785f-92fd-17adfa904e0d","019cf509-e3f1-72d9-bf6b-e2f1118fdaab","","1258","
                <div class=""stimulus-container"">
                    <img src=""images/schematic_sequence/flight_scheme/flight_scheme_4.png"" class=""exp-image"">
                    <div class=""question-area"">
                        <p style=""font-size: 20px; font-weight: bold; margin: 0;"">Is there a person in this image?</p>
                    </div>
                </div>","0","main_experiment_trial","4","flight_scheme","schematic_sequence","","","","",""
"","","","","","html-keyboard-response","46","401028","0.0-46.0","CD73943BC63040AC9182FBC0C2DD7D2C","019cf548-4940-785f-92fd-17adfa904e0d","019cf509-e3f1-72d9-bf6b-e2f1118fdaab","","null","
                <div class=""stimulus-container"">
                    <img src=""images/schematic_sequence/flight_scheme/flight_scheme_5.png"" class=""exp-image"">
                    <div class=""question-area""></div> 
                </div>","null","","","","","","","","",""
"","","","","","html-button-response","47","403516","0.0-47.0","CD73943BC63040AC9182FBC0C2DD7D2C","019cf548-4940-785f-92fd-17adfa904e0d","019cf509-e3f1-72d9-bf6b-e2f1118fdaab","","2485","
                <div class=""stimulus-container"">
                    <img src=""images/schematic_sequence/flight_scheme/flight_scheme_5.png"" class=""exp-image"">
                    <div class=""question-area"">
                        <p style=""font-size: 20px; font-weight: bold; margin: 0;"">Is there a person in this image?</p>
                    </div>
                </div>","0","main_experiment_trial","5","flight_scheme","schematic_sequence","","","","",""
"","","","","","html-keyboard-response","48","408528","0.0-48.0","CD73943BC63040AC9182FBC0C2DD7D2C","019cf548-4940-785f-92fd-17adfa904e0d","019cf509-e3f1-72d9-bf6b-e2f1118fdaab","","null","
                <div class=""stimulus-container"">
                    <img src=""images/schematic_sequence/flight_scheme/flight_scheme_6.png"" class=""exp-image"">
                    <div class=""question-area""></div> 
                </div>","null","","","","","","","","",""
"","","","","","html-button-response","49","411237","0.0-49.0","CD73943BC63040AC9182FBC0C2DD7D2C","019cf548-4940-785f-92fd-17adfa904e0d","019cf509-e3f1-72d9-bf6b-e2f1118fdaab","","2707","
                <div class=""stimulus-container"">
                    <img src=""images/schematic_sequence/flight_scheme/flight_scheme_6.png"" class=""exp-image"">
                    <div class=""question-area"">
                        <p style=""font-size: 20px; font-weight: bold; margin: 0;"">Is there a person in this image?</p>
                    </div>
                </div>","1","main_experiment_trial","6","flight_scheme","schematic_sequence","","","","",""
"","","","","","html-keyboard-response","50","416246","0.0-50.0","CD73943BC63040AC9182FBC0C2DD7D2C","019cf548-4940-785f-92fd-17adfa904e0d","019cf509-e3f1-72d9-bf6b-e2f1118fdaab","","null","
                <div class=""stimulus-container"">
                    <img src=""images/schematic_sequence/flight_scheme/flight_scheme_7.png"" class=""exp-image"">
                    <div class=""question-area""></div> 
                </div>","null","","","","","","","","",""
"","","","","","html-button-response","51","418341","0.0-51.0","CD73943BC63040AC9182FBC0C2DD7D2C","019cf548-4940-785f-92fd-17adfa904e0d","019cf509-e3f1-72d9-bf6b-e2f1118fdaab","","2092","
                <div class=""stimulus-container"">
                    <img src=""images/schematic_sequence/flight_scheme/flight_scheme_7.png"" class=""exp-image"">
                    <div class=""question-area"">
                        <p style=""font-size: 20px; font-weight: bold; margin: 0;"">Is there a person in this image?</p>
                    </div>
                </div>","1","main_experiment_trial","7","flight_scheme","schematic_sequence","","","","",""
"","","","","","html-keyboard-response","52","423344","0.0-52.0","CD73943BC63040AC9182FBC0C2DD7D2C","019cf548-4940-785f-92fd-17adfa904e0d","019cf509-e3f1-72d9-bf6b-e2f1118fdaab","","null","
                <div class=""stimulus-container"">
                    <img src=""images/schematic_sequence/flight_scheme/flight_scheme_8.png"" class=""exp-image"">
                    <div class=""question-area""></div> 
                </div>","null","","","","","","","","",""
"","","","","","html-button-response","53","424754","0.0-53.0","CD73943BC63040AC9182FBC0C2DD7D2C","019cf548-4940-785f-92fd-17adfa904e0d","019cf509-e3f1-72d9-bf6b-e2f1118fdaab","","1408","
                <div class=""stimulus-container"">
                    <img src=""images/schematic_sequence/flight_scheme/flight_scheme_8.png"" class=""exp-image"">
                    <div class=""question-area"">
                        <p style=""font-size: 20px; font-weight: bold; margin: 0;"">Is there a person in this image?</p>
                    </div>
                </div>","1","main_experiment_trial","8","flight_scheme","schematic_sequence","","","","",""
"","","","","","html-keyboard-response","54","429765","0.0-54.0","CD73943BC63040AC9182FBC0C2DD7D2C","019cf548-4940-785f-92fd-17adfa904e0d","019cf509-e3f1-72d9-bf6b-e2f1118fdaab","","null","
                <div class=""stimulus-container"">
                    <img src=""images/schematic_sequence/flight_scheme/flight_scheme_9.png"" class=""exp-image"">
                    <div class=""question-area""></div> 
                </div>","null","","","","","","","","",""
"","","","","","html-button-response","55","430955","0.0-55.0","CD73943BC63040AC9182FBC0C2DD7D2C","019cf548-4940-785f-92fd-17adfa904e0d","019cf509-e3f1-72d9-bf6b-e2f1118fdaab","","1189","
                <div class=""stimulus-container"">
                    <img src=""images/schematic_sequence/flight_scheme/flight_scheme_9.png"" class=""exp-image"">
                    <div class=""question-area"">
                        <p style=""font-size: 20px; font-weight: bold; margin: 0;"">Is there a person in this image?</p>
                    </div>
                </div>","0","main_experiment_trial","9","flight_scheme","schematic_sequence","","","","",""
"","","","","","html-keyboard-response","56","435972","0.0-56.0","CD73943BC63040AC9182FBC0C2DD7D2C","019cf548-4940-785f-92fd-17adfa904e0d","019cf509-e3f1-72d9-bf6b-e2f1118fdaab","","null","
                <div class=""stimulus-container"">
                    <img src=""images/schematic_sequence/flight_scheme/flight_scheme_ten.png"" class=""exp-image"">
                    <div class=""question-area""></div> 
                </div>","null","","","","","","","","",""
"","","","","","html-button-response","57","437273","0.0-57.0","CD73943BC63040AC9182FBC0C2DD7D2C","019cf548-4940-785f-92fd-17adfa904e0d","019cf509-e3f1-72d9-bf6b-e2f1118fdaab","","1298","
                <div class=""stimulus-container"">
                    <img src=""images/schematic_sequence/flight_scheme/flight_scheme_ten.png"" class=""exp-image"">
                    <div class=""question-area"">
                        <p style=""font-size: 20px; font-weight: bold; margin: 0;"">Is there a person in this image?</p>
                    </div>
                </div>","0","main_experiment_trial","ten","flight_scheme","schematic_sequence","","","","",""
"","","","","","html-keyboard-response","58","438278","0.0-58.0","CD73943BC63040AC9182FBC0C2DD7D2C","019cf548-4940-785f-92fd-17adfa904e0d","019cf509-e3f1-72d9-bf6b-e2f1118fdaab","","null","<div style=""background-color: white; width: 100vw; height: 100vh;""></div>","null","","","","","","","","",""
"","","","","","html-keyboard-response","59","443294","0.0-59.0","CD73943BC63040AC9182FBC0C2DD7D2C","019cf548-4940-785f-92fd-17adfa904e0d","019cf509-e3f1-72d9-bf6b-e2f1118fdaab","","null","
                <div class=""stimulus-container"">
                    <img src=""images/schematic_sequence/interview_scheme/interview_scheme_1.png"" class=""exp-image"">
                    <div class=""question-area""></div> 
                </div>","null","","","","","","","","",""
"","","","","","html-button-response","60","444761","0.0-60.0","CD73943BC63040AC9182FBC0C2DD7D2C","019cf548-4940-785f-92fd-17adfa904e0d","019cf509-e3f1-72d9-bf6b-e2f1118fdaab","","1465","
                <div class=""stimulus-container"">
                    <img src=""images/schematic_sequence/interview_scheme/interview_scheme_1.png"" class=""exp-image"">
                    <div class=""question-area"">
                        <p style=""font-size: 20px; font-weight: bold; margin: 0;"">Is there a person in this image?</p>
                    </div>
                </div>","1","main_experiment_trial","1","interview_scheme","schematic_sequence","","","","",""
"","","","","","html-keyboard-response","61","449777","0.0-61.0","CD73943BC63040AC9182FBC0C2DD7D2C","019cf548-4940-785f-92fd-17adfa904e0d","019cf509-e3f1-72d9-bf6b-e2f1118fdaab","","null","
                <div class=""stimulus-container"">
                    <img src=""images/schematic_sequence/interview_scheme/interview_scheme_2.png"" class=""exp-image"">
                    <div class=""question-area""></div> 
                </div>","null","","","","","","","","",""
"","","","","","html-button-response","62","451551","0.0-62.0","CD73943BC63040AC9182FBC0C2DD7D2C","019cf548-4940-785f-92fd-17adfa904e0d","019cf509-e3f1-72d9-bf6b-e2f1118fdaab","","1772","
                <div class=""stimulus-container"">
                    <img src=""images/schematic_sequence/interview_scheme/interview_scheme_2.png"" class=""exp-image"">
                    <div class=""question-area"">
                        <p style=""font-size: 20px; font-weight: bold; margin: 0;"">Is there a person in this image?</p>
                    </div>
                </div>","1","main_experiment_trial","2","interview_scheme","schematic_sequence","","","","",""
"","","","","","html-keyboard-response","63","456559","0.0-63.0","CD73943BC63040AC9182FBC0C2DD7D2C","019cf548-4940-785f-92fd-17adfa904e0d","019cf509-e3f1-72d9-bf6b-e2f1118fdaab","","null","
                <div class=""stimulus-container"">
                    <img src=""images/schematic_sequence/interview_scheme/interview_scheme_3.png"" class=""exp-image"">
                    <div class=""question-area""></div> 
                </div>","null","","","","","","","","",""
"","","","","","html-button-response","64","458460","0.0-64.0","CD73943BC63040AC9182FBC0C2DD7D2C","019cf548-4940-785f-92fd-17adfa904e0d","019cf509-e3f1-72d9-bf6b-e2f1118fdaab","","1899","
                <div class=""stimulus-container"">
                    <img src=""images/schematic_sequence/interview_scheme/interview_scheme_3.png"" class=""exp-image"">
                    <div class=""question-area"">
                        <p style=""font-size: 20px; font-weight: bold; margin: 0;"">Is there a person in this image?</p>
                    </div>
                </div>","1","main_experiment_trial","3","interview_scheme","schematic_sequence","","","","",""
"","","","","","html-keyboard-response","65","463465","0.0-65.0","CD73943BC63040AC9182FBC0C2DD7D2C","019cf548-4940-785f-92fd-17adfa904e0d","019cf509-e3f1-72d9-bf6b-e2f1118fdaab","","null","
                <div class=""stimulus-container"">
                    <img src=""images/schematic_sequence/interview_scheme/interview_scheme_4.png"" class=""exp-image"">
                    <div class=""question-area""></div> 
                </div>","null","","","","","","","","",""
"","","","","","html-button-response","66","464728","0.0-66.0","CD73943BC63040AC9182FBC0C2DD7D2C","019cf548-4940-785f-92fd-17adfa904e0d","019cf509-e3f1-72d9-bf6b-e2f1118fdaab","","1261","
                <div class=""stimulus-container"">
                    <img src=""images/schematic_sequence/interview_scheme/interview_scheme_4.png"" class=""exp-image"">
                    <div class=""question-area"">
                        <p style=""font-size: 20px; font-weight: bold; margin: 0;"">Is there a person in this image?</p>
                    </div>
                </div>","1","main_experiment_trial","4","interview_scheme","schematic_sequence","","","","",""
"","","","","","html-keyboard-response","67","469743","0.0-67.0","CD73943BC63040AC9182FBC0C2DD7D2C","019cf548-4940-785f-92fd-17adfa904e0d","019cf509-e3f1-72d9-bf6b-e2f1118fdaab","","null","
                <div class=""stimulus-container"">
                    <img src=""images/schematic_sequence/interview_scheme/interview_scheme_5.png"" class=""exp-image"">
                    <div class=""question-area""></div> 
                </div>","null","","","","","","","","",""
"","","","","","html-button-response","68","471083","0.0-68.0","CD73943BC63040AC9182FBC0C2DD7D2C","019cf548-4940-785f-92fd-17adfa904e0d","019cf509-e3f1-72d9-bf6b-e2f1118fdaab","","1339","
                <div class=""stimulus-container"">
                    <img src=""images/schematic_sequence/interview_scheme/interview_scheme_5.png"" class=""exp-image"">
                    <div class=""question-area"">
                        <p style=""font-size: 20px; font-weight: bold; margin: 0;"">Is there a person in this image?</p>
                    </div>
                </div>","0","main_experiment_trial","5","interview_scheme","schematic_sequence","","","","",""
"","","","","","html-keyboard-response","69","476094","0.0-69.0","CD73943BC63040AC9182FBC0C2DD7D2C","019cf548-4940-785f-92fd-17adfa904e0d","019cf509-e3f1-72d9-bf6b-e2f1118fdaab","","null","
                <div class=""stimulus-container"">
                    <img src=""images/schematic_sequence/interview_scheme/interview_scheme_6.png"" class=""exp-image"">
                    <div class=""question-area""></div> 
                </div>","null","","","","","","","","",""
"","","","","","html-button-response","70","477480","0.0-70.0","CD73943BC63040AC9182FBC0C2DD7D2C","019cf548-4940-785f-92fd-17adfa904e0d","019cf509-e3f1-72d9-bf6b-e2f1118fdaab","","1384","
                <div class=""stimulus-container"">
                    <img src=""images/schematic_sequence/interview_scheme/interview_scheme_6.png"" class=""exp-image"">
                    <div class=""question-area"">
                        <p style=""font-size: 20px; font-weight: bold; margin: 0;"">Is there a person in this image?</p>
                    </div>
                </div>","0","main_experiment_trial","6","interview_scheme","schematic_sequence","","","","",""
"","","","","","html-keyboard-response","71","482489","0.0-71.0","CD73943BC63040AC9182FBC0C2DD7D2C","019cf548-4940-785f-92fd-17adfa904e0d","019cf509-e3f1-72d9-bf6b-e2f1118fdaab","","null","
                <div class=""stimulus-container"">
                    <img src=""images/schematic_sequence/interview_scheme/interview_scheme_7.png"" class=""exp-image"">
                    <div class=""question-area""></div> 
                </div>","null","","","","","","","","",""
"","","","","","html-button-response","72","483372","0.0-72.0","CD73943BC63040AC9182FBC0C2DD7D2C","019cf548-4940-785f-92fd-17adfa904e0d","019cf509-e3f1-72d9-bf6b-e2f1118fdaab","","880","
                <div class=""stimulus-container"">
                    <img src=""images/schematic_sequence/interview_scheme/interview_scheme_7.png"" class=""exp-image"">
                    <div class=""question-area"">
                        <p style=""font-size: 20px; font-weight: bold; margin: 0;"">Is there a person in this image?</p>
                    </div>
                </div>","0","main_experiment_trial","7","interview_scheme","schematic_sequence","","","","",""
"","","","","","html-keyboard-response","73","488375","0.0-73.0","CD73943BC63040AC9182FBC0C2DD7D2C","019cf548-4940-785f-92fd-17adfa904e0d","019cf509-e3f1-72d9-bf6b-e2f1118fdaab","","null","
                <div class=""stimulus-container"">
                    <img src=""images/schematic_sequence/interview_scheme/interview_scheme_8.png"" class=""exp-image"">
                    <div class=""question-area""></div> 
                </div>","null","","","","","","","","",""
"","","","","","html-button-response","74","489276","0.0-74.0","CD73943BC63040AC9182FBC0C2DD7D2C","019cf548-4940-785f-92fd-17adfa904e0d","019cf509-e3f1-72d9-bf6b-e2f1118fdaab","","898","
                <div class=""stimulus-container"">
                    <img src=""images/schematic_sequence/interview_scheme/interview_scheme_8.png"" class=""exp-image"">
                    <div class=""question-area"">
                        <p style=""font-size: 20px; font-weight: bold; margin: 0;"">Is there a person in this image?</p>
                    </div>
                </div>","0","main_experiment_trial","8","interview_scheme","schematic_sequence","","","","",""
"","","","","","html-keyboard-response","75","494280","0.0-75.0","CD73943BC63040AC9182FBC0C2DD7D2C","019cf548-4940-785f-92fd-17adfa904e0d","019cf509-e3f1-72d9-bf6b-e2f1118fdaab","","null","
                <div class=""stimulus-container"">
                    <img src=""images/schematic_sequence/interview_scheme/interview_scheme_9.png"" class=""exp-image"">
                    <div class=""question-area""></div> 
                </div>","null","","","","","","","","",""
"","","","","","html-button-response","76","495276","0.0-76.0","CD73943BC63040AC9182FBC0C2DD7D2C","019cf548-4940-785f-92fd-17adfa904e0d","019cf509-e3f1-72d9-bf6b-e2f1118fdaab","","993","
                <div class=""stimulus-container"">
                    <img src=""images/schematic_sequence/interview_scheme/interview_scheme_9.png"" class=""exp-image"">
                    <div class=""question-area"">
                        <p style=""font-size: 20px; font-weight: bold; margin: 0;"">Is there a person in this image?</p>
                    </div>
                </div>","0","main_experiment_trial","9","interview_scheme","schematic_sequence","","","","",""
"","","","","","html-keyboard-response","77","500290","0.0-77.0","CD73943BC63040AC9182FBC0C2DD7D2C","019cf548-4940-785f-92fd-17adfa904e0d","019cf509-e3f1-72d9-bf6b-e2f1118fdaab","","null","
                <div class=""stimulus-container"">
                    <img src=""images/schematic_sequence/interview_scheme/interview_scheme_ten.png"" class=""exp-image"">
                    <div class=""question-area""></div> 
                </div>","null","","","","","","","","",""
"","","","","","html-button-response","78","501209","0.0-78.0","CD73943BC63040AC9182FBC0C2DD7D2C","019cf548-4940-785f-92fd-17adfa904e0d","019cf509-e3f1-72d9-bf6b-e2f1118fdaab","","917","
                <div class=""stimulus-container"">
                    <img src=""images/schematic_sequence/interview_scheme/interview_scheme_ten.png"" class=""exp-image"">
                    <div class=""question-area"">
                        <p style=""font-size: 20px; font-weight: bold; margin: 0;"">Is there a person in this image?</p>
                    </div>
                </div>","0","main_experiment_trial","ten","interview_scheme","schematic_sequence","","","","",""
"","","","","","html-keyboard-response","79","502214","0.0-79.0","CD73943BC63040AC9182FBC0C2DD7D2C","019cf548-4940-785f-92fd-17adfa904e0d","019cf509-e3f1-72d9-bf6b-e2f1118fdaab","","null","<div style=""background-color: white; width: 100vw; height: 100vh;""></div>","null","","","","","","","","",""
"","","","","","html-keyboard-response","80","507223","0.0-80.0","CD73943BC63040AC9182FBC0C2DD7D2C","019cf548-4940-785f-92fd-17adfa904e0d","019cf509-e3f1-72d9-bf6b-e2f1118fdaab","","null","
                <div class=""stimulus-container"">
                    <img src=""images/schematic_sequence/dinner_party_scheme/dinner_party_scheme_1.png"" class=""exp-image"">
                    <div class=""question-area""></div> 
                </div>","null","","","","","","","","",""
"","","","","","html-button-response","81","508157","0.0-81.0","CD73943BC63040AC9182FBC0C2DD7D2C","019cf548-4940-785f-92fd-17adfa904e0d","019cf509-e3f1-72d9-bf6b-e2f1118fdaab","","931","
                <div class=""stimulus-container"">
                    <img src=""images/schematic_sequence/dinner_party_scheme/dinner_party_scheme_1.png"" class=""exp-image"">
                    <div class=""question-area"">
                        <p style=""font-size: 20px; font-weight: bold; margin: 0;"">Is there a person in this image?</p>
                    </div>
                </div>","0","main_experiment_trial","1","dinner_party_scheme","schematic_sequence","","","","",""
"","","","","","html-keyboard-response","82","513168","0.0-82.0","CD73943BC63040AC9182FBC0C2DD7D2C","019cf548-4940-785f-92fd-17adfa904e0d","019cf509-e3f1-72d9-bf6b-e2f1118fdaab","","null","
                <div class=""stimulus-container"">
                    <img src=""images/schematic_sequence/dinner_party_scheme/dinner_party_scheme_2.png"" class=""exp-image"">
                    <div class=""question-area""></div> 
                </div>","null","","","","","","","","",""
"","","","","","html-button-response","83","514212","0.0-83.0","CD73943BC63040AC9182FBC0C2DD7D2C","019cf548-4940-785f-92fd-17adfa904e0d","019cf509-e3f1-72d9-bf6b-e2f1118fdaab","","1042","
                <div class=""stimulus-container"">
                    <img src=""images/schematic_sequence/dinner_party_scheme/dinner_party_scheme_2.png"" class=""exp-image"">
                    <div class=""question-area"">
                        <p style=""font-size: 20px; font-weight: bold; margin: 0;"">Is there a person in this image?</p>
                    </div>
                </div>","0","main_experiment_trial","2","dinner_party_scheme","schematic_sequence","","","","",""
"","","","","","html-keyboard-response","84","519215","0.0-84.0","CD73943BC63040AC9182FBC0C2DD7D2C","019cf548-4940-785f-92fd-17adfa904e0d","019cf509-e3f1-72d9-bf6b-e2f1118fdaab","","null","
                <div class=""stimulus-container"">
                    <img src=""images/schematic_sequence/dinner_party_scheme/dinner_party_scheme_3.png"" class=""exp-image"">
                    <div class=""question-area""></div> 
                </div>","null","","","","","","","","",""
"","","","","","html-button-response","85","520154","0.0-85.0","CD73943BC63040AC9182FBC0C2DD7D2C","019cf548-4940-785f-92fd-17adfa904e0d","019cf509-e3f1-72d9-bf6b-e2f1118fdaab","","936","
                <div class=""stimulus-container"">
                    <img src=""images/schematic_sequence/dinner_party_scheme/dinner_party_scheme_3.png"" class=""exp-image"">
                    <div class=""question-area"">
                        <p style=""font-size: 20px; font-weight: bold; margin: 0;"">Is there a person in this image?</p>
                    </div>
                </div>","0","main_experiment_trial","3","dinner_party_scheme","schematic_sequence","","","","",""
"","","","","","html-keyboard-response","86","525170","0.0-86.0","CD73943BC63040AC9182FBC0C2DD7D2C","019cf548-4940-785f-92fd-17adfa904e0d","019cf509-e3f1-72d9-bf6b-e2f1118fdaab","","null","
                <div class=""stimulus-container"">
                    <img src=""images/schematic_sequence/dinner_party_scheme/dinner_party_scheme_4.png"" class=""exp-image"">
                    <div class=""question-area""></div> 
                </div>","null","","","","","","","","",""
"","","","","","html-button-response","87","526136","0.0-87.0","CD73943BC63040AC9182FBC0C2DD7D2C","019cf548-4940-785f-92fd-17adfa904e0d","019cf509-e3f1-72d9-bf6b-e2f1118fdaab","","964","
                <div class=""stimulus-container"">
                    <img src=""images/schematic_sequence/dinner_party_scheme/dinner_party_scheme_4.png"" class=""exp-image"">
                    <div class=""question-area"">
                        <p style=""font-size: 20px; font-weight: bold; margin: 0;"">Is there a person in this image?</p>
                    </div>
                </div>","0","main_experiment_trial","4","dinner_party_scheme","schematic_sequence","","","","",""
"","","","","","html-keyboard-response","88","531153","0.0-88.0","CD73943BC63040AC9182FBC0C2DD7D2C","019cf548-4940-785f-92fd-17adfa904e0d","019cf509-e3f1-72d9-bf6b-e2f1118fdaab","","null","
                <div class=""stimulus-container"">
                    <img src=""images/schematic_sequence/dinner_party_scheme/dinner_party_scheme_5.png"" class=""exp-image"">
                    <div class=""question-area""></div> 
                </div>","null","","","","","","","","",""
"","","","","","html-button-response","89","532223","0.0-89.0","CD73943BC63040AC9182FBC0C2DD7D2C","019cf548-4940-785f-92fd-17adfa904e0d","019cf509-e3f1-72d9-bf6b-e2f1118fdaab","","1068","
                <div class=""stimulus-container"">
                    <img src=""images/schematic_sequence/dinner_party_scheme/dinner_party_scheme_5.png"" class=""exp-image"">
                    <div class=""question-area"">
                        <p style=""font-size: 20px; font-weight: bold; margin: 0;"">Is there a person in this image?</p>
                    </div>
                </div>","0","main_experiment_trial","5","dinner_party_scheme","schematic_sequence","","","","",""
"","","","","","html-keyboard-response","90","537231","0.0-90.0","CD73943BC63040AC9182FBC0C2DD7D2C","019cf548-4940-785f-92fd-17adfa904e0d","019cf509-e3f1-72d9-bf6b-e2f1118fdaab","","null","
                <div class=""stimulus-container"">
                    <img src=""images/schematic_sequence/dinner_party_scheme/dinner_party_scheme_6.png"" class=""exp-image"">
                    <div class=""question-area""></div> 
                </div>","null","","","","","","","","",""
"","","","","","html-button-response","91","538223","0.0-91.0","CD73943BC63040AC9182FBC0C2DD7D2C","019cf548-4940-785f-92fd-17adfa904e0d","019cf509-e3f1-72d9-bf6b-e2f1118fdaab","","991","
                <div class=""stimulus-container"">
                    <img src=""images/schematic_sequence/dinner_party_scheme/dinner_party_scheme_6.png"" class=""exp-image"">
                    <div class=""question-area"">
                        <p style=""font-size: 20px; font-weight: bold; margin: 0;"">Is there a person in this image?</p>
                    </div>
                </div>","0","main_experiment_trial","6","dinner_party_scheme","schematic_sequence","","","","",""
"","","","","","html-keyboard-response","92","543234","0.0-92.0","CD73943BC63040AC9182FBC0C2DD7D2C","019cf548-4940-785f-92fd-17adfa904e0d","019cf509-e3f1-72d9-bf6b-e2f1118fdaab","","null","
                <div class=""stimulus-container"">
                    <img src=""images/schematic_sequence/dinner_party_scheme/dinner_party_scheme_7.png"" class=""exp-image"">
                    <div class=""question-area""></div> 
                </div>","null","","","","","","","","",""
"","","","","","html-button-response","93","544349","0.0-93.0","CD73943BC63040AC9182FBC0C2DD7D2C","019cf548-4940-785f-92fd-17adfa904e0d","019cf509-e3f1-72d9-bf6b-e2f1118fdaab","","1113","
                <div class=""stimulus-container"">
                    <img src=""images/schematic_sequence/dinner_party_scheme/dinner_party_scheme_7.png"" class=""exp-image"">
                    <div class=""question-area"">
                        <p style=""font-size: 20px; font-weight: bold; margin: 0;"">Is there a person in this image?</p>
                    </div>
                </div>","0","main_experiment_trial","7","dinner_party_scheme","schematic_sequence","","","","",""
"","","","","","html-keyboard-response","94","549363","0.0-94.0","CD73943BC63040AC9182FBC0C2DD7D2C","019cf548-4940-785f-92fd-17adfa904e0d","019cf509-e3f1-72d9-bf6b-e2f1118fdaab","","null","
                <div class=""stimulus-container"">
                    <img src=""images/schematic_sequence/dinner_party_scheme/dinner_party_scheme_8.png"" class=""exp-image"">
                    <div class=""question-area""></div> 
                </div>","null","","","","","","","","",""
"","","","","","html-button-response","95","550552","0.0-95.0","CD73943BC63040AC9182FBC0C2DD7D2C","019cf548-4940-785f-92fd-17adfa904e0d","019cf509-e3f1-72d9-bf6b-e2f1118fdaab","","1188","
                <div class=""stimulus-container"">
                    <img src=""images/schematic_sequence/dinner_party_scheme/dinner_party_scheme_8.png"" class=""exp-image"">
                    <div class=""question-area"">
                        <p style=""font-size: 20px; font-weight: bold; margin: 0;"">Is there a person in this image?</p>
                    </div>
                </div>","0","main_experiment_trial","8","dinner_party_scheme","schematic_sequence","","","","",""
"","","","","","html-keyboard-response","96","555559","0.0-96.0","CD73943BC63040AC9182FBC0C2DD7D2C","019cf548-4940-785f-92fd-17adfa904e0d","019cf509-e3f1-72d9-bf6b-e2f1118fdaab","","null","
                <div class=""stimulus-container"">
                    <img src=""images/schematic_sequence/dinner_party_scheme/dinner_party_scheme_9.png"" class=""exp-image"">
                    <div class=""question-area""></div> 
                </div>","null","","","","","","","","",""
"","","","","","html-button-response","97","556552","0.0-97.0","CD73943BC63040AC9182FBC0C2DD7D2C","019cf548-4940-785f-92fd-17adfa904e0d","019cf509-e3f1-72d9-bf6b-e2f1118fdaab","","991","
                <div class=""stimulus-container"">
                    <img src=""images/schematic_sequence/dinner_party_scheme/dinner_party_scheme_9.png"" class=""exp-image"">
                    <div class=""question-area"">
                        <p style=""font-size: 20px; font-weight: bold; margin: 0;"">Is there a person in this image?</p>
                    </div>
                </div>","0","main_experiment_trial","9","dinner_party_scheme","schematic_sequence","","","","",""
"","","","","","html-keyboard-response","98","561566","0.0-98.0","CD73943BC63040AC9182FBC0C2DD7D2C","019cf548-4940-785f-92fd-17adfa904e0d","019cf509-e3f1-72d9-bf6b-e2f1118fdaab","","null","
                <div class=""stimulus-container"">
                    <img src=""images/schematic_sequence/dinner_party_scheme/dinner_party_scheme_ten.png"" class=""exp-image"">
                    <div class=""question-area""></div> 
                </div>","null","","","","","","","","",""
"","","","","","html-button-response","99","562582","0.0-99.0","CD73943BC63040AC9182FBC0C2DD7D2C","019cf548-4940-785f-92fd-17adfa904e0d","019cf509-e3f1-72d9-bf6b-e2f1118fdaab","","1014","
                <div class=""stimulus-container"">
                    <img src=""images/schematic_sequence/dinner_party_scheme/dinner_party_scheme_ten.png"" class=""exp-image"">
                    <div class=""question-area"">
                        <p style=""font-size: 20px; font-weight: bold; margin: 0;"">Is there a person in this image?</p>
                    </div>
                </div>","0","main_experiment_trial","ten","dinner_party_scheme","schematic_sequence","","","","",""
"","","","","","html-keyboard-response","100","563601","0.0-100.0","CD73943BC63040AC9182FBC0C2DD7D2C","019cf548-4940-785f-92fd-17adfa904e0d","019cf509-e3f1-72d9-bf6b-e2f1118fdaab","","null","<div style=""background-color: white; width: 100vw; height: 100vh;""></div>","null","","","","","","","","",""
"","","","","","html-keyboard-response","101","568611","0.0-101.0","CD73943BC63040AC9182FBC0C2DD7D2C","019cf548-4940-785f-92fd-17adfa904e0d","019cf509-e3f1-72d9-bf6b-e2f1118fdaab","","null","
                <div class=""stimulus-container"">
                    <img src=""images/causal_sequence/package_causal/package_causal_1.png"" class=""exp-image"">
                    <div class=""question-area""></div> 
                </div>","null","","","","","","","","",""
"","","","","","html-button-response","102","569508","0.0-102.0","CD73943BC63040AC9182FBC0C2DD7D2C","019cf548-4940-785f-92fd-17adfa904e0d","019cf509-e3f1-72d9-bf6b-e2f1118fdaab","","895","
                <div class=""stimulus-container"">
                    <img src=""images/causal_sequence/package_causal/package_causal_1.png"" class=""exp-image"">
                    <div class=""question-area"">
                        <p style=""font-size: 20px; font-weight: bold; margin: 0;"">Is there a person in this image?</p>
                    </div>
                </div>","0","main_experiment_trial","1","package_causal","causal_sequence","","","","",""
"","","","","","html-keyboard-response","103","574519","0.0-103.0","CD73943BC63040AC9182FBC0C2DD7D2C","019cf548-4940-785f-92fd-17adfa904e0d","019cf509-e3f1-72d9-bf6b-e2f1118fdaab","","null","
                <div class=""stimulus-container"">
                    <img src=""images/causal_sequence/package_causal/package_causal_2.png"" class=""exp-image"">
                    <div class=""question-area""></div> 
                </div>","null","","","","","","","","",""
"","","","","","html-button-response","104","575408","0.0-104.0","CD73943BC63040AC9182FBC0C2DD7D2C","019cf548-4940-785f-92fd-17adfa904e0d","019cf509-e3f1-72d9-bf6b-e2f1118fdaab","","888","
                <div class=""stimulus-container"">
                    <img src=""images/causal_sequence/package_causal/package_causal_2.png"" class=""exp-image"">
                    <div class=""question-area"">
                        <p style=""font-size: 20px; font-weight: bold; margin: 0;"">Is there a person in this image?</p>
                    </div>
                </div>","0","main_experiment_trial","2","package_causal","causal_sequence","","","","",""
"","","","","","html-keyboard-response","105","580416","0.0-105.0","CD73943BC63040AC9182FBC0C2DD7D2C","019cf548-4940-785f-92fd-17adfa904e0d","019cf509-e3f1-72d9-bf6b-e2f1118fdaab","","null","
                <div class=""stimulus-container"">
                    <img src=""images/causal_sequence/package_causal/package_causal_3.png"" class=""exp-image"">
                    <div class=""question-area""></div> 
                </div>","null","","","","","","","","",""
"","","","","","html-button-response","106","581409","0.0-106.0","CD73943BC63040AC9182FBC0C2DD7D2C","019cf548-4940-785f-92fd-17adfa904e0d","019cf509-e3f1-72d9-bf6b-e2f1118fdaab","","990","
                <div class=""stimulus-container"">
                    <img src=""images/causal_sequence/package_causal/package_causal_3.png"" class=""exp-image"">
                    <div class=""question-area"">
                        <p style=""font-size: 20px; font-weight: bold; margin: 0;"">Is there a person in this image?</p>
                    </div>
                </div>","0","main_experiment_trial","3","package_causal","causal_sequence","","","","",""
"","","","","","html-keyboard-response","107","586421","0.0-107.0","CD73943BC63040AC9182FBC0C2DD7D2C","019cf548-4940-785f-92fd-17adfa904e0d","019cf509-e3f1-72d9-bf6b-e2f1118fdaab","","null","
                <div class=""stimulus-container"">
                    <img src=""images/causal_sequence/package_causal/package_causal_4.png"" class=""exp-image"">
                    <div class=""question-area""></div> 
                </div>","null","","","","","","","","",""
"","","","","","html-button-response","108","587628","0.0-108.0","CD73943BC63040AC9182FBC0C2DD7D2C","019cf548-4940-785f-92fd-17adfa904e0d","019cf509-e3f1-72d9-bf6b-e2f1118fdaab","","1205","
                <div class=""stimulus-container"">
                    <img src=""images/causal_sequence/package_causal/package_causal_4.png"" class=""exp-image"">
                    <div class=""question-area"">
                        <p style=""font-size: 20px; font-weight: bold; margin: 0;"">Is there a person in this image?</p>
                    </div>
                </div>","1","main_experiment_trial","4","package_causal","causal_sequence","","","","",""
"","","","","","html-keyboard-response","109","592645","0.0-109.0","CD73943BC63040AC9182FBC0C2DD7D2C","019cf548-4940-785f-92fd-17adfa904e0d","019cf509-e3f1-72d9-bf6b-e2f1118fdaab","","null","
                <div class=""stimulus-container"">
                    <img src=""images/causal_sequence/package_causal/package_causal_5.png"" class=""exp-image"">
                    <div class=""question-area""></div> 
                </div>","null","","","","","","","","",""
"","","","","","html-button-response","110","593720","0.0-110.0","CD73943BC63040AC9182FBC0C2DD7D2C","019cf548-4940-785f-92fd-17adfa904e0d","019cf509-e3f1-72d9-bf6b-e2f1118fdaab","","1073","
                <div class=""stimulus-container"">
                    <img src=""images/causal_sequence/package_causal/package_causal_5.png"" class=""exp-image"">
                    <div class=""question-area"">
                        <p style=""font-size: 20px; font-weight: bold; margin: 0;"">Is there a person in this image?</p>
                    </div>
                </div>","0","main_experiment_trial","5","package_causal","causal_sequence","","","","",""
"","","","","","html-keyboard-response","111","598728","0.0-111.0","CD73943BC63040AC9182FBC0C2DD7D2C","019cf548-4940-785f-92fd-17adfa904e0d","019cf509-e3f1-72d9-bf6b-e2f1118fdaab","","null","
                <div class=""stimulus-container"">
                    <img src=""images/causal_sequence/package_causal/package_causal_6.png"" class=""exp-image"">
                    <div class=""question-area""></div> 
                </div>","null","","","","","","","","",""
"","","","","","html-button-response","112","599940","0.0-112.0","CD73943BC63040AC9182FBC0C2DD7D2C","019cf548-4940-785f-92fd-17adfa904e0d","019cf509-e3f1-72d9-bf6b-e2f1118fdaab","","1210","
                <div class=""stimulus-container"">
                    <img src=""images/causal_sequence/package_causal/package_causal_6.png"" class=""exp-image"">
                    <div class=""question-area"">
                        <p style=""font-size: 20px; font-weight: bold; margin: 0;"">Is there a person in this image?</p>
                    </div>
                </div>","0","main_experiment_trial","6","package_causal","causal_sequence","","","","",""
"","","","","","html-keyboard-response","113","604943","0.0-113.0","CD73943BC63040AC9182FBC0C2DD7D2C","019cf548-4940-785f-92fd-17adfa904e0d","019cf509-e3f1-72d9-bf6b-e2f1118fdaab","","null","
                <div class=""stimulus-container"">
                    <img src=""images/causal_sequence/package_causal/package_causal_7.png"" class=""exp-image"">
                    <div class=""question-area""></div> 
                </div>","null","","","","","","","","",""
"","","","","","html-button-response","114","606109","0.0-114.0","CD73943BC63040AC9182FBC0C2DD7D2C","019cf548-4940-785f-92fd-17adfa904e0d","019cf509-e3f1-72d9-bf6b-e2f1118fdaab","","1164","
                <div class=""stimulus-container"">
                    <img src=""images/causal_sequence/package_causal/package_causal_7.png"" class=""exp-image"">
                    <div class=""question-area"">
                        <p style=""font-size: 20px; font-weight: bold; margin: 0;"">Is there a person in this image?</p>
                    </div>
                </div>","0","main_experiment_trial","7","package_causal","causal_sequence","","","","",""
"","","","","","html-keyboard-response","115","611120","0.0-115.0","CD73943BC63040AC9182FBC0C2DD7D2C","019cf548-4940-785f-92fd-17adfa904e0d","019cf509-e3f1-72d9-bf6b-e2f1118fdaab","","null","
                <div class=""stimulus-container"">
                    <img src=""images/causal_sequence/package_causal/package_causal_8.png"" class=""exp-image"">
                    <div class=""question-area""></div> 
                </div>","null","","","","","","","","",""
"","","","","","html-button-response","116","612099","0.0-116.0","CD73943BC63040AC9182FBC0C2DD7D2C","019cf548-4940-785f-92fd-17adfa904e0d","019cf509-e3f1-72d9-bf6b-e2f1118fdaab","","976","
                <div class=""stimulus-container"">
                    <img src=""images/causal_sequence/package_causal/package_causal_8.png"" class=""exp-image"">
                    <div class=""question-area"">
                        <p style=""font-size: 20px; font-weight: bold; margin: 0;"">Is there a person in this image?</p>
                    </div>
                </div>","0","main_experiment_trial","8","package_causal","causal_sequence","","","","",""
"","","","","","html-keyboard-response","117","617111","0.0-117.0","CD73943BC63040AC9182FBC0C2DD7D2C","019cf548-4940-785f-92fd-17adfa904e0d","019cf509-e3f1-72d9-bf6b-e2f1118fdaab","","null","
                <div class=""stimulus-container"">
                    <img src=""images/causal_sequence/package_causal/package_causal_9.png"" class=""exp-image"">
                    <div class=""question-area""></div> 
                </div>","null","","","","","","","","",""
"","","","","","html-button-response","118","618194","0.0-118.0","CD73943BC63040AC9182FBC0C2DD7D2C","019cf548-4940-785f-92fd-17adfa904e0d","019cf509-e3f1-72d9-bf6b-e2f1118fdaab","","1081","
                <div class=""stimulus-container"">
                    <img src=""images/causal_sequence/package_causal/package_causal_9.png"" class=""exp-image"">
                    <div class=""question-area"">
                        <p style=""font-size: 20px; font-weight: bold; margin: 0;"">Is there a person in this image?</p>
                    </div>
                </div>","0","main_experiment_trial","9","package_causal","causal_sequence","","","","",""
"","","","","","html-keyboard-response","119","623200","0.0-119.0","CD73943BC63040AC9182FBC0C2DD7D2C","019cf548-4940-785f-92fd-17adfa904e0d","019cf509-e3f1-72d9-bf6b-e2f1118fdaab","","null","
                <div class=""stimulus-container"">
                    <img src=""images/causal_sequence/package_causal/package_causal_ten.png"" class=""exp-image"">
                    <div class=""question-area""></div> 
                </div>","null","","","","","","","","",""
"","","","","","html-button-response","120","624290","0.0-120.0","CD73943BC63040AC9182FBC0C2DD7D2C","019cf548-4940-785f-92fd-17adfa904e0d","019cf509-e3f1-72d9-bf6b-e2f1118fdaab","","1088","
                <div class=""stimulus-container"">
                    <img src=""images/causal_sequence/package_causal/package_causal_ten.png"" class=""exp-image"">
                    <div class=""question-area"">
                        <p style=""font-size: 20px; font-weight: bold; margin: 0;"">Is there a person in this image?</p>
                    </div>
                </div>","0","main_experiment_trial","ten","package_causal","causal_sequence","","","","",""
"","","","","","html-keyboard-response","121","625294","0.0-121.0","CD73943BC63040AC9182FBC0C2DD7D2C","019cf548-4940-785f-92fd-17adfa904e0d","019cf509-e3f1-72d9-bf6b-e2f1118fdaab","","null","<div style=""background-color: white; width: 100vw; height: 100vh;""></div>","null","","","","","","","","",""
"","","","","","html-keyboard-response","122","630304","0.0-122.0","CD73943BC63040AC9182FBC0C2DD7D2C","019cf548-4940-785f-92fd-17adfa904e0d","019cf509-e3f1-72d9-bf6b-e2f1118fdaab","","null","
                <div class=""stimulus-container"">
                    <img src=""images/schematic_sequence/hotel_scheme/hotel_scheme_1.png"" class=""exp-image"">
                    <div class=""question-area""></div> 
                </div>","null","","","","","","","","",""
"","","","","","html-button-response","123","631902","0.0-123.0","CD73943BC63040AC9182FBC0C2DD7D2C","019cf548-4940-785f-92fd-17adfa904e0d","019cf509-e3f1-72d9-bf6b-e2f1118fdaab","","1596","
                <div class=""stimulus-container"">
                    <img src=""images/schematic_sequence/hotel_scheme/hotel_scheme_1.png"" class=""exp-image"">
                    <div class=""question-area"">
                        <p style=""font-size: 20px; font-weight: bold; margin: 0;"">Is there a person in this image?</p>
                    </div>
                </div>","1","main_experiment_trial","1","hotel_scheme","schematic_sequence","","","","",""
"","","","","","html-keyboard-response","124","636911","0.0-124.0","CD73943BC63040AC9182FBC0C2DD7D2C","019cf548-4940-785f-92fd-17adfa904e0d","019cf509-e3f1-72d9-bf6b-e2f1118fdaab","","null","
                <div class=""stimulus-container"">
                    <img src=""images/schematic_sequence/hotel_scheme/hotel_scheme_2.png"" class=""exp-image"">
                    <div class=""question-area""></div> 
                </div>","null","","","","","","","","",""
"","","","","","html-button-response","125","638313","0.0-125.0","CD73943BC63040AC9182FBC0C2DD7D2C","019cf548-4940-785f-92fd-17adfa904e0d","019cf509-e3f1-72d9-bf6b-e2f1118fdaab","","1400","
                <div class=""stimulus-container"">
                    <img src=""images/schematic_sequence/hotel_scheme/hotel_scheme_2.png"" class=""exp-image"">
                    <div class=""question-area"">
                        <p style=""font-size: 20px; font-weight: bold; margin: 0;"">Is there a person in this image?</p>
                    </div>
                </div>","0","main_experiment_trial","2","hotel_scheme","schematic_sequence","","","","",""
"","","","","","html-keyboard-response","126","643319","0.0-126.0","CD73943BC63040AC9182FBC0C2DD7D2C","019cf548-4940-785f-92fd-17adfa904e0d","019cf509-e3f1-72d9-bf6b-e2f1118fdaab","","null","
                <div class=""stimulus-container"">
                    <img src=""images/schematic_sequence/hotel_scheme/hotel_scheme_3.png"" class=""exp-image"">
                    <div class=""question-area""></div> 
                </div>","null","","","","","","","","",""
"","","","","","html-button-response","127","644578","0.0-127.0","CD73943BC63040AC9182FBC0C2DD7D2C","019cf548-4940-785f-92fd-17adfa904e0d","019cf509-e3f1-72d9-bf6b-e2f1118fdaab","","1257","
                <div class=""stimulus-container"">
                    <img src=""images/schematic_sequence/hotel_scheme/hotel_scheme_3.png"" class=""exp-image"">
                    <div class=""question-area"">
                        <p style=""font-size: 20px; font-weight: bold; margin: 0;"">Is there a person in this image?</p>
                    </div>
                </div>","0","main_experiment_trial","3","hotel_scheme","schematic_sequence","","","","",""
"","","","","","html-keyboard-response","128","649593","0.0-128.0","CD73943BC63040AC9182FBC0C2DD7D2C","019cf548-4940-785f-92fd-17adfa904e0d","019cf509-e3f1-72d9-bf6b-e2f1118fdaab","","null","
                <div class=""stimulus-container"">
                    <img src=""images/schematic_sequence/hotel_scheme/hotel_scheme_4.png"" class=""exp-image"">
                    <div class=""question-area""></div> 
                </div>","null","","","","","","","","",""
"","","","","","html-button-response","129","651164","0.0-129.0","CD73943BC63040AC9182FBC0C2DD7D2C","019cf548-4940-785f-92fd-17adfa904e0d","019cf509-e3f1-72d9-bf6b-e2f1118fdaab","","1569","
                <div class=""stimulus-container"">
                    <img src=""images/schematic_sequence/hotel_scheme/hotel_scheme_4.png"" class=""exp-image"">
                    <div class=""question-area"">
                        <p style=""font-size: 20px; font-weight: bold; margin: 0;"">Is there a person in this image?</p>
                    </div>
                </div>","1","main_experiment_trial","4","hotel_scheme","schematic_sequence","","","","",""
"","","","","","html-keyboard-response","130","656179","0.0-130.0","CD73943BC63040AC9182FBC0C2DD7D2C","019cf548-4940-785f-92fd-17adfa904e0d","019cf509-e3f1-72d9-bf6b-e2f1118fdaab","","null","
                <div class=""stimulus-container"">
                    <img src=""images/schematic_sequence/hotel_scheme/hotel_scheme_5.png"" class=""exp-image"">
                    <div class=""question-area""></div> 
                </div>","null","","","","","","","","",""
"","","","","","html-button-response","131","657643","0.0-131.0","CD73943BC63040AC9182FBC0C2DD7D2C","019cf548-4940-785f-92fd-17adfa904e0d","019cf509-e3f1-72d9-bf6b-e2f1118fdaab","","1462","
                <div class=""stimulus-container"">
                    <img src=""images/schematic_sequence/hotel_scheme/hotel_scheme_5.png"" class=""exp-image"">
                    <div class=""question-area"">
                        <p style=""font-size: 20px; font-weight: bold; margin: 0;"">Is there a person in this image?</p>
                    </div>
                </div>","0","main_experiment_trial","5","hotel_scheme","schematic_sequence","","","","",""
"","","","","","html-keyboard-response","132","662653","0.0-132.0","CD73943BC63040AC9182FBC0C2DD7D2C","019cf548-4940-785f-92fd-17adfa904e0d","019cf509-e3f1-72d9-bf6b-e2f1118fdaab","","null","
                <div class=""stimulus-container"">
                    <img src=""images/schematic_sequence/hotel_scheme/hotel_scheme_6.png"" class=""exp-image"">
                    <div class=""question-area""></div> 
                </div>","null","","","","","","","","",""
"","","","","","html-button-response","133","663938","0.0-133.0","CD73943BC63040AC9182FBC0C2DD7D2C","019cf548-4940-785f-92fd-17adfa904e0d","019cf509-e3f1-72d9-bf6b-e2f1118fdaab","","1283","
                <div class=""stimulus-container"">
                    <img src=""images/schematic_sequence/hotel_scheme/hotel_scheme_6.png"" class=""exp-image"">
                    <div class=""question-area"">
                        <p style=""font-size: 20px; font-weight: bold; margin: 0;"">Is there a person in this image?</p>
                    </div>
                </div>","0","main_experiment_trial","6","hotel_scheme","schematic_sequence","","","","",""
"","","","","","html-keyboard-response","134","668950","0.0-134.0","CD73943BC63040AC9182FBC0C2DD7D2C","019cf548-4940-785f-92fd-17adfa904e0d","019cf509-e3f1-72d9-bf6b-e2f1118fdaab","","null","
                <div class=""stimulus-container"">
                    <img src=""images/schematic_sequence/hotel_scheme/hotel_scheme_7.png"" class=""exp-image"">
                    <div class=""question-area""></div> 
                </div>","null","","","","","","","","",""
"","","","","","html-button-response","135","669870","0.0-135.0","CD73943BC63040AC9182FBC0C2DD7D2C","019cf548-4940-785f-92fd-17adfa904e0d","019cf509-e3f1-72d9-bf6b-e2f1118fdaab","","918","
                <div class=""stimulus-container"">
                    <img src=""images/schematic_sequence/hotel_scheme/hotel_scheme_7.png"" class=""exp-image"">
                    <div class=""question-area"">
                        <p style=""font-size: 20px; font-weight: bold; margin: 0;"">Is there a person in this image?</p>
                    </div>
                </div>","0","main_experiment_trial","7","hotel_scheme","schematic_sequence","","","","",""
"","","","","","html-keyboard-response","136","674879","0.0-136.0","CD73943BC63040AC9182FBC0C2DD7D2C","019cf548-4940-785f-92fd-17adfa904e0d","019cf509-e3f1-72d9-bf6b-e2f1118fdaab","","null","
                <div class=""stimulus-container"">
                    <img src=""images/schematic_sequence/hotel_scheme/hotel_scheme_8.png"" class=""exp-image"">
                    <div class=""question-area""></div> 
                </div>","null","","","","","","","","",""
"","","","","","html-button-response","137","675791","0.0-137.0","CD73943BC63040AC9182FBC0C2DD7D2C","019cf548-4940-785f-92fd-17adfa904e0d","019cf509-e3f1-72d9-bf6b-e2f1118fdaab","","910","
                <div class=""stimulus-container"">
                    <img src=""images/schematic_sequence/hotel_scheme/hotel_scheme_8.png"" class=""exp-image"">
                    <div class=""question-area"">
                        <p style=""font-size: 20px; font-weight: bold; margin: 0;"">Is there a person in this image?</p>
                    </div>
                </div>","0","main_experiment_trial","8","hotel_scheme","schematic_sequence","","","","",""
"","","","","","html-keyboard-response","138","680803","0.0-138.0","CD73943BC63040AC9182FBC0C2DD7D2C","019cf548-4940-785f-92fd-17adfa904e0d","019cf509-e3f1-72d9-bf6b-e2f1118fdaab","","null","
                <div class=""stimulus-container"">
                    <img src=""images/schematic_sequence/hotel_scheme/hotel_scheme_9.png"" class=""exp-image"">
                    <div class=""question-area""></div> 
                </div>","null","","","","","","","","",""
"","","","","","html-button-response","139","681732","0.0-139.0","CD73943BC63040AC9182FBC0C2DD7D2C","019cf548-4940-785f-92fd-17adfa904e0d","019cf509-e3f1-72d9-bf6b-e2f1118fdaab","","926","
                <div class=""stimulus-container"">
                    <img src=""images/schematic_sequence/hotel_scheme/hotel_scheme_9.png"" class=""exp-image"">
                    <div class=""question-area"">
                        <p style=""font-size: 20px; font-weight: bold; margin: 0;"">Is there a person in this image?</p>
                    </div>
                </div>","0","main_experiment_trial","9","hotel_scheme","schematic_sequence","","","","",""
"","","","","","html-keyboard-response","140","686739","0.0-140.0","CD73943BC63040AC9182FBC0C2DD7D2C","019cf548-4940-785f-92fd-17adfa904e0d","019cf509-e3f1-72d9-bf6b-e2f1118fdaab","","null","
                <div class=""stimulus-container"">
                    <img src=""images/schematic_sequence/hotel_scheme/hotel_scheme_ten.png"" class=""exp-image"">
                    <div class=""question-area""></div> 
                </div>","null","","","","","","","","",""
"","","","","","html-button-response","141","687663","0.0-141.0","CD73943BC63040AC9182FBC0C2DD7D2C","019cf548-4940-785f-92fd-17adfa904e0d","019cf509-e3f1-72d9-bf6b-e2f1118fdaab","","922","
                <div class=""stimulus-container"">
                    <img src=""images/schematic_sequence/hotel_scheme/hotel_scheme_ten.png"" class=""exp-image"">
                    <div class=""question-area"">
                        <p style=""font-size: 20px; font-weight: bold; margin: 0;"">Is there a person in this image?</p>
                    </div>
                </div>","0","main_experiment_trial","ten","hotel_scheme","schematic_sequence","","","","",""
"","","","","","html-keyboard-response","142","688669","0.0-142.0","CD73943BC63040AC9182FBC0C2DD7D2C","019cf548-4940-785f-92fd-17adfa904e0d","019cf509-e3f1-72d9-bf6b-e2f1118fdaab","","null","<div style=""background-color: white; width: 100vw; height: 100vh;""></div>","null","","","","","","","","",""
"","","","","","html-keyboard-response","143","693675","0.0-143.0","CD73943BC63040AC9182FBC0C2DD7D2C","019cf548-4940-785f-92fd-17adfa904e0d","019cf509-e3f1-72d9-bf6b-e2f1118fdaab","","null","
                <div class=""stimulus-container"">
                    <img src=""images/causal_sequence/saving_a_cat_causal/saving_a_cat_causal_1.png"" class=""exp-image"">
                    <div class=""question-area""></div> 
                </div>","null","","","","","","","","",""
"","","","","","html-button-response","144","694676","0.0-144.0","CD73943BC63040AC9182FBC0C2DD7D2C","019cf548-4940-785f-92fd-17adfa904e0d","019cf509-e3f1-72d9-bf6b-e2f1118fdaab","","999","
                <div class=""stimulus-container"">
                    <img src=""images/causal_sequence/saving_a_cat_causal/saving_a_cat_causal_1.png"" class=""exp-image"">
                    <div class=""question-area"">
                        <p style=""font-size: 20px; font-weight: bold; margin: 0;"">Is there a person in this image?</p>
                    </div>
                </div>","0","main_experiment_trial","1","saving_a_cat_causal","causal_sequence","","","","",""
"","","","","","html-keyboard-response","145","699686","0.0-145.0","CD73943BC63040AC9182FBC0C2DD7D2C","019cf548-4940-785f-92fd-17adfa904e0d","019cf509-e3f1-72d9-bf6b-e2f1118fdaab","","null","
                <div class=""stimulus-container"">
                    <img src=""images/causal_sequence/saving_a_cat_causal/saving_a_cat_causal_2.png"" class=""exp-image"">
                    <div class=""question-area""></div> 
                </div>","null","","","","","","","","",""
"","","","","","html-button-response","146","701640","0.0-146.0","CD73943BC63040AC9182FBC0C2DD7D2C","019cf548-4940-785f-92fd-17adfa904e0d","019cf509-e3f1-72d9-bf6b-e2f1118fdaab","","1951","
                <div class=""stimulus-container"">
                    <img src=""images/causal_sequence/saving_a_cat_causal/saving_a_cat_causal_2.png"" class=""exp-image"">
                    <div class=""question-area"">
                        <p style=""font-size: 20px; font-weight: bold; margin: 0;"">Is there a person in this image?</p>
                    </div>
                </div>","1","main_experiment_trial","2","saving_a_cat_causal","causal_sequence","","","","",""
"","","","","","html-keyboard-response","147","706655","0.0-147.0","CD73943BC63040AC9182FBC0C2DD7D2C","019cf548-4940-785f-92fd-17adfa904e0d","019cf509-e3f1-72d9-bf6b-e2f1118fdaab","","null","
                <div class=""stimulus-container"">
                    <img src=""images/causal_sequence/saving_a_cat_causal/saving_a_cat_causal_3.png"" class=""exp-image"">
                    <div class=""question-area""></div> 
                </div>","null","","","","","","","","",""
"","","","","","html-button-response","148","708139","0.0-148.0","CD73943BC63040AC9182FBC0C2DD7D2C","019cf548-4940-785f-92fd-17adfa904e0d","019cf509-e3f1-72d9-bf6b-e2f1118fdaab","","1483","
                <div class=""stimulus-container"">
                    <img src=""images/causal_sequence/saving_a_cat_causal/saving_a_cat_causal_3.png"" class=""exp-image"">
                    <div class=""question-area"">
                        <p style=""font-size: 20px; font-weight: bold; margin: 0;"">Is there a person in this image?</p>
                    </div>
                </div>","1","main_experiment_trial","3","saving_a_cat_causal","causal_sequence","","","","",""
"","","","","","html-keyboard-response","149","713140","0.0-149.0","CD73943BC63040AC9182FBC0C2DD7D2C","019cf548-4940-785f-92fd-17adfa904e0d","019cf509-e3f1-72d9-bf6b-e2f1118fdaab","","null","
                <div class=""stimulus-container"">
                    <img src=""images/causal_sequence/saving_a_cat_causal/saving_a_cat_causal_4.png"" class=""exp-image"">
                    <div class=""question-area""></div> 
                </div>","null","","","","","","","","",""
"","","","","","html-button-response","150","714204","0.0-150.0","CD73943BC63040AC9182FBC0C2DD7D2C","019cf548-4940-785f-92fd-17adfa904e0d","019cf509-e3f1-72d9-bf6b-e2f1118fdaab","","1062","
                <div class=""stimulus-container"">
                    <img src=""images/causal_sequence/saving_a_cat_causal/saving_a_cat_causal_4.png"" class=""exp-image"">
                    <div class=""question-area"">
                        <p style=""font-size: 20px; font-weight: bold; margin: 0;"">Is there a person in this image?</p>
                    </div>
                </div>","0","main_experiment_trial","4","saving_a_cat_causal","causal_sequence","","","","",""
"","","","","","html-keyboard-response","151","719219","0.0-151.0","CD73943BC63040AC9182FBC0C2DD7D2C","019cf548-4940-785f-92fd-17adfa904e0d","019cf509-e3f1-72d9-bf6b-e2f1118fdaab","","null","
                <div class=""stimulus-container"">
                    <img src=""images/causal_sequence/saving_a_cat_causal/saving_a_cat_causal_5.png"" class=""exp-image"">
                    <div class=""question-area""></div> 
                </div>","null","","","","","","","","",""
"","","","","","html-button-response","152","720290","0.0-152.0","CD73943BC63040AC9182FBC0C2DD7D2C","019cf548-4940-785f-92fd-17adfa904e0d","019cf509-e3f1-72d9-bf6b-e2f1118fdaab","","1069","
                <div class=""stimulus-container"">
                    <img src=""images/causal_sequence/saving_a_cat_causal/saving_a_cat_causal_5.png"" class=""exp-image"">
                    <div class=""question-area"">
                        <p style=""font-size: 20px; font-weight: bold; margin: 0;"">Is there a person in this image?</p>
                    </div>
                </div>","0","main_experiment_trial","5","saving_a_cat_causal","causal_sequence","","","","",""
"","","","","","html-keyboard-response","153","725298","0.0-153.0","CD73943BC63040AC9182FBC0C2DD7D2C","019cf548-4940-785f-92fd-17adfa904e0d","019cf509-e3f1-72d9-bf6b-e2f1118fdaab","","null","
                <div class=""stimulus-container"">
                    <img src=""images/causal_sequence/saving_a_cat_causal/saving_a_cat_causal_6.png"" class=""exp-image"">
                    <div class=""question-area""></div> 
                </div>","null","","","","","","","","",""
"","","","","","html-button-response","154","726179","0.0-154.0","CD73943BC63040AC9182FBC0C2DD7D2C","019cf548-4940-785f-92fd-17adfa904e0d","019cf509-e3f1-72d9-bf6b-e2f1118fdaab","","879","
                <div class=""stimulus-container"">
                    <img src=""images/causal_sequence/saving_a_cat_causal/saving_a_cat_causal_6.png"" class=""exp-image"">
                    <div class=""question-area"">
                        <p style=""font-size: 20px; font-weight: bold; margin: 0;"">Is there a person in this image?</p>
                    </div>
                </div>","0","main_experiment_trial","6","saving_a_cat_causal","causal_sequence","","","","",""
"","","","","","html-keyboard-response","155","731184","0.0-155.0","CD73943BC63040AC9182FBC0C2DD7D2C","019cf548-4940-785f-92fd-17adfa904e0d","019cf509-e3f1-72d9-bf6b-e2f1118fdaab","","null","
                <div class=""stimulus-container"">
                    <img src=""images/causal_sequence/saving_a_cat_causal/saving_a_cat_causal_7.png"" class=""exp-image"">
                    <div class=""question-area""></div> 
                </div>","null","","","","","","","","",""
"","","","","","html-button-response","156","732068","0.0-156.0","CD73943BC63040AC9182FBC0C2DD7D2C","019cf548-4940-785f-92fd-17adfa904e0d","019cf509-e3f1-72d9-bf6b-e2f1118fdaab","","883","
                <div class=""stimulus-container"">
                    <img src=""images/causal_sequence/saving_a_cat_causal/saving_a_cat_causal_7.png"" class=""exp-image"">
                    <div class=""question-area"">
                        <p style=""font-size: 20px; font-weight: bold; margin: 0;"">Is there a person in this image?</p>
                    </div>
                </div>","0","main_experiment_trial","7","saving_a_cat_causal","causal_sequence","","","","",""
"","","","","","html-keyboard-response","157","737074","0.0-157.0","CD73943BC63040AC9182FBC0C2DD7D2C","019cf548-4940-785f-92fd-17adfa904e0d","019cf509-e3f1-72d9-bf6b-e2f1118fdaab","","null","
                <div class=""stimulus-container"">
                    <img src=""images/causal_sequence/saving_a_cat_causal/saving_a_cat_causal_8.png"" class=""exp-image"">
                    <div class=""question-area""></div> 
                </div>","null","","","","","","","","",""
"","","","","","html-button-response","158","738132","0.0-158.0","CD73943BC63040AC9182FBC0C2DD7D2C","019cf548-4940-785f-92fd-17adfa904e0d","019cf509-e3f1-72d9-bf6b-e2f1118fdaab","","1056","
                <div class=""stimulus-container"">
                    <img src=""images/causal_sequence/saving_a_cat_causal/saving_a_cat_causal_8.png"" class=""exp-image"">
                    <div class=""question-area"">
                        <p style=""font-size: 20px; font-weight: bold; margin: 0;"">Is there a person in this image?</p>
                    </div>
                </div>","0","main_experiment_trial","8","saving_a_cat_causal","causal_sequence","","","","",""
"","","","","","html-keyboard-response","159","743145","0.0-159.0","CD73943BC63040AC9182FBC0C2DD7D2C","019cf548-4940-785f-92fd-17adfa904e0d","019cf509-e3f1-72d9-bf6b-e2f1118fdaab","","null","
                <div class=""stimulus-container"">
                    <img src=""images/causal_sequence/saving_a_cat_causal/saving_a_cat_causal_9.png"" class=""exp-image"">
                    <div class=""question-area""></div> 
                </div>","null","","","","","","","","",""
"","","","","","html-button-response","160","744230","0.0-160.0","CD73943BC63040AC9182FBC0C2DD7D2C","019cf548-4940-785f-92fd-17adfa904e0d","019cf509-e3f1-72d9-bf6b-e2f1118fdaab","","1083","
                <div class=""stimulus-container"">
                    <img src=""images/causal_sequence/saving_a_cat_causal/saving_a_cat_causal_9.png"" class=""exp-image"">
                    <div class=""question-area"">
                        <p style=""font-size: 20px; font-weight: bold; margin: 0;"">Is there a person in this image?</p>
                    </div>
                </div>","0","main_experiment_trial","9","saving_a_cat_causal","causal_sequence","","","","",""
"","","","","","html-keyboard-response","161","749247","0.0-161.0","CD73943BC63040AC9182FBC0C2DD7D2C","019cf548-4940-785f-92fd-17adfa904e0d","019cf509-e3f1-72d9-bf6b-e2f1118fdaab","","null","
                <div class=""stimulus-container"">
                    <img src=""images/causal_sequence/saving_a_cat_causal/saving_a_cat_causal_ten.png"" class=""exp-image"">
                    <div class=""question-area""></div> 
                </div>","null","","","","","","","","",""
"","","","","","html-button-response","162","750248","0.0-162.0","CD73943BC63040AC9182FBC0C2DD7D2C","019cf548-4940-785f-92fd-17adfa904e0d","019cf509-e3f1-72d9-bf6b-e2f1118fdaab","","998","
                <div class=""stimulus-container"">
                    <img src=""images/causal_sequence/saving_a_cat_causal/saving_a_cat_causal_ten.png"" class=""exp-image"">
                    <div class=""question-area"">
                        <p style=""font-size: 20px; font-weight: bold; margin: 0;"">Is there a person in this image?</p>
                    </div>
                </div>","0","main_experiment_trial","ten","saving_a_cat_causal","causal_sequence","","","","",""
"","","","","","html-keyboard-response","163","751262","0.0-163.0","CD73943BC63040AC9182FBC0C2DD7D2C","019cf548-4940-785f-92fd-17adfa904e0d","019cf509-e3f1-72d9-bf6b-e2f1118fdaab","","null","<div style=""background-color: white; width: 100vw; height: 100vh;""></div>","null","","","","","","","","",""
"","","","","","html-keyboard-response","164","756268","0.0-164.0","CD73943BC63040AC9182FBC0C2DD7D2C","019cf548-4940-785f-92fd-17adfa904e0d","019cf509-e3f1-72d9-bf6b-e2f1118fdaab","","null","
                <div class=""stimulus-container"">
                    <img src=""images/schematic_sequence/supermarket_scheme/supermarket_scheme_1.png"" class=""exp-image"">
                    <div class=""question-area""></div> 
                </div>","null","","","","","","","","",""
"","","","","","html-button-response","165","757704","0.0-165.0","CD73943BC63040AC9182FBC0C2DD7D2C","019cf548-4940-785f-92fd-17adfa904e0d","019cf509-e3f1-72d9-bf6b-e2f1118fdaab","","1434","
                <div class=""stimulus-container"">
                    <img src=""images/schematic_sequence/supermarket_scheme/supermarket_scheme_1.png"" class=""exp-image"">
                    <div class=""question-area"">
                        <p style=""font-size: 20px; font-weight: bold; margin: 0;"">Is there a person in this image?</p>
                    </div>
                </div>","1","main_experiment_trial","1","supermarket_scheme","schematic_sequence","","","","",""
"","","","","","html-keyboard-response","166","762707","0.0-166.0","CD73943BC63040AC9182FBC0C2DD7D2C","019cf548-4940-785f-92fd-17adfa904e0d","019cf509-e3f1-72d9-bf6b-e2f1118fdaab","","null","
                <div class=""stimulus-container"">
                    <img src=""images/schematic_sequence/supermarket_scheme/supermarket_scheme_2.png"" class=""exp-image"">
                    <div class=""question-area""></div> 
                </div>","null","","","","","","","","",""
"","","","","","html-button-response","167","764080","0.0-167.0","CD73943BC63040AC9182FBC0C2DD7D2C","019cf548-4940-785f-92fd-17adfa904e0d","019cf509-e3f1-72d9-bf6b-e2f1118fdaab","","1370","
                <div class=""stimulus-container"">
                    <img src=""images/schematic_sequence/supermarket_scheme/supermarket_scheme_2.png"" class=""exp-image"">
                    <div class=""question-area"">
                        <p style=""font-size: 20px; font-weight: bold; margin: 0;"">Is there a person in this image?</p>
                    </div>
                </div>","1","main_experiment_trial","2","supermarket_scheme","schematic_sequence","","","","",""
"","","","","","html-keyboard-response","168","769092","0.0-168.0","CD73943BC63040AC9182FBC0C2DD7D2C","019cf548-4940-785f-92fd-17adfa904e0d","019cf509-e3f1-72d9-bf6b-e2f1118fdaab","","null","
                <div class=""stimulus-container"">
                    <img src=""images/schematic_sequence/supermarket_scheme/supermarket_scheme_3.png"" class=""exp-image"">
                    <div class=""question-area""></div> 
                </div>","null","","","","","","","","",""
"","","","","","html-button-response","169","770097","0.0-169.0","CD73943BC63040AC9182FBC0C2DD7D2C","019cf548-4940-785f-92fd-17adfa904e0d","019cf509-e3f1-72d9-bf6b-e2f1118fdaab","","1002","
                <div class=""stimulus-container"">
                    <img src=""images/schematic_sequence/supermarket_scheme/supermarket_scheme_3.png"" class=""exp-image"">
                    <div class=""question-area"">
                        <p style=""font-size: 20px; font-weight: bold; margin: 0;"">Is there a person in this image?</p>
                    </div>
                </div>","1","main_experiment_trial","3","supermarket_scheme","schematic_sequence","","","","",""
"","","","","","html-keyboard-response","170","775109","0.0-170.0","CD73943BC63040AC9182FBC0C2DD7D2C","019cf548-4940-785f-92fd-17adfa904e0d","019cf509-e3f1-72d9-bf6b-e2f1118fdaab","","null","
                <div class=""stimulus-container"">
                    <img src=""images/schematic_sequence/supermarket_scheme/supermarket_scheme_4.png"" class=""exp-image"">
                    <div class=""question-area""></div> 
                </div>","null","","","","","","","","",""
"","","","","","html-button-response","171","776526","0.0-171.0","CD73943BC63040AC9182FBC0C2DD7D2C","019cf548-4940-785f-92fd-17adfa904e0d","019cf509-e3f1-72d9-bf6b-e2f1118fdaab","","1416","
                <div class=""stimulus-container"">
                    <img src=""images/schematic_sequence/supermarket_scheme/supermarket_scheme_4.png"" class=""exp-image"">
                    <div class=""question-area"">
                        <p style=""font-size: 20px; font-weight: bold; margin: 0;"">Is there a person in this image?</p>
                    </div>
                </div>","0","main_experiment_trial","4","supermarket_scheme","schematic_sequence","","","","",""
"","","","","","html-keyboard-response","172","781543","0.0-172.0","CD73943BC63040AC9182FBC0C2DD7D2C","019cf548-4940-785f-92fd-17adfa904e0d","019cf509-e3f1-72d9-bf6b-e2f1118fdaab","","null","
                <div class=""stimulus-container"">
                    <img src=""images/schematic_sequence/supermarket_scheme/supermarket_scheme_5.png"" class=""exp-image"">
                    <div class=""question-area""></div> 
                </div>","null","","","","","","","","",""
"","","","","","html-button-response","173","783014","0.0-173.0","CD73943BC63040AC9182FBC0C2DD7D2C","019cf548-4940-785f-92fd-17adfa904e0d","019cf509-e3f1-72d9-bf6b-e2f1118fdaab","","1469","
                <div class=""stimulus-container"">
                    <img src=""images/schematic_sequence/supermarket_scheme/supermarket_scheme_5.png"" class=""exp-image"">
                    <div class=""question-area"">
                        <p style=""font-size: 20px; font-weight: bold; margin: 0;"">Is there a person in this image?</p>
                    </div>
                </div>","1","main_experiment_trial","5","supermarket_scheme","schematic_sequence","","","","",""
"","","","","","html-keyboard-response","174","788027","0.0-174.0","CD73943BC63040AC9182FBC0C2DD7D2C","019cf548-4940-785f-92fd-17adfa904e0d","019cf509-e3f1-72d9-bf6b-e2f1118fdaab","","null","
                <div class=""stimulus-container"">
                    <img src=""images/schematic_sequence/supermarket_scheme/supermarket_scheme_6.png"" class=""exp-image"">
                    <div class=""question-area""></div> 
                </div>","null","","","","","","","","",""
"","","","","","html-button-response","175","789444","0.0-175.0","CD73943BC63040AC9182FBC0C2DD7D2C","019cf548-4940-785f-92fd-17adfa904e0d","019cf509-e3f1-72d9-bf6b-e2f1118fdaab","","1414","
                <div class=""stimulus-container"">
                    <img src=""images/schematic_sequence/supermarket_scheme/supermarket_scheme_6.png"" class=""exp-image"">
                    <div class=""question-area"">
                        <p style=""font-size: 20px; font-weight: bold; margin: 0;"">Is there a person in this image?</p>
                    </div>
                </div>","0","main_experiment_trial","6","supermarket_scheme","schematic_sequence","","","","",""
"","","","","","html-keyboard-response","176","794460","0.0-176.0","CD73943BC63040AC9182FBC0C2DD7D2C","019cf548-4940-785f-92fd-17adfa904e0d","019cf509-e3f1-72d9-bf6b-e2f1118fdaab","","null","
                <div class=""stimulus-container"">
                    <img src=""images/schematic_sequence/supermarket_scheme/supermarket_scheme_7.png"" class=""exp-image"">
                    <div class=""question-area""></div> 
                </div>","null","","","","","","","","",""
"","","","","","html-button-response","177","795745","0.0-177.0","CD73943BC63040AC9182FBC0C2DD7D2C","019cf548-4940-785f-92fd-17adfa904e0d","019cf509-e3f1-72d9-bf6b-e2f1118fdaab","","1284","
                <div class=""stimulus-container"">
                    <img src=""images/schematic_sequence/supermarket_scheme/supermarket_scheme_7.png"" class=""exp-image"">
                    <div class=""question-area"">
                        <p style=""font-size: 20px; font-weight: bold; margin: 0;"">Is there a person in this image?</p>
                    </div>
                </div>","0","main_experiment_trial","7","supermarket_scheme","schematic_sequence","","","","",""
"","","","","","html-keyboard-response","178","800746","0.0-178.0","CD73943BC63040AC9182FBC0C2DD7D2C","019cf548-4940-785f-92fd-17adfa904e0d","019cf509-e3f1-72d9-bf6b-e2f1118fdaab","","null","
                <div class=""stimulus-container"">
                    <img src=""images/schematic_sequence/supermarket_scheme/supermarket_scheme_8.png"" class=""exp-image"">
                    <div class=""question-area""></div> 
                </div>","null","","","","","","","","",""
"","","","","","html-button-response","179","801832","0.0-179.0","CD73943BC63040AC9182FBC0C2DD7D2C","019cf548-4940-785f-92fd-17adfa904e0d","019cf509-e3f1-72d9-bf6b-e2f1118fdaab","","1084","
                <div class=""stimulus-container"">
                    <img src=""images/schematic_sequence/supermarket_scheme/supermarket_scheme_8.png"" class=""exp-image"">
                    <div class=""question-area"">
                        <p style=""font-size: 20px; font-weight: bold; margin: 0;"">Is there a person in this image?</p>
                    </div>
                </div>","0","main_experiment_trial","8","supermarket_scheme","schematic_sequence","","","","",""
"","","","","","html-keyboard-response","180","806840","0.0-180.0","CD73943BC63040AC9182FBC0C2DD7D2C","019cf548-4940-785f-92fd-17adfa904e0d","019cf509-e3f1-72d9-bf6b-e2f1118fdaab","","null","
                <div class=""stimulus-container"">
                    <img src=""images/schematic_sequence/supermarket_scheme/supermarket_scheme_9.png"" class=""exp-image"">
                    <div class=""question-area""></div> 
                </div>","null","","","","","","","","",""
"","","","","","html-button-response","181","807811","0.0-181.0","CD73943BC63040AC9182FBC0C2DD7D2C","019cf548-4940-785f-92fd-17adfa904e0d","019cf509-e3f1-72d9-bf6b-e2f1118fdaab","","969","
                <div class=""stimulus-container"">
                    <img src=""images/schematic_sequence/supermarket_scheme/supermarket_scheme_9.png"" class=""exp-image"">
                    <div class=""question-area"">
                        <p style=""font-size: 20px; font-weight: bold; margin: 0;"">Is there a person in this image?</p>
                    </div>
                </div>","0","main_experiment_trial","9","supermarket_scheme","schematic_sequence","","","","",""
"","","","","","html-keyboard-response","182","812824","0.0-182.0","CD73943BC63040AC9182FBC0C2DD7D2C","019cf548-4940-785f-92fd-17adfa904e0d","019cf509-e3f1-72d9-bf6b-e2f1118fdaab","","null","
                <div class=""stimulus-container"">
                    <img src=""images/schematic_sequence/supermarket_scheme/supermarket_scheme_ten.png"" class=""exp-image"">
                    <div class=""question-area""></div> 
                </div>","null","","","","","","","","",""
"","","","","","html-button-response","183","814684","0.0-183.0","CD73943BC63040AC9182FBC0C2DD7D2C","019cf548-4940-785f-92fd-17adfa904e0d","019cf509-e3f1-72d9-bf6b-e2f1118fdaab","","1860","
                <div class=""stimulus-container"">
                    <img src=""images/schematic_sequence/supermarket_scheme/supermarket_scheme_ten.png"" class=""exp-image"">
                    <div class=""question-area"">
