"success","timeout","failed_images","failed_audio","failed_video","trial_type","trial_index","time_elapsed","internal_node_id","subject_id","study_id","session_id","view_history","rt","stimulus","response","task","image_index","folder","sequence_type","presentation_order","valuable_image_index","reward_type","distance_from_x","target_X","chosen_image_index","is_x_plus_dist","correct_choice"
"true","false","[]","[]","[]","preload","0","4760","0.0-0.0","9D058A02A7D3455BA2298DB86D4492CB","019cfa4b-9b17-7576-8f84-3bb02b0e1cde","019cfa3a-388e-72ab-ad58-bdeb258f96cd","","","","","","","","","","","","","","","",""
"","","","","","instructions","1","6808","0.0-1.0","9D058A02A7D3455BA2298DB86D4492CB","019cfa4b-9b17-7576-8f84-3bb02b0e1cde","019cfa3a-388e-72ab-ad58-bdeb258f96cd","[{""page_index"":0,""viewing_time"":2048}]","2048","","","","","","","","","","","","","",""
"","","","","","instructions","2","10240","0.0-2.0","9D058A02A7D3455BA2298DB86D4492CB","019cfa4b-9b17-7576-8f84-3bb02b0e1cde","019cfa3a-388e-72ab-ad58-bdeb258f96cd","[{""page_index"":0,""viewing_time"":3430}]","3430","","","","","","","","","","","","","",""
"true","","","","","fullscreen","3","92557","0.0-3.0","9D058A02A7D3455BA2298DB86D4492CB","019cfa4b-9b17-7576-8f84-3bb02b0e1cde","019cfa3a-388e-72ab-ad58-bdeb258f96cd","","81316","","","","","","","","","","","","","",""
"","","","","","instructions","4","108215","0.0-4.0","9D058A02A7D3455BA2298DB86D4492CB","019cfa4b-9b17-7576-8f84-3bb02b0e1cde","019cfa3a-388e-72ab-ad58-bdeb258f96cd","[{""page_index"":0,""viewing_time"":15656}]","15656","","","","","","","","","","","","","",""
"","","","","","instructions","5","118039","0.0-5.0","9D058A02A7D3455BA2298DB86D4492CB","019cfa4b-9b17-7576-8f84-3bb02b0e1cde","019cfa3a-388e-72ab-ad58-bdeb258f96cd","[{""page_index"":0,""viewing_time"":9824}]","9824","","","","","","","","","","","","","",""
"","","","","","html-keyboard-response","6","122040","0.0-6.0","9D058A02A7D3455BA2298DB86D4492CB","019cfa4b-9b17-7576-8f84-3bb02b0e1cde","019cfa3a-388e-72ab-ad58-bdeb258f96cd","","null","
                <div class=""stimulus-container"">
                    <img src=""images/instructions/movie_1.png"" class=""exp-image"">
                    <div class=""question-area""></div> 
                </div>","null","","","","","","","","","","","",""
"","","","","","html-button-response","7","125091","0.0-7.0","9D058A02A7D3455BA2298DB86D4492CB","019cfa4b-9b17-7576-8f84-3bb02b0e1cde","019cfa3a-388e-72ab-ad58-bdeb258f96cd","","3051","
                <div class=""stimulus-container"">
                    <img src=""images/instructions/movie_1.png"" class=""exp-image"">
                    <div class=""question-area"">
                        <p style=""font-size: 20px; font-weight: bold; margin: 0;"">Was there a person in this image?</p>
                    </div>
                </div>","0","example_question","1","","","","","","","","","",""
"","","","","","html-keyboard-response","8","129208","0.0-8.0","9D058A02A7D3455BA2298DB86D4492CB","019cfa4b-9b17-7576-8f84-3bb02b0e1cde","019cfa3a-388e-72ab-ad58-bdeb258f96cd","","null","
                <div class=""stimulus-container"">
                    <img src=""images/instructions/movie_2.png"" class=""exp-image"">
                    <div class=""question-area""></div> 
                </div>","null","","","","","","","","","","","",""
"","","","","","html-button-response","9","131635","0.0-9.0","9D058A02A7D3455BA2298DB86D4492CB","019cfa4b-9b17-7576-8f84-3bb02b0e1cde","019cfa3a-388e-72ab-ad58-bdeb258f96cd","","2426","
                <div class=""stimulus-container"">
                    <img src=""images/instructions/movie_2.png"" class=""exp-image"">
                    <div class=""question-area"">
                        <p style=""font-size: 20px; font-weight: bold; margin: 0;"">Was there a person in this image?</p>
                    </div>
                </div>","1","example_question","2","","","","","","","","","",""
"","","","","","html-keyboard-response","10","135683","0.0-10.0","9D058A02A7D3455BA2298DB86D4492CB","019cfa4b-9b17-7576-8f84-3bb02b0e1cde","019cfa3a-388e-72ab-ad58-bdeb258f96cd","","null","
                <div class=""stimulus-container"">
                    <img src=""images/instructions/movie_3.png"" class=""exp-image"">
                    <div class=""question-area""></div> 
                </div>","null","","","","","","","","","","","",""
"","","","","","html-button-response","11","137246","0.0-11.0","9D058A02A7D3455BA2298DB86D4492CB","019cfa4b-9b17-7576-8f84-3bb02b0e1cde","019cfa3a-388e-72ab-ad58-bdeb258f96cd","","1563","
                <div class=""stimulus-container"">
                    <img src=""images/instructions/movie_3.png"" class=""exp-image"">
                    <div class=""question-area"">
                        <p style=""font-size: 20px; font-weight: bold; margin: 0;"">Was there a person in this image?</p>
                    </div>
                </div>","0","example_question","3","","","","","","","","","",""
"","","","","","html-keyboard-response","12","141248","0.0-12.0","9D058A02A7D3455BA2298DB86D4492CB","019cfa4b-9b17-7576-8f84-3bb02b0e1cde","019cfa3a-388e-72ab-ad58-bdeb258f96cd","","null","
                <div class=""stimulus-container"">
                    <img src=""images/instructions/movie_4.png"" class=""exp-image"">
                    <div class=""question-area""></div> 
                </div>","null","","","","","","","","","","","",""
"","","","","","html-button-response","13","142256","0.0-13.0","9D058A02A7D3455BA2298DB86D4492CB","019cfa4b-9b17-7576-8f84-3bb02b0e1cde","019cfa3a-388e-72ab-ad58-bdeb258f96cd","","1008","
                <div class=""stimulus-container"">
                    <img src=""images/instructions/movie_4.png"" class=""exp-image"">
                    <div class=""question-area"">
                        <p style=""font-size: 20px; font-weight: bold; margin: 0;"">Was there a person in this image?</p>
                    </div>
                </div>","0","example_question","4","","","","","","","","","",""
"","","","","","instructions","14","145994","0.0-14.0","9D058A02A7D3455BA2298DB86D4492CB","019cfa4b-9b17-7576-8f84-3bb02b0e1cde","019cfa3a-388e-72ab-ad58-bdeb258f96cd","[{""page_index"":0,""viewing_time"":3738}]","3738","","","","","","","","","","","","","",""
"","","","","","instructions","15","147929","0.0-15.0","9D058A02A7D3455BA2298DB86D4492CB","019cfa4b-9b17-7576-8f84-3bb02b0e1cde","019cfa3a-388e-72ab-ad58-bdeb258f96cd","[{""page_index"":0,""viewing_time"":1933}]","1933","","","","","","","","","","","","","",""
"","","","","","html-keyboard-response","16","153018","0.0-16.0","9D058A02A7D3455BA2298DB86D4492CB","019cfa4b-9b17-7576-8f84-3bb02b0e1cde","019cfa3a-388e-72ab-ad58-bdeb258f96cd","","null","<div style=""background-color: white; width: 100vw; height: 100vh;""></div>","null","","","","","","","","","","","",""
"","","","","","html-keyboard-response","17","154019","0.0-17.0","9D058A02A7D3455BA2298DB86D4492CB","019cfa4b-9b17-7576-8f84-3bb02b0e1cde","019cfa3a-388e-72ab-ad58-bdeb258f96cd","","null","
                <div class=""stimulus-container"">
                    <img src=""images/semantic_sequence/physical_activity_semantic/physical_activity_semantic_1.png"" class=""exp-image"">
                    <div class=""question-area""></div> 
                </div>","null","","","","","","","","","","","",""
"","","","","","html-button-response","18","156233","0.0-18.0","9D058A02A7D3455BA2298DB86D4492CB","019cfa4b-9b17-7576-8f84-3bb02b0e1cde","019cfa3a-388e-72ab-ad58-bdeb258f96cd","","2214","
                <div class=""stimulus-container"">
                    <img src=""images/semantic_sequence/physical_activity_semantic/physical_activity_semantic_1.png"" class=""exp-image"">
                    <div class=""question-area"">
                        <p style=""font-size: 20px; font-weight: bold; margin: 0;"">Is there a person in this image?</p>
                    </div>
                </div>","0","main_experiment_trial","1","physical_activity_semantic","semantic_sequence","chronological","","","","","","",""
"","","","","","html-keyboard-response","19","157233","0.0-19.0","9D058A02A7D3455BA2298DB86D4492CB","019cfa4b-9b17-7576-8f84-3bb02b0e1cde","019cfa3a-388e-72ab-ad58-bdeb258f96cd","","null","
                <div class=""stimulus-container"">
                    <img src=""images/semantic_sequence/physical_activity_semantic/physical_activity_semantic_2.png"" class=""exp-image"">
                    <div class=""question-area""></div> 
                </div>","null","","","","","","","","","","","",""
"","","","","","html-button-response","20","158654","0.0-20.0","9D058A02A7D3455BA2298DB86D4492CB","019cfa4b-9b17-7576-8f84-3bb02b0e1cde","019cfa3a-388e-72ab-ad58-bdeb258f96cd","","1421","
                <div class=""stimulus-container"">
                    <img src=""images/semantic_sequence/physical_activity_semantic/physical_activity_semantic_2.png"" class=""exp-image"">
                    <div class=""question-area"">
                        <p style=""font-size: 20px; font-weight: bold; margin: 0;"">Is there a person in this image?</p>
                    </div>
                </div>","0","main_experiment_trial","2","physical_activity_semantic","semantic_sequence","chronological","","","","","","",""
"","","","","","html-keyboard-response","21","159654","0.0-21.0","9D058A02A7D3455BA2298DB86D4492CB","019cfa4b-9b17-7576-8f84-3bb02b0e1cde","019cfa3a-388e-72ab-ad58-bdeb258f96cd","","null","
                <div class=""stimulus-container"">
                    <img src=""images/semantic_sequence/physical_activity_semantic/physical_activity_semantic_3.png"" class=""exp-image"">
                    <div class=""question-area""></div> 
                </div>","null","","","","","","","","","","","",""
"","","","","","html-button-response","22","160802","0.0-22.0","9D058A02A7D3455BA2298DB86D4492CB","019cfa4b-9b17-7576-8f84-3bb02b0e1cde","019cfa3a-388e-72ab-ad58-bdeb258f96cd","","1147","
                <div class=""stimulus-container"">
                    <img src=""images/semantic_sequence/physical_activity_semantic/physical_activity_semantic_3.png"" class=""exp-image"">
                    <div class=""question-area"">
                        <p style=""font-size: 20px; font-weight: bold; margin: 0;"">Is there a person in this image?</p>
                    </div>
                </div>","0","main_experiment_trial","3","physical_activity_semantic","semantic_sequence","chronological","","","","","","",""
"","","","","","html-keyboard-response","23","161802","0.0-23.0","9D058A02A7D3455BA2298DB86D4492CB","019cfa4b-9b17-7576-8f84-3bb02b0e1cde","019cfa3a-388e-72ab-ad58-bdeb258f96cd","","null","
                <div class=""stimulus-container"">
                    <img src=""images/semantic_sequence/physical_activity_semantic/physical_activity_semantic_4.png"" class=""exp-image"">
                    <div class=""question-area""></div> 
                </div>","null","","","","","","","","","","","",""
"","","","","","html-button-response","24","162829","0.0-24.0","9D058A02A7D3455BA2298DB86D4492CB","019cfa4b-9b17-7576-8f84-3bb02b0e1cde","019cfa3a-388e-72ab-ad58-bdeb258f96cd","","1026","
                <div class=""stimulus-container"">
                    <img src=""images/semantic_sequence/physical_activity_semantic/physical_activity_semantic_4.png"" class=""exp-image"">
                    <div class=""question-area"">
                        <p style=""font-size: 20px; font-weight: bold; margin: 0;"">Is there a person in this image?</p>
                    </div>
                </div>","0","main_experiment_trial","4","physical_activity_semantic","semantic_sequence","chronological","","","","","","",""
"","","","","","html-keyboard-response","25","163829","0.0-25.0","9D058A02A7D3455BA2298DB86D4492CB","019cfa4b-9b17-7576-8f84-3bb02b0e1cde","019cfa3a-388e-72ab-ad58-bdeb258f96cd","","null","
                <div class=""stimulus-container"">
                    <img src=""images/semantic_sequence/physical_activity_semantic/physical_activity_semantic_5.png"" class=""exp-image"">
                    <div class=""question-area""></div> 
                </div>","null","","","","","","","","","","","",""
"","","","","","html-button-response","26","164937","0.0-26.0","9D058A02A7D3455BA2298DB86D4492CB","019cfa4b-9b17-7576-8f84-3bb02b0e1cde","019cfa3a-388e-72ab-ad58-bdeb258f96cd","","1108","
                <div class=""stimulus-container"">
                    <img src=""images/semantic_sequence/physical_activity_semantic/physical_activity_semantic_5.png"" class=""exp-image"">
                    <div class=""question-area"">
                        <p style=""font-size: 20px; font-weight: bold; margin: 0;"">Is there a person in this image?</p>
                    </div>
                </div>","0","main_experiment_trial","5","physical_activity_semantic","semantic_sequence","chronological","","","","","","",""
"","","","","","html-keyboard-response","27","165937","0.0-27.0","9D058A02A7D3455BA2298DB86D4492CB","019cfa4b-9b17-7576-8f84-3bb02b0e1cde","019cfa3a-388e-72ab-ad58-bdeb258f96cd","","null","
                <div class=""stimulus-container"">
                    <img src=""images/semantic_sequence/physical_activity_semantic/physical_activity_semantic_6.png"" class=""exp-image"">
                    <div class=""question-area""></div> 
                </div>","null","","","","","","","","","","","",""
"","","","","","html-button-response","28","166797","0.0-28.0","9D058A02A7D3455BA2298DB86D4492CB","019cfa4b-9b17-7576-8f84-3bb02b0e1cde","019cfa3a-388e-72ab-ad58-bdeb258f96cd","","859","
                <div class=""stimulus-container"">
                    <img src=""images/semantic_sequence/physical_activity_semantic/physical_activity_semantic_6.png"" class=""exp-image"">
                    <div class=""question-area"">
                        <p style=""font-size: 20px; font-weight: bold; margin: 0;"">Is there a person in this image?</p>
                    </div>
                </div>","0","main_experiment_trial","6","physical_activity_semantic","semantic_sequence","chronological","","","","","","",""
"","","","","","html-keyboard-response","29","167797","0.0-29.0","9D058A02A7D3455BA2298DB86D4492CB","019cfa4b-9b17-7576-8f84-3bb02b0e1cde","019cfa3a-388e-72ab-ad58-bdeb258f96cd","","null","
                <div class=""stimulus-container"">
                    <img src=""images/semantic_sequence/physical_activity_semantic/physical_activity_semantic_7.png"" class=""exp-image"">
                    <div class=""question-area""></div> 
                </div>","null","","","","","","","","","","","",""
"","","","","","html-button-response","30","168594","0.0-30.0","9D058A02A7D3455BA2298DB86D4492CB","019cfa4b-9b17-7576-8f84-3bb02b0e1cde","019cfa3a-388e-72ab-ad58-bdeb258f96cd","","795","
                <div class=""stimulus-container"">
                    <img src=""images/semantic_sequence/physical_activity_semantic/physical_activity_semantic_7.png"" class=""exp-image"">
                    <div class=""question-area"">
                        <p style=""font-size: 20px; font-weight: bold; margin: 0;"">Is there a person in this image?</p>
                    </div>
                </div>","0","main_experiment_trial","7","physical_activity_semantic","semantic_sequence","chronological","","","","","","",""
"","","","","","html-keyboard-response","31","169594","0.0-31.0","9D058A02A7D3455BA2298DB86D4492CB","019cfa4b-9b17-7576-8f84-3bb02b0e1cde","019cfa3a-388e-72ab-ad58-bdeb258f96cd","","null","
                <div class=""stimulus-container"">
                    <img src=""images/semantic_sequence/physical_activity_semantic/physical_activity_semantic_8.png"" class=""exp-image"">
                    <div class=""question-area""></div> 
                </div>","null","","","","","","","","","","","",""
"","","","","","html-button-response","32","170831","0.0-32.0","9D058A02A7D3455BA2298DB86D4492CB","019cfa4b-9b17-7576-8f84-3bb02b0e1cde","019cfa3a-388e-72ab-ad58-bdeb258f96cd","","1236","
                <div class=""stimulus-container"">
                    <img src=""images/semantic_sequence/physical_activity_semantic/physical_activity_semantic_8.png"" class=""exp-image"">
                    <div class=""question-area"">
                        <p style=""font-size: 20px; font-weight: bold; margin: 0;"">Is there a person in this image?</p>
                    </div>
                </div>","0","main_experiment_trial","8","physical_activity_semantic","semantic_sequence","chronological","","","","","","",""
"","","","","","html-keyboard-response","33","171831","0.0-33.0","9D058A02A7D3455BA2298DB86D4492CB","019cfa4b-9b17-7576-8f84-3bb02b0e1cde","019cfa3a-388e-72ab-ad58-bdeb258f96cd","","null","
                <div class=""stimulus-container"">
                    <img src=""images/semantic_sequence/physical_activity_semantic/physical_activity_semantic_9.png"" class=""exp-image"">
                    <div class=""question-area""></div> 
                </div>","null","","","","","","","","","","","",""
"","","","","","html-button-response","34","172751","0.0-34.0","9D058A02A7D3455BA2298DB86D4492CB","019cfa4b-9b17-7576-8f84-3bb02b0e1cde","019cfa3a-388e-72ab-ad58-bdeb258f96cd","","920","
                <div class=""stimulus-container"">
                    <img src=""images/semantic_sequence/physical_activity_semantic/physical_activity_semantic_9.png"" class=""exp-image"">
                    <div class=""question-area"">
                        <p style=""font-size: 20px; font-weight: bold; margin: 0;"">Is there a person in this image?</p>
                    </div>
                </div>","0","main_experiment_trial","9","physical_activity_semantic","semantic_sequence","chronological","","","","","","",""
"","","","","","html-keyboard-response","35","173751","0.0-35.0","9D058A02A7D3455BA2298DB86D4492CB","019cfa4b-9b17-7576-8f84-3bb02b0e1cde","019cfa3a-388e-72ab-ad58-bdeb258f96cd","","null","
                <div class=""stimulus-container"">
                    <img src=""images/semantic_sequence/physical_activity_semantic/physical_activity_semantic_ten.png"" class=""exp-image"">
                    <div class=""question-area""></div> 
                </div>","null","","","","","","","","","","","",""
"","","","","","html-button-response","36","174723","0.0-36.0","9D058A02A7D3455BA2298DB86D4492CB","019cfa4b-9b17-7576-8f84-3bb02b0e1cde","019cfa3a-388e-72ab-ad58-bdeb258f96cd","","973","
                <div class=""stimulus-container"">
                    <img src=""images/semantic_sequence/physical_activity_semantic/physical_activity_semantic_ten.png"" class=""exp-image"">
                    <div class=""question-area"">
                        <p style=""font-size: 20px; font-weight: bold; margin: 0;"">Is there a person in this image?</p>
                    </div>
                </div>","0","main_experiment_trial","ten","physical_activity_semantic","semantic_sequence","chronological","","","","","","",""
"","","","","","html-keyboard-response","37","179724","0.0-37.0","9D058A02A7D3455BA2298DB86D4492CB","019cfa4b-9b17-7576-8f84-3bb02b0e1cde","019cfa3a-388e-72ab-ad58-bdeb258f96cd","","null","<div style=""background-color: white; width: 100vw; height: 100vh;""></div>","null","","","","","","","","","","","",""
"","","","","","html-keyboard-response","38","180725","0.0-38.0","9D058A02A7D3455BA2298DB86D4492CB","019cfa4b-9b17-7576-8f84-3bb02b0e1cde","019cfa3a-388e-72ab-ad58-bdeb258f96cd","","null","
                <div class=""stimulus-container"">
                    <img src=""images/causal_sequence/museum_causal/museum_causal_1.png"" class=""exp-image"">
                    <div class=""question-area""></div> 
                </div>","null","","","","","","","","","","","",""
"","","","","","html-button-response","39","181996","0.0-39.0","9D058A02A7D3455BA2298DB86D4492CB","019cfa4b-9b17-7576-8f84-3bb02b0e1cde","019cfa3a-388e-72ab-ad58-bdeb258f96cd","","1271","
                <div class=""stimulus-container"">
                    <img src=""images/causal_sequence/museum_causal/museum_causal_1.png"" class=""exp-image"">
                    <div class=""question-area"">
                        <p style=""font-size: 20px; font-weight: bold; margin: 0;"">Is there a person in this image?</p>
                    </div>
                </div>","0","main_experiment_trial","1","museum_causal","causal_sequence","chronological","","","","","","",""
"","","","","","html-keyboard-response","40","182997","0.0-40.0","9D058A02A7D3455BA2298DB86D4492CB","019cfa4b-9b17-7576-8f84-3bb02b0e1cde","019cfa3a-388e-72ab-ad58-bdeb258f96cd","","null","
                <div class=""stimulus-container"">
                    <img src=""images/causal_sequence/museum_causal/museum_causal_2.png"" class=""exp-image"">
                    <div class=""question-area""></div> 
                </div>","null","","","","","","","","","","","",""
"","","","","","html-button-response","41","185414","0.0-41.0","9D058A02A7D3455BA2298DB86D4492CB","019cfa4b-9b17-7576-8f84-3bb02b0e1cde","019cfa3a-388e-72ab-ad58-bdeb258f96cd","","2417","
                <div class=""stimulus-container"">
                    <img src=""images/causal_sequence/museum_causal/museum_causal_2.png"" class=""exp-image"">
                    <div class=""question-area"">
                        <p style=""font-size: 20px; font-weight: bold; margin: 0;"">Is there a person in this image?</p>
                    </div>
                </div>","0","main_experiment_trial","2","museum_causal","causal_sequence","chronological","","","","","","",""
"","","","","","html-keyboard-response","42","186415","0.0-42.0","9D058A02A7D3455BA2298DB86D4492CB","019cfa4b-9b17-7576-8f84-3bb02b0e1cde","019cfa3a-388e-72ab-ad58-bdeb258f96cd","","null","
                <div class=""stimulus-container"">
                    <img src=""images/causal_sequence/museum_causal/museum_causal_3.png"" class=""exp-image"">
                    <div class=""question-area""></div> 
                </div>","null","","","","","","","","","","","",""
"","","","","","html-button-response","43","187926","0.0-43.0","9D058A02A7D3455BA2298DB86D4492CB","019cfa4b-9b17-7576-8f84-3bb02b0e1cde","019cfa3a-388e-72ab-ad58-bdeb258f96cd","","1510","
                <div class=""stimulus-container"">
                    <img src=""images/causal_sequence/museum_causal/museum_causal_3.png"" class=""exp-image"">
                    <div class=""question-area"">
                        <p style=""font-size: 20px; font-weight: bold; margin: 0;"">Is there a person in this image?</p>
                    </div>
                </div>","0","main_experiment_trial","3","museum_causal","causal_sequence","chronological","","","","","","",""
"","","","","","html-keyboard-response","44","188927","0.0-44.0","9D058A02A7D3455BA2298DB86D4492CB","019cfa4b-9b17-7576-8f84-3bb02b0e1cde","019cfa3a-388e-72ab-ad58-bdeb258f96cd","","null","
                <div class=""stimulus-container"">
                    <img src=""images/causal_sequence/museum_causal/museum_causal_4.png"" class=""exp-image"">
                    <div class=""question-area""></div> 
                </div>","null","","","","","","","","","","","",""
"","","","","","html-button-response","45","190517","0.0-45.0","9D058A02A7D3455BA2298DB86D4492CB","019cfa4b-9b17-7576-8f84-3bb02b0e1cde","019cfa3a-388e-72ab-ad58-bdeb258f96cd","","1591","
                <div class=""stimulus-container"">
                    <img src=""images/causal_sequence/museum_causal/museum_causal_4.png"" class=""exp-image"">
                    <div class=""question-area"">
                        <p style=""font-size: 20px; font-weight: bold; margin: 0;"">Is there a person in this image?</p>
                    </div>
                </div>","1","main_experiment_trial","4","museum_causal","causal_sequence","chronological","","","","","","",""
"","","","","","html-keyboard-response","46","191518","0.0-46.0","9D058A02A7D3455BA2298DB86D4492CB","019cfa4b-9b17-7576-8f84-3bb02b0e1cde","019cfa3a-388e-72ab-ad58-bdeb258f96cd","","null","
                <div class=""stimulus-container"">
                    <img src=""images/causal_sequence/museum_causal/museum_causal_5.png"" class=""exp-image"">
                    <div class=""question-area""></div> 
                </div>","null","","","","","","","","","","","",""
"","","","","","html-button-response","47","192768","0.0-47.0","9D058A02A7D3455BA2298DB86D4492CB","019cfa4b-9b17-7576-8f84-3bb02b0e1cde","019cfa3a-388e-72ab-ad58-bdeb258f96cd","","1249","
                <div class=""stimulus-container"">
                    <img src=""images/causal_sequence/museum_causal/museum_causal_5.png"" class=""exp-image"">
                    <div class=""question-area"">
                        <p style=""font-size: 20px; font-weight: bold; margin: 0;"">Is there a person in this image?</p>
                    </div>
                </div>","0","main_experiment_trial","5","museum_causal","causal_sequence","chronological","","","","","","",""
"","","","","","html-keyboard-response","48","193769","0.0-48.0","9D058A02A7D3455BA2298DB86D4492CB","019cfa4b-9b17-7576-8f84-3bb02b0e1cde","019cfa3a-388e-72ab-ad58-bdeb258f96cd","","null","
                <div class=""stimulus-container"">
                    <img src=""images/causal_sequence/museum_causal/museum_causal_6.png"" class=""exp-image"">
                    <div class=""question-area""></div> 
                </div>","null","","","","","","","","","","","",""
"","","","","","html-button-response","49","194930","0.0-49.0","9D058A02A7D3455BA2298DB86D4492CB","019cfa4b-9b17-7576-8f84-3bb02b0e1cde","019cfa3a-388e-72ab-ad58-bdeb258f96cd","","1160","
                <div class=""stimulus-container"">
                    <img src=""images/causal_sequence/museum_causal/museum_causal_6.png"" class=""exp-image"">
                    <div class=""question-area"">
                        <p style=""font-size: 20px; font-weight: bold; margin: 0;"">Is there a person in this image?</p>
                    </div>
                </div>","0","main_experiment_trial","6","museum_causal","causal_sequence","chronological","","","","","","",""
"","","","","","html-keyboard-response","50","195993","0.0-50.0","9D058A02A7D3455BA2298DB86D4492CB","019cfa4b-9b17-7576-8f84-3bb02b0e1cde","019cfa3a-388e-72ab-ad58-bdeb258f96cd","","null","
                <div class=""stimulus-container"">
                    <img src=""images/causal_sequence/museum_causal/museum_causal_7.png"" class=""exp-image"">
                    <div class=""question-area""></div> 
                </div>","null","","","","","","","","","","","",""
"","","","","","html-button-response","51","196693","0.0-51.0","9D058A02A7D3455BA2298DB86D4492CB","019cfa4b-9b17-7576-8f84-3bb02b0e1cde","019cfa3a-388e-72ab-ad58-bdeb258f96cd","","698","
                <div class=""stimulus-container"">
                    <img src=""images/causal_sequence/museum_causal/museum_causal_7.png"" class=""exp-image"">
                    <div class=""question-area"">
                        <p style=""font-size: 20px; font-weight: bold; margin: 0;"">Is there a person in this image?</p>
                    </div>
                </div>","1","main_experiment_trial","7","museum_causal","causal_sequence","chronological","","","","","","",""
"","","","","","html-keyboard-response","52","197694","0.0-52.0","9D058A02A7D3455BA2298DB86D4492CB","019cfa4b-9b17-7576-8f84-3bb02b0e1cde","019cfa3a-388e-72ab-ad58-bdeb258f96cd","","null","
                <div class=""stimulus-container"">
                    <img src=""images/causal_sequence/museum_causal/museum_causal_8.png"" class=""exp-image"">
                    <div class=""question-area""></div> 
                </div>","null","","","","","","","","","","","",""
"","","","","","html-button-response","53","198570","0.0-53.0","9D058A02A7D3455BA2298DB86D4492CB","019cfa4b-9b17-7576-8f84-3bb02b0e1cde","019cfa3a-388e-72ab-ad58-bdeb258f96cd","","875","
                <div class=""stimulus-container"">
                    <img src=""images/causal_sequence/museum_causal/museum_causal_8.png"" class=""exp-image"">
                    <div class=""question-area"">
                        <p style=""font-size: 20px; font-weight: bold; margin: 0;"">Is there a person in this image?</p>
                    </div>
                </div>","0","main_experiment_trial","8","museum_causal","causal_sequence","chronological","","","","","","",""
"","","","","","html-keyboard-response","54","199571","0.0-54.0","9D058A02A7D3455BA2298DB86D4492CB","019cfa4b-9b17-7576-8f84-3bb02b0e1cde","019cfa3a-388e-72ab-ad58-bdeb258f96cd","","null","
                <div class=""stimulus-container"">
                    <img src=""images/causal_sequence/museum_causal/museum_causal_9.png"" class=""exp-image"">
                    <div class=""question-area""></div> 
                </div>","null","","","","","","","","","","","",""
"","","","","","html-button-response","55","200786","0.0-55.0","9D058A02A7D3455BA2298DB86D4492CB","019cfa4b-9b17-7576-8f84-3bb02b0e1cde","019cfa3a-388e-72ab-ad58-bdeb258f96cd","","1215","
                <div class=""stimulus-container"">
                    <img src=""images/causal_sequence/museum_causal/museum_causal_9.png"" class=""exp-image"">
                    <div class=""question-area"">
                        <p style=""font-size: 20px; font-weight: bold; margin: 0;"">Is there a person in this image?</p>
                    </div>
                </div>","1","main_experiment_trial","9","museum_causal","causal_sequence","chronological","","","","","","",""
"","","","","","html-keyboard-response","56","201787","0.0-56.0","9D058A02A7D3455BA2298DB86D4492CB","019cfa4b-9b17-7576-8f84-3bb02b0e1cde","019cfa3a-388e-72ab-ad58-bdeb258f96cd","","null","
                <div class=""stimulus-container"">
                    <img src=""images/causal_sequence/museum_causal/museum_causal_ten.png"" class=""exp-image"">
                    <div class=""question-area""></div> 
                </div>","null","","","","","","","","","","","",""
"","","","","","html-button-response","57","202948","0.0-57.0","9D058A02A7D3455BA2298DB86D4492CB","019cfa4b-9b17-7576-8f84-3bb02b0e1cde","019cfa3a-388e-72ab-ad58-bdeb258f96cd","","1160","
                <div class=""stimulus-container"">
                    <img src=""images/causal_sequence/museum_causal/museum_causal_ten.png"" class=""exp-image"">
                    <div class=""question-area"">
                        <p style=""font-size: 20px; font-weight: bold; margin: 0;"">Is there a person in this image?</p>
                    </div>
                </div>","0","main_experiment_trial","ten","museum_causal","causal_sequence","chronological","","","","","","",""
"","","","","","html-keyboard-response","58","207949","0.0-58.0","9D058A02A7D3455BA2298DB86D4492CB","019cfa4b-9b17-7576-8f84-3bb02b0e1cde","019cfa3a-388e-72ab-ad58-bdeb258f96cd","","null","<div style=""background-color: white; width: 100vw; height: 100vh;""></div>","null","","","","","","","","","","","",""
"","","","","","html-keyboard-response","59","208950","0.0-59.0","9D058A02A7D3455BA2298DB86D4492CB","019cfa4b-9b17-7576-8f84-3bb02b0e1cde","019cfa3a-388e-72ab-ad58-bdeb258f96cd","","null","
                <div class=""stimulus-container"">
                    <img src=""images/semantic_sequence/using_technology_semantic/using_technology_semantic_1.png"" class=""exp-image"">
                    <div class=""question-area""></div> 
                </div>","null","","","","","","","","","","","",""
"","","","","","html-button-response","60","210051","0.0-60.0","9D058A02A7D3455BA2298DB86D4492CB","019cfa4b-9b17-7576-8f84-3bb02b0e1cde","019cfa3a-388e-72ab-ad58-bdeb258f96cd","","1101","
                <div class=""stimulus-container"">
                    <img src=""images/semantic_sequence/using_technology_semantic/using_technology_semantic_1.png"" class=""exp-image"">
                    <div class=""question-area"">
                        <p style=""font-size: 20px; font-weight: bold; margin: 0;"">Is there a person in this image?</p>
                    </div>
                </div>","0","main_experiment_trial","1","using_technology_semantic","semantic_sequence","chronological","","","","","","",""
"","","","","","html-keyboard-response","61","211052","0.0-61.0","9D058A02A7D3455BA2298DB86D4492CB","019cfa4b-9b17-7576-8f84-3bb02b0e1cde","019cfa3a-388e-72ab-ad58-bdeb258f96cd","","null","
                <div class=""stimulus-container"">
                    <img src=""images/semantic_sequence/using_technology_semantic/using_technology_semantic_2.png"" class=""exp-image"">
                    <div class=""question-area""></div> 
                </div>","null","","","","","","","","","","","",""
"","","","","","html-button-response","62","211814","0.0-62.0","9D058A02A7D3455BA2298DB86D4492CB","019cfa4b-9b17-7576-8f84-3bb02b0e1cde","019cfa3a-388e-72ab-ad58-bdeb258f96cd","","762","
                <div class=""stimulus-container"">
                    <img src=""images/semantic_sequence/using_technology_semantic/using_technology_semantic_2.png"" class=""exp-image"">
                    <div class=""question-area"">
                        <p style=""font-size: 20px; font-weight: bold; margin: 0;"">Is there a person in this image?</p>
                    </div>
                </div>","0","main_experiment_trial","2","using_technology_semantic","semantic_sequence","chronological","","","","","","",""
"","","","","","html-keyboard-response","63","212814","0.0-63.0","9D058A02A7D3455BA2298DB86D4492CB","019cfa4b-9b17-7576-8f84-3bb02b0e1cde","019cfa3a-388e-72ab-ad58-bdeb258f96cd","","null","
                <div class=""stimulus-container"">
                    <img src=""images/semantic_sequence/using_technology_semantic/using_technology_semantic_3.png"" class=""exp-image"">
                    <div class=""question-area""></div> 
                </div>","null","","","","","","","","","","","",""
"","","","","","html-button-response","64","213396","0.0-64.0","9D058A02A7D3455BA2298DB86D4492CB","019cfa4b-9b17-7576-8f84-3bb02b0e1cde","019cfa3a-388e-72ab-ad58-bdeb258f96cd","","581","
                <div class=""stimulus-container"">
                    <img src=""images/semantic_sequence/using_technology_semantic/using_technology_semantic_3.png"" class=""exp-image"">
                    <div class=""question-area"">
                        <p style=""font-size: 20px; font-weight: bold; margin: 0;"">Is there a person in this image?</p>
                    </div>
                </div>","0","main_experiment_trial","3","using_technology_semantic","semantic_sequence","chronological","","","","","","",""
"","","","","","html-keyboard-response","65","214397","0.0-65.0","9D058A02A7D3455BA2298DB86D4492CB","019cfa4b-9b17-7576-8f84-3bb02b0e1cde","019cfa3a-388e-72ab-ad58-bdeb258f96cd","","null","
                <div class=""stimulus-container"">
                    <img src=""images/semantic_sequence/using_technology_semantic/using_technology_semantic_4.png"" class=""exp-image"">
                    <div class=""question-area""></div> 
                </div>","null","","","","","","","","","","","",""
"","","","","","html-button-response","66","215109","0.0-66.0","9D058A02A7D3455BA2298DB86D4492CB","019cfa4b-9b17-7576-8f84-3bb02b0e1cde","019cfa3a-388e-72ab-ad58-bdeb258f96cd","","710","
                <div class=""stimulus-container"">
                    <img src=""images/semantic_sequence/using_technology_semantic/using_technology_semantic_4.png"" class=""exp-image"">
                    <div class=""question-area"">
                        <p style=""font-size: 20px; font-weight: bold; margin: 0;"">Is there a person in this image?</p>
                    </div>
                </div>","0","main_experiment_trial","4","using_technology_semantic","semantic_sequence","chronological","","","","","","",""
"","","","","","html-keyboard-response","67","216109","0.0-67.0","9D058A02A7D3455BA2298DB86D4492CB","019cfa4b-9b17-7576-8f84-3bb02b0e1cde","019cfa3a-388e-72ab-ad58-bdeb258f96cd","","null","
                <div class=""stimulus-container"">
                    <img src=""images/semantic_sequence/using_technology_semantic/using_technology_semantic_5.png"" class=""exp-image"">
                    <div class=""question-area""></div> 
                </div>","null","","","","","","","","","","","",""
"","","","","","html-button-response","68","216803","0.0-68.0","9D058A02A7D3455BA2298DB86D4492CB","019cfa4b-9b17-7576-8f84-3bb02b0e1cde","019cfa3a-388e-72ab-ad58-bdeb258f96cd","","692","
                <div class=""stimulus-container"">
                    <img src=""images/semantic_sequence/using_technology_semantic/using_technology_semantic_5.png"" class=""exp-image"">
                    <div class=""question-area"">
                        <p style=""font-size: 20px; font-weight: bold; margin: 0;"">Is there a person in this image?</p>
                    </div>
                </div>","0","main_experiment_trial","5","using_technology_semantic","semantic_sequence","chronological","","","","","","",""
"","","","","","html-keyboard-response","69","217803","0.0-69.0","9D058A02A7D3455BA2298DB86D4492CB","019cfa4b-9b17-7576-8f84-3bb02b0e1cde","019cfa3a-388e-72ab-ad58-bdeb258f96cd","","null","
                <div class=""stimulus-container"">
                    <img src=""images/semantic_sequence/using_technology_semantic/using_technology_semantic_6.png"" class=""exp-image"">
                    <div class=""question-area""></div> 
                </div>","null","","","","","","","","","","","",""
"","","","","","html-button-response","70","218408","0.0-70.0","9D058A02A7D3455BA2298DB86D4492CB","019cfa4b-9b17-7576-8f84-3bb02b0e1cde","019cfa3a-388e-72ab-ad58-bdeb258f96cd","","605","
                <div class=""stimulus-container"">
                    <img src=""images/semantic_sequence/using_technology_semantic/using_technology_semantic_6.png"" class=""exp-image"">
                    <div class=""question-area"">
                        <p style=""font-size: 20px; font-weight: bold; margin: 0;"">Is there a person in this image?</p>
                    </div>
                </div>","0","main_experiment_trial","6","using_technology_semantic","semantic_sequence","chronological","","","","","","",""
"","","","","","html-keyboard-response","71","219409","0.0-71.0","9D058A02A7D3455BA2298DB86D4492CB","019cfa4b-9b17-7576-8f84-3bb02b0e1cde","019cfa3a-388e-72ab-ad58-bdeb258f96cd","","null","
                <div class=""stimulus-container"">
                    <img src=""images/semantic_sequence/using_technology_semantic/using_technology_semantic_7.png"" class=""exp-image"">
                    <div class=""question-area""></div> 
                </div>","null","","","","","","","","","","","",""
"","","","","","html-button-response","72","220186","0.0-72.0","9D058A02A7D3455BA2298DB86D4492CB","019cfa4b-9b17-7576-8f84-3bb02b0e1cde","019cfa3a-388e-72ab-ad58-bdeb258f96cd","","777","
                <div class=""stimulus-container"">
                    <img src=""images/semantic_sequence/using_technology_semantic/using_technology_semantic_7.png"" class=""exp-image"">
                    <div class=""question-area"">
                        <p style=""font-size: 20px; font-weight: bold; margin: 0;"">Is there a person in this image?</p>
                    </div>
                </div>","0","main_experiment_trial","7","using_technology_semantic","semantic_sequence","chronological","","","","","","",""
"","","","","","html-keyboard-response","73","221187","0.0-73.0","9D058A02A7D3455BA2298DB86D4492CB","019cfa4b-9b17-7576-8f84-3bb02b0e1cde","019cfa3a-388e-72ab-ad58-bdeb258f96cd","","null","
                <div class=""stimulus-container"">
                    <img src=""images/semantic_sequence/using_technology_semantic/using_technology_semantic_8.png"" class=""exp-image"">
                    <div class=""question-area""></div> 
                </div>","null","","","","","","","","","","","",""
"","","","","","html-button-response","74","221906","0.0-74.0","9D058A02A7D3455BA2298DB86D4492CB","019cfa4b-9b17-7576-8f84-3bb02b0e1cde","019cfa3a-388e-72ab-ad58-bdeb258f96cd","","719","
                <div class=""stimulus-container"">
                    <img src=""images/semantic_sequence/using_technology_semantic/using_technology_semantic_8.png"" class=""exp-image"">
                    <div class=""question-area"">
                        <p style=""font-size: 20px; font-weight: bold; margin: 0;"">Is there a person in this image?</p>
                    </div>
                </div>","0","main_experiment_trial","8","using_technology_semantic","semantic_sequence","chronological","","","","","","",""
"","","","","","html-keyboard-response","75","222907","0.0-75.0","9D058A02A7D3455BA2298DB86D4492CB","019cfa4b-9b17-7576-8f84-3bb02b0e1cde","019cfa3a-388e-72ab-ad58-bdeb258f96cd","","null","
                <div class=""stimulus-container"">
                    <img src=""images/semantic_sequence/using_technology_semantic/using_technology_semantic_9.png"" class=""exp-image"">
                    <div class=""question-area""></div> 
                </div>","null","","","","","","","","","","","",""
"","","","","","html-button-response","76","223515","0.0-76.0","9D058A02A7D3455BA2298DB86D4492CB","019cfa4b-9b17-7576-8f84-3bb02b0e1cde","019cfa3a-388e-72ab-ad58-bdeb258f96cd","","609","
                <div class=""stimulus-container"">
                    <img src=""images/semantic_sequence/using_technology_semantic/using_technology_semantic_9.png"" class=""exp-image"">
                    <div class=""question-area"">
                        <p style=""font-size: 20px; font-weight: bold; margin: 0;"">Is there a person in this image?</p>
                    </div>
                </div>","0","main_experiment_trial","9","using_technology_semantic","semantic_sequence","chronological","","","","","","",""
"","","","","","html-keyboard-response","77","224517","0.0-77.0","9D058A02A7D3455BA2298DB86D4492CB","019cfa4b-9b17-7576-8f84-3bb02b0e1cde","019cfa3a-388e-72ab-ad58-bdeb258f96cd","","null","
                <div class=""stimulus-container"">
                    <img src=""images/semantic_sequence/using_technology_semantic/using_technology_semantic_ten.png"" class=""exp-image"">
                    <div class=""question-area""></div> 
                </div>","null","","","","","","","","","","","",""
"","","","","","html-button-response","78","225140","0.0-78.0","9D058A02A7D3455BA2298DB86D4492CB","019cfa4b-9b17-7576-8f84-3bb02b0e1cde","019cfa3a-388e-72ab-ad58-bdeb258f96cd","","622","
                <div class=""stimulus-container"">
                    <img src=""images/semantic_sequence/using_technology_semantic/using_technology_semantic_ten.png"" class=""exp-image"">
                    <div class=""question-area"">
                        <p style=""font-size: 20px; font-weight: bold; margin: 0;"">Is there a person in this image?</p>
                    </div>
                </div>","0","main_experiment_trial","ten","using_technology_semantic","semantic_sequence","chronological","","","","","","",""
"","","","","","html-keyboard-response","79","230518","0.0-79.0","9D058A02A7D3455BA2298DB86D4492CB","019cfa4b-9b17-7576-8f84-3bb02b0e1cde","019cfa3a-388e-72ab-ad58-bdeb258f96cd","","null","<div style=""background-color: white; width: 100vw; height: 100vh;""></div>","null","","","","","","","","","","","",""
"","","","","","html-keyboard-response","80","231519","0.0-80.0","9D058A02A7D3455BA2298DB86D4492CB","019cfa4b-9b17-7576-8f84-3bb02b0e1cde","019cfa3a-388e-72ab-ad58-bdeb258f96cd","","null","
                <div class=""stimulus-container"">
                    <img src=""images/semantic_sequence/cat_care_semantic/cat_care_semantic_1.png"" class=""exp-image"">
                    <div class=""question-area""></div> 
                </div>","null","","","","","","","","","","","",""
"","","","","","html-button-response","81","232173","0.0-81.0","9D058A02A7D3455BA2298DB86D4492CB","019cfa4b-9b17-7576-8f84-3bb02b0e1cde","019cfa3a-388e-72ab-ad58-bdeb258f96cd","","654","
                <div class=""stimulus-container"">
                    <img src=""images/semantic_sequence/cat_care_semantic/cat_care_semantic_1.png"" class=""exp-image"">
                    <div class=""question-area"">
                        <p style=""font-size: 20px; font-weight: bold; margin: 0;"">Is there a person in this image?</p>
                    </div>
                </div>","0","main_experiment_trial","1","cat_care_semantic","semantic_sequence","chronological","","","","","","",""
"","","","","","html-keyboard-response","82","233174","0.0-82.0","9D058A02A7D3455BA2298DB86D4492CB","019cfa4b-9b17-7576-8f84-3bb02b0e1cde","019cfa3a-388e-72ab-ad58-bdeb258f96cd","","null","
                <div class=""stimulus-container"">
                    <img src=""images/semantic_sequence/cat_care_semantic/cat_care_semantic_2.png"" class=""exp-image"">
                    <div class=""question-area""></div> 
                </div>","null","","","","","","","","","","","",""
"","","","","","html-button-response","83","234157","0.0-83.0","9D058A02A7D3455BA2298DB86D4492CB","019cfa4b-9b17-7576-8f84-3bb02b0e1cde","019cfa3a-388e-72ab-ad58-bdeb258f96cd","","983","
                <div class=""stimulus-container"">
                    <img src=""images/semantic_sequence/cat_care_semantic/cat_care_semantic_2.png"" class=""exp-image"">
                    <div class=""question-area"">
                        <p style=""font-size: 20px; font-weight: bold; margin: 0;"">Is there a person in this image?</p>
                    </div>
                </div>","0","main_experiment_trial","2","cat_care_semantic","semantic_sequence","chronological","","","","","","",""
"","","","","","html-keyboard-response","84","235174","0.0-84.0","9D058A02A7D3455BA2298DB86D4492CB","019cfa4b-9b17-7576-8f84-3bb02b0e1cde","019cfa3a-388e-72ab-ad58-bdeb258f96cd","","null","
                <div class=""stimulus-container"">
                    <img src=""images/semantic_sequence/cat_care_semantic/cat_care_semantic_3.png"" class=""exp-image"">
                    <div class=""question-area""></div> 
                </div>","null","","","","","","","","","","","",""
"","","","","","html-button-response","85","235822","0.0-85.0","9D058A02A7D3455BA2298DB86D4492CB","019cfa4b-9b17-7576-8f84-3bb02b0e1cde","019cfa3a-388e-72ab-ad58-bdeb258f96cd","","648","
                <div class=""stimulus-container"">
                    <img src=""images/semantic_sequence/cat_care_semantic/cat_care_semantic_3.png"" class=""exp-image"">
                    <div class=""question-area"">
                        <p style=""font-size: 20px; font-weight: bold; margin: 0;"">Is there a person in this image?</p>
                    </div>
                </div>","0","main_experiment_trial","3","cat_care_semantic","semantic_sequence","chronological","","","","","","",""
"","","","","","html-keyboard-response","86","236823","0.0-86.0","9D058A02A7D3455BA2298DB86D4492CB","019cfa4b-9b17-7576-8f84-3bb02b0e1cde","019cfa3a-388e-72ab-ad58-bdeb258f96cd","","null","
                <div class=""stimulus-container"">
                    <img src=""images/semantic_sequence/cat_care_semantic/cat_care_semantic_4.png"" class=""exp-image"">
                    <div class=""question-area""></div> 
                </div>","null","","","","","","","","","","","",""
"","","","","","html-button-response","87","237524","0.0-87.0","9D058A02A7D3455BA2298DB86D4492CB","019cfa4b-9b17-7576-8f84-3bb02b0e1cde","019cfa3a-388e-72ab-ad58-bdeb258f96cd","","700","
                <div class=""stimulus-container"">
                    <img src=""images/semantic_sequence/cat_care_semantic/cat_care_semantic_4.png"" class=""exp-image"">
                    <div class=""question-area"">
                        <p style=""font-size: 20px; font-weight: bold; margin: 0;"">Is there a person in this image?</p>
                    </div>
                </div>","0","main_experiment_trial","4","cat_care_semantic","semantic_sequence","chronological","","","","","","",""
"","","","","","html-keyboard-response","88","238524","0.0-88.0","9D058A02A7D3455BA2298DB86D4492CB","019cfa4b-9b17-7576-8f84-3bb02b0e1cde","019cfa3a-388e-72ab-ad58-bdeb258f96cd","","null","
                <div class=""stimulus-container"">
                    <img src=""images/semantic_sequence/cat_care_semantic/cat_care_semantic_5.png"" class=""exp-image"">
                    <div class=""question-area""></div> 
                </div>","null","","","","","","","","","","","",""
"","","","","","html-button-response","89","239145","0.0-89.0","9D058A02A7D3455BA2298DB86D4492CB","019cfa4b-9b17-7576-8f84-3bb02b0e1cde","019cfa3a-388e-72ab-ad58-bdeb258f96cd","","621","
                <div class=""stimulus-container"">
                    <img src=""images/semantic_sequence/cat_care_semantic/cat_care_semantic_5.png"" class=""exp-image"">
                    <div class=""question-area"">
                        <p style=""font-size: 20px; font-weight: bold; margin: 0;"">Is there a person in this image?</p>
                    </div>
                </div>","0","main_experiment_trial","5","cat_care_semantic","semantic_sequence","chronological","","","","","","",""
"","","","","","html-keyboard-response","90","240145","0.0-90.0","9D058A02A7D3455BA2298DB86D4492CB","019cfa4b-9b17-7576-8f84-3bb02b0e1cde","019cfa3a-388e-72ab-ad58-bdeb258f96cd","","null","
                <div class=""stimulus-container"">
                    <img src=""images/semantic_sequence/cat_care_semantic/cat_care_semantic_6.png"" class=""exp-image"">
                    <div class=""question-area""></div> 
                </div>","null","","","","","","","","","","","",""
"","","","","","html-button-response","91","240628","0.0-91.0","9D058A02A7D3455BA2298DB86D4492CB","019cfa4b-9b17-7576-8f84-3bb02b0e1cde","019cfa3a-388e-72ab-ad58-bdeb258f96cd","","482","
                <div class=""stimulus-container"">
                    <img src=""images/semantic_sequence/cat_care_semantic/cat_care_semantic_6.png"" class=""exp-image"">
                    <div class=""question-area"">
                        <p style=""font-size: 20px; font-weight: bold; margin: 0;"">Is there a person in this image?</p>
                    </div>
                </div>","0","main_experiment_trial","6","cat_care_semantic","semantic_sequence","chronological","","","","","","",""
"","","","","","html-keyboard-response","92","241629","0.0-92.0","9D058A02A7D3455BA2298DB86D4492CB","019cfa4b-9b17-7576-8f84-3bb02b0e1cde","019cfa3a-388e-72ab-ad58-bdeb258f96cd","","null","
                <div class=""stimulus-container"">
                    <img src=""images/semantic_sequence/cat_care_semantic/cat_care_semantic_7.png"" class=""exp-image"">
                    <div class=""question-area""></div> 
                </div>","null","","","","","","","","","","","",""
"","","","","","html-button-response","93","242256","0.0-93.0","9D058A02A7D3455BA2298DB86D4492CB","019cfa4b-9b17-7576-8f84-3bb02b0e1cde","019cfa3a-388e-72ab-ad58-bdeb258f96cd","","626","
                <div class=""stimulus-container"">
                    <img src=""images/semantic_sequence/cat_care_semantic/cat_care_semantic_7.png"" class=""exp-image"">
                    <div class=""question-area"">
                        <p style=""font-size: 20px; font-weight: bold; margin: 0;"">Is there a person in this image?</p>
                    </div>
                </div>","0","main_experiment_trial","7","cat_care_semantic","semantic_sequence","chronological","","","","","","",""
"","","","","","html-keyboard-response","94","243257","0.0-94.0","9D058A02A7D3455BA2298DB86D4492CB","019cfa4b-9b17-7576-8f84-3bb02b0e1cde","019cfa3a-388e-72ab-ad58-bdeb258f96cd","","null","
                <div class=""stimulus-container"">
                    <img src=""images/semantic_sequence/cat_care_semantic/cat_care_semantic_8.png"" class=""exp-image"">
                    <div class=""question-area""></div> 
                </div>","null","","","","","","","","","","","",""
"","","","","","html-button-response","95","243863","0.0-95.0","9D058A02A7D3455BA2298DB86D4492CB","019cfa4b-9b17-7576-8f84-3bb02b0e1cde","019cfa3a-388e-72ab-ad58-bdeb258f96cd","","605","
                <div class=""stimulus-container"">
                    <img src=""images/semantic_sequence/cat_care_semantic/cat_care_semantic_8.png"" class=""exp-image"">
                    <div class=""question-area"">
                        <p style=""font-size: 20px; font-weight: bold; margin: 0;"">Is there a person in this image?</p>
                    </div>
                </div>","0","main_experiment_trial","8","cat_care_semantic","semantic_sequence","chronological","","","","","","",""
"","","","","","html-keyboard-response","96","244864","0.0-96.0","9D058A02A7D3455BA2298DB86D4492CB","019cfa4b-9b17-7576-8f84-3bb02b0e1cde","019cfa3a-388e-72ab-ad58-bdeb258f96cd","","null","
                <div class=""stimulus-container"">
                    <img src=""images/semantic_sequence/cat_care_semantic/cat_care_semantic_9.png"" class=""exp-image"">
                    <div class=""question-area""></div> 
                </div>","null","","","","","","","","","","","",""
"","","","","","html-button-response","97","245376","0.0-97.0","9D058A02A7D3455BA2298DB86D4492CB","019cfa4b-9b17-7576-8f84-3bb02b0e1cde","019cfa3a-388e-72ab-ad58-bdeb258f96cd","","513","
                <div class=""stimulus-container"">
                    <img src=""images/semantic_sequence/cat_care_semantic/cat_care_semantic_9.png"" class=""exp-image"">
                    <div class=""question-area"">
                        <p style=""font-size: 20px; font-weight: bold; margin: 0;"">Is there a person in this image?</p>
                    </div>
                </div>","0","main_experiment_trial","9","cat_care_semantic","semantic_sequence","chronological","","","","","","",""
"","","","","","html-keyboard-response","98","246377","0.0-98.0","9D058A02A7D3455BA2298DB86D4492CB","019cfa4b-9b17-7576-8f84-3bb02b0e1cde","019cfa3a-388e-72ab-ad58-bdeb258f96cd","","null","
                <div class=""stimulus-container"">
                    <img src=""images/semantic_sequence/cat_care_semantic/cat_care_semantic_ten.png"" class=""exp-image"">
                    <div class=""question-area""></div> 
                </div>","null","","","","","","","","","","","",""
"","","","","","html-button-response","99","246997","0.0-99.0","9D058A02A7D3455BA2298DB86D4492CB","019cfa4b-9b17-7576-8f84-3bb02b0e1cde","019cfa3a-388e-72ab-ad58-bdeb258f96cd","","619","
                <div class=""stimulus-container"">
                    <img src=""images/semantic_sequence/cat_care_semantic/cat_care_semantic_ten.png"" class=""exp-image"">
                    <div class=""question-area"">
                        <p style=""font-size: 20px; font-weight: bold; margin: 0;"">Is there a person in this image?</p>
                    </div>
                </div>","1","main_experiment_trial","ten","cat_care_semantic","semantic_sequence","chronological","","","","","","",""
"","","","","","html-keyboard-response","100","251997","0.0-100.0","9D058A02A7D3455BA2298DB86D4492CB","019cfa4b-9b17-7576-8f84-3bb02b0e1cde","019cfa3a-388e-72ab-ad58-bdeb258f96cd","","null","<div style=""background-color: white; width: 100vw; height: 100vh;""></div>","null","","","","","","","","","","","",""
"","","","","","html-keyboard-response","101","252998","0.0-101.0","9D058A02A7D3455BA2298DB86D4492CB","019cfa4b-9b17-7576-8f84-3bb02b0e1cde","019cfa3a-388e-72ab-ad58-bdeb258f96cd","","null","
                <div class=""stimulus-container"">
                    <img src=""images/semantic_sequence/visiting_cities_semantic/visiting_cities_semantic_1.png"" class=""exp-image"">
                    <div class=""question-area""></div> 
                </div>","null","","","","","","","","","","","",""
"","","","","","html-button-response","102","254000","0.0-102.0","9D058A02A7D3455BA2298DB86D4492CB","019cfa4b-9b17-7576-8f84-3bb02b0e1cde","019cfa3a-388e-72ab-ad58-bdeb258f96cd","","1002","
                <div class=""stimulus-container"">
                    <img src=""images/semantic_sequence/visiting_cities_semantic/visiting_cities_semantic_1.png"" class=""exp-image"">
                    <div class=""question-area"">
                        <p style=""font-size: 20px; font-weight: bold; margin: 0;"">Is there a person in this image?</p>
                    </div>
                </div>","0","main_experiment_trial","1","visiting_cities_semantic","semantic_sequence","chronological","","","","","","",""
"","","","","","html-keyboard-response","103","255000","0.0-103.0","9D058A02A7D3455BA2298DB86D4492CB","019cfa4b-9b17-7576-8f84-3bb02b0e1cde","019cfa3a-388e-72ab-ad58-bdeb258f96cd","","null","
                <div class=""stimulus-container"">
                    <img src=""images/semantic_sequence/visiting_cities_semantic/visiting_cities_semantic_2.png"" class=""exp-image"">
                    <div class=""question-area""></div> 
                </div>","null","","","","","","","","","","","",""
"","","","","","html-button-response","104","255720","0.0-104.0","9D058A02A7D3455BA2298DB86D4492CB","019cfa4b-9b17-7576-8f84-3bb02b0e1cde","019cfa3a-388e-72ab-ad58-bdeb258f96cd","","720","
                <div class=""stimulus-container"">
                    <img src=""images/semantic_sequence/visiting_cities_semantic/visiting_cities_semantic_2.png"" class=""exp-image"">
                    <div class=""question-area"">
                        <p style=""font-size: 20px; font-weight: bold; margin: 0;"">Is there a person in this image?</p>
                    </div>
                </div>","1","main_experiment_trial","2","visiting_cities_semantic","semantic_sequence","chronological","","","","","","",""
"","","","","","html-keyboard-response","105","256720","0.0-105.0","9D058A02A7D3455BA2298DB86D4492CB","019cfa4b-9b17-7576-8f84-3bb02b0e1cde","019cfa3a-388e-72ab-ad58-bdeb258f96cd","","null","
                <div class=""stimulus-container"">
                    <img src=""images/semantic_sequence/visiting_cities_semantic/visiting_cities_semantic_3.png"" class=""exp-image"">
                    <div class=""question-area""></div> 
                </div>","null","","","","","","","","","","","",""
"","","","","","html-button-response","106","257533","0.0-106.0","9D058A02A7D3455BA2298DB86D4492CB","019cfa4b-9b17-7576-8f84-3bb02b0e1cde","019cfa3a-388e-72ab-ad58-bdeb258f96cd","","812","
                <div class=""stimulus-container"">
                    <img src=""images/semantic_sequence/visiting_cities_semantic/visiting_cities_semantic_3.png"" class=""exp-image"">
                    <div class=""question-area"">
                        <p style=""font-size: 20px; font-weight: bold; margin: 0;"">Is there a person in this image?</p>
                    </div>
                </div>","1","main_experiment_trial","3","visiting_cities_semantic","semantic_sequence","chronological","","","","","","",""
"","","","","","html-keyboard-response","107","258540","0.0-107.0","9D058A02A7D3455BA2298DB86D4492CB","019cfa4b-9b17-7576-8f84-3bb02b0e1cde","019cfa3a-388e-72ab-ad58-bdeb258f96cd","","null","
                <div class=""stimulus-container"">
                    <img src=""images/semantic_sequence/visiting_cities_semantic/visiting_cities_semantic_4.png"" class=""exp-image"">
                    <div class=""question-area""></div> 
                </div>","null","","","","","","","","","","","",""
"","","","","","html-button-response","108","260998","0.0-108.0","9D058A02A7D3455BA2298DB86D4492CB","019cfa4b-9b17-7576-8f84-3bb02b0e1cde","019cfa3a-388e-72ab-ad58-bdeb258f96cd","","2457","
                <div class=""stimulus-container"">
                    <img src=""images/semantic_sequence/visiting_cities_semantic/visiting_cities_semantic_4.png"" class=""exp-image"">
                    <div class=""question-area"">
                        <p style=""font-size: 20px; font-weight: bold; margin: 0;"">Is there a person in this image?</p>
                    </div>
                </div>","1","main_experiment_trial","4","visiting_cities_semantic","semantic_sequence","chronological","","","","","","",""
"","","","","","html-keyboard-response","109","262024","0.0-109.0","9D058A02A7D3455BA2298DB86D4492CB","019cfa4b-9b17-7576-8f84-3bb02b0e1cde","019cfa3a-388e-72ab-ad58-bdeb258f96cd","","null","
                <div class=""stimulus-container"">
                    <img src=""images/semantic_sequence/visiting_cities_semantic/visiting_cities_semantic_5.png"" class=""exp-image"">
                    <div class=""question-area""></div> 
                </div>","null","","","","","","","","","","","",""
"","","","","","html-button-response","110","263577","0.0-110.0","9D058A02A7D3455BA2298DB86D4492CB","019cfa4b-9b17-7576-8f84-3bb02b0e1cde","019cfa3a-388e-72ab-ad58-bdeb258f96cd","","1553","
                <div class=""stimulus-container"">
                    <img src=""images/semantic_sequence/visiting_cities_semantic/visiting_cities_semantic_5.png"" class=""exp-image"">
                    <div class=""question-area"">
                        <p style=""font-size: 20px; font-weight: bold; margin: 0;"">Is there a person in this image?</p>
                    </div>
                </div>","1","main_experiment_trial","5","visiting_cities_semantic","semantic_sequence","chronological","","","","","","",""
"","","","","","html-keyboard-response","111","264579","0.0-111.0","9D058A02A7D3455BA2298DB86D4492CB","019cfa4b-9b17-7576-8f84-3bb02b0e1cde","019cfa3a-388e-72ab-ad58-bdeb258f96cd","","null","
                <div class=""stimulus-container"">
                    <img src=""images/semantic_sequence/visiting_cities_semantic/visiting_cities_semantic_6.png"" class=""exp-image"">
                    <div class=""question-area""></div> 
                </div>","null","","","","","","","","","","","",""
"","","","","","html-button-response","112","265606","0.0-112.0","9D058A02A7D3455BA2298DB86D4492CB","019cfa4b-9b17-7576-8f84-3bb02b0e1cde","019cfa3a-388e-72ab-ad58-bdeb258f96cd","","1027","
                <div class=""stimulus-container"">
                    <img src=""images/semantic_sequence/visiting_cities_semantic/visiting_cities_semantic_6.png"" class=""exp-image"">
                    <div class=""question-area"">
                        <p style=""font-size: 20px; font-weight: bold; margin: 0;"">Is there a person in this image?</p>
                    </div>
                </div>","1","main_experiment_trial","6","visiting_cities_semantic","semantic_sequence","chronological","","","","","","",""
"","","","","","html-keyboard-response","113","266607","0.0-113.0","9D058A02A7D3455BA2298DB86D4492CB","019cfa4b-9b17-7576-8f84-3bb02b0e1cde","019cfa3a-388e-72ab-ad58-bdeb258f96cd","","null","
                <div class=""stimulus-container"">
                    <img src=""images/semantic_sequence/visiting_cities_semantic/visiting_cities_semantic_7.png"" class=""exp-image"">
                    <div class=""question-area""></div> 
                </div>","null","","","","","","","","","","","",""
"","","","","","html-button-response","114","267503","0.0-114.0","9D058A02A7D3455BA2298DB86D4492CB","019cfa4b-9b17-7576-8f84-3bb02b0e1cde","019cfa3a-388e-72ab-ad58-bdeb258f96cd","","896","
                <div class=""stimulus-container"">
                    <img src=""images/semantic_sequence/visiting_cities_semantic/visiting_cities_semantic_7.png"" class=""exp-image"">
                    <div class=""question-area"">
                        <p style=""font-size: 20px; font-weight: bold; margin: 0;"">Is there a person in this image?</p>
                    </div>
                </div>","0","main_experiment_trial","7","visiting_cities_semantic","semantic_sequence","chronological","","","","","","",""
"","","","","","html-keyboard-response","115","268540","0.0-115.0","9D058A02A7D3455BA2298DB86D4492CB","019cfa4b-9b17-7576-8f84-3bb02b0e1cde","019cfa3a-388e-72ab-ad58-bdeb258f96cd","","null","
                <div class=""stimulus-container"">
                    <img src=""images/semantic_sequence/visiting_cities_semantic/visiting_cities_semantic_8.png"" class=""exp-image"">
                    <div class=""question-area""></div> 
                </div>","null","","","","","","","","","","","",""
"","","","","","html-button-response","116","270930","0.0-116.0","9D058A02A7D3455BA2298DB86D4492CB","019cfa4b-9b17-7576-8f84-3bb02b0e1cde","019cfa3a-388e-72ab-ad58-bdeb258f96cd","","2388","
                <div class=""stimulus-container"">
                    <img src=""images/semantic_sequence/visiting_cities_semantic/visiting_cities_semantic_8.png"" class=""exp-image"">
                    <div class=""question-area"">
                        <p style=""font-size: 20px; font-weight: bold; margin: 0;"">Is there a person in this image?</p>
                    </div>
                </div>","0","main_experiment_trial","8","visiting_cities_semantic","semantic_sequence","chronological","","","","","","",""
"","","","","","html-keyboard-response","117","271930","0.0-117.0","9D058A02A7D3455BA2298DB86D4492CB","019cfa4b-9b17-7576-8f84-3bb02b0e1cde","019cfa3a-388e-72ab-ad58-bdeb258f96cd","","null","
                <div class=""stimulus-container"">
                    <img src=""images/semantic_sequence/visiting_cities_semantic/visiting_cities_semantic_9.png"" class=""exp-image"">
                    <div class=""question-area""></div> 
                </div>","null","","","","","","","","","","","",""
"","","","","","html-button-response","118","272676","0.0-118.0","9D058A02A7D3455BA2298DB86D4492CB","019cfa4b-9b17-7576-8f84-3bb02b0e1cde","019cfa3a-388e-72ab-ad58-bdeb258f96cd","","745","
                <div class=""stimulus-container"">
                    <img src=""images/semantic_sequence/visiting_cities_semantic/visiting_cities_semantic_9.png"" class=""exp-image"">
                    <div class=""question-area"">
                        <p style=""font-size: 20px; font-weight: bold; margin: 0;"">Is there a person in this image?</p>
                    </div>
                </div>","0","main_experiment_trial","9","visiting_cities_semantic","semantic_sequence","chronological","","","","","","",""
"","","","","","html-keyboard-response","119","273677","0.0-119.0","9D058A02A7D3455BA2298DB86D4492CB","019cfa4b-9b17-7576-8f84-3bb02b0e1cde","019cfa3a-388e-72ab-ad58-bdeb258f96cd","","null","
                <div class=""stimulus-container"">
                    <img src=""images/semantic_sequence/visiting_cities_semantic/visiting_cities_semantic_ten.png"" class=""exp-image"">
                    <div class=""question-area""></div> 
                </div>","null","","","","","","","","","","","",""
"","","","","","html-button-response","120","276677","0.0-120.0","9D058A02A7D3455BA2298DB86D4492CB","019cfa4b-9b17-7576-8f84-3bb02b0e1cde","019cfa3a-388e-72ab-ad58-bdeb258f96cd","","null","
                <div class=""stimulus-container"">
                    <img src=""images/semantic_sequence/visiting_cities_semantic/visiting_cities_semantic_ten.png"" class=""exp-image"">
                    <div class=""question-area"">
                        <p style=""font-size: 20px; font-weight: bold; margin: 0;"">Is there a person in this image?</p>
                    </div>
                </div>","null","main_experiment_trial","ten","visiting_cities_semantic","semantic_sequence","chronological","","","","","","",""
"","","","","","html-keyboard-response","121","281679","0.0-121.0","9D058A02A7D3455BA2298DB86D4492CB","019cfa4b-9b17-7576-8f84-3bb02b0e1cde","019cfa3a-388e-72ab-ad58-bdeb258f96cd","","null","<div style=""background-color: white; width: 100vw; height: 100vh;""></div>","null","","","","","","","","","","","",""
"","","","","","html-keyboard-response","122","282679","0.0-122.0","9D058A02A7D3455BA2298DB86D4492CB","019cfa4b-9b17-7576-8f84-3bb02b0e1cde","019cfa3a-388e-72ab-ad58-bdeb258f96cd","","null","
                <div class=""stimulus-container"">
                    <img src=""images/semantic_sequence/kitchen_operations_semantic/kitchen_operations_semantic_1.png"" class=""exp-image"">
                    <div class=""question-area""></div> 
                </div>","null","","","","","","","","","","","",""
"","","","","","html-button-response","123","283244","0.0-123.0","9D058A02A7D3455BA2298DB86D4492CB","019cfa4b-9b17-7576-8f84-3bb02b0e1cde","019cfa3a-388e-72ab-ad58-bdeb258f96cd","","563","
                <div class=""stimulus-container"">
                    <img src=""images/semantic_sequence/kitchen_operations_semantic/kitchen_operations_semantic_1.png"" class=""exp-image"">
                    <div class=""question-area"">
                        <p style=""font-size: 20px; font-weight: bold; margin: 0;"">Is there a person in this image?</p>
                    </div>
                </div>","0","main_experiment_trial","1","kitchen_operations_semantic","semantic_sequence","chronological","","","","","","",""
"","","","","","html-keyboard-response","124","284244","0.0-124.0","9D058A02A7D3455BA2298DB86D4492CB","019cfa4b-9b17-7576-8f84-3bb02b0e1cde","019cfa3a-388e-72ab-ad58-bdeb258f96cd","","null","
                <div class=""stimulus-container"">
                    <img src=""images/semantic_sequence/kitchen_operations_semantic/kitchen_operations_semantic_2.png"" class=""exp-image"">
                    <div class=""question-area""></div> 
                </div>","null","","","","","","","","","","","",""
"","","","","","html-button-response","125","284744","0.0-125.0","9D058A02A7D3455BA2298DB86D4492CB","019cfa4b-9b17-7576-8f84-3bb02b0e1cde","019cfa3a-388e-72ab-ad58-bdeb258f96cd","","500","
                <div class=""stimulus-container"">
                    <img src=""images/semantic_sequence/kitchen_operations_semantic/kitchen_operations_semantic_2.png"" class=""exp-image"">
                    <div class=""question-area"">
                        <p style=""font-size: 20px; font-weight: bold; margin: 0;"">Is there a person in this image?</p>
                    </div>
                </div>","0","main_experiment_trial","2","kitchen_operations_semantic","semantic_sequence","chronological","","","","","","",""
"","","","","","html-keyboard-response","126","285745","0.0-126.0","9D058A02A7D3455BA2298DB86D4492CB","019cfa4b-9b17-7576-8f84-3bb02b0e1cde","019cfa3a-388e-72ab-ad58-bdeb258f96cd","","null","
                <div class=""stimulus-container"">
                    <img src=""images/semantic_sequence/kitchen_operations_semantic/kitchen_operations_semantic_3.png"" class=""exp-image"">
                    <div class=""question-area""></div> 
                </div>","null","","","","","","","","","","","",""
"","","","","","html-button-response","127","286318","0.0-127.0","9D058A02A7D3455BA2298DB86D4492CB","019cfa4b-9b17-7576-8f84-3bb02b0e1cde","019cfa3a-388e-72ab-ad58-bdeb258f96cd","","573","
                <div class=""stimulus-container"">
                    <img src=""images/semantic_sequence/kitchen_operations_semantic/kitchen_operations_semantic_3.png"" class=""exp-image"">
                    <div class=""question-area"">
                        <p style=""font-size: 20px; font-weight: bold; margin: 0;"">Is there a person in this image?</p>
                    </div>
                </div>","0","main_experiment_trial","3","kitchen_operations_semantic","semantic_sequence","chronological","","","","","","",""
"","","","","","html-keyboard-response","128","287320","0.0-128.0","9D058A02A7D3455BA2298DB86D4492CB","019cfa4b-9b17-7576-8f84-3bb02b0e1cde","019cfa3a-388e-72ab-ad58-bdeb258f96cd","","null","
                <div class=""stimulus-container"">
                    <img src=""images/semantic_sequence/kitchen_operations_semantic/kitchen_operations_semantic_4.png"" class=""exp-image"">
                    <div class=""question-area""></div> 
                </div>","null","","","","","","","","","","","",""
"","","","","","html-button-response","129","287760","0.0-129.0","9D058A02A7D3455BA2298DB86D4492CB","019cfa4b-9b17-7576-8f84-3bb02b0e1cde","019cfa3a-388e-72ab-ad58-bdeb258f96cd","","440","
                <div class=""stimulus-container"">
                    <img src=""images/semantic_sequence/kitchen_operations_semantic/kitchen_operations_semantic_4.png"" class=""exp-image"">
                    <div class=""question-area"">
                        <p style=""font-size: 20px; font-weight: bold; margin: 0;"">Is there a person in this image?</p>
                    </div>
                </div>","0","main_experiment_trial","4","kitchen_operations_semantic","semantic_sequence","chronological","","","","","","",""
"","","","","","html-keyboard-response","130","288760","0.0-130.0","9D058A02A7D3455BA2298DB86D4492CB","019cfa4b-9b17-7576-8f84-3bb02b0e1cde","019cfa3a-388e-72ab-ad58-bdeb258f96cd","","null","
                <div class=""stimulus-container"">
                    <img src=""images/semantic_sequence/kitchen_operations_semantic/kitchen_operations_semantic_5.png"" class=""exp-image"">
                    <div class=""question-area""></div> 
                </div>","null","","","","","","","","","","","",""
"","","","","","html-button-response","131","289363","0.0-131.0","9D058A02A7D3455BA2298DB86D4492CB","019cfa4b-9b17-7576-8f84-3bb02b0e1cde","019cfa3a-388e-72ab-ad58-bdeb258f96cd","","602","
                <div class=""stimulus-container"">
                    <img src=""images/semantic_sequence/kitchen_operations_semantic/kitchen_operations_semantic_5.png"" class=""exp-image"">
                    <div class=""question-area"">
                        <p style=""font-size: 20px; font-weight: bold; margin: 0;"">Is there a person in this image?</p>
                    </div>
                </div>","0","main_experiment_trial","5","kitchen_operations_semantic","semantic_sequence","chronological","","","","","","",""
"","","","","","html-keyboard-response","132","290364","0.0-132.0","9D058A02A7D3455BA2298DB86D4492CB","019cfa4b-9b17-7576-8f84-3bb02b0e1cde","019cfa3a-388e-72ab-ad58-bdeb258f96cd","","null","
                <div class=""stimulus-container"">
                    <img src=""images/semantic_sequence/kitchen_operations_semantic/kitchen_operations_semantic_6.png"" class=""exp-image"">
                    <div class=""question-area""></div> 
                </div>","null","","","","","","","","","","","",""
"","","","","","html-button-response","133","290858","0.0-133.0","9D058A02A7D3455BA2298DB86D4492CB","019cfa4b-9b17-7576-8f84-3bb02b0e1cde","019cfa3a-388e-72ab-ad58-bdeb258f96cd","","493","
                <div class=""stimulus-container"">
                    <img src=""images/semantic_sequence/kitchen_operations_semantic/kitchen_operations_semantic_6.png"" class=""exp-image"">
                    <div class=""question-area"">
                        <p style=""font-size: 20px; font-weight: bold; margin: 0;"">Is there a person in this image?</p>
                    </div>
                </div>","0","main_experiment_trial","6","kitchen_operations_semantic","semantic_sequence","chronological","","","","","","",""
"","","","","","html-keyboard-response","134","291858","0.0-134.0","9D058A02A7D3455BA2298DB86D4492CB","019cfa4b-9b17-7576-8f84-3bb02b0e1cde","019cfa3a-388e-72ab-ad58-bdeb258f96cd","","null","
                <div class=""stimulus-container"">
                    <img src=""images/semantic_sequence/kitchen_operations_semantic/kitchen_operations_semantic_7.png"" class=""exp-image"">
                    <div class=""question-area""></div> 
                </div>","null","","","","","","","","","","","",""
"","","","","","html-button-response","135","292308","0.0-135.0","9D058A02A7D3455BA2298DB86D4492CB","019cfa4b-9b17-7576-8f84-3bb02b0e1cde","019cfa3a-388e-72ab-ad58-bdeb258f96cd","","448","
                <div class=""stimulus-container"">
                    <img src=""images/semantic_sequence/kitchen_operations_semantic/kitchen_operations_semantic_7.png"" class=""exp-image"">
                    <div class=""question-area"">
                        <p style=""font-size: 20px; font-weight: bold; margin: 0;"">Is there a person in this image?</p>
                    </div>
                </div>","0","main_experiment_trial","7","kitchen_operations_semantic","semantic_sequence","chronological","","","","","","",""
"","","","","","html-keyboard-response","136","293308","0.0-136.0","9D058A02A7D3455BA2298DB86D4492CB","019cfa4b-9b17-7576-8f84-3bb02b0e1cde","019cfa3a-388e-72ab-ad58-bdeb258f96cd","","null","
                <div class=""stimulus-container"">
                    <img src=""images/semantic_sequence/kitchen_operations_semantic/kitchen_operations_semantic_8.png"" class=""exp-image"">
                    <div class=""question-area""></div> 
                </div>","null","","","","","","","","","","","",""
"","","","","","html-button-response","137","293878","0.0-137.0","9D058A02A7D3455BA2298DB86D4492CB","019cfa4b-9b17-7576-8f84-3bb02b0e1cde","019cfa3a-388e-72ab-ad58-bdeb258f96cd","","570","
                <div class=""stimulus-container"">
                    <img src=""images/semantic_sequence/kitchen_operations_semantic/kitchen_operations_semantic_8.png"" class=""exp-image"">
                    <div class=""question-area"">
                        <p style=""font-size: 20px; font-weight: bold; margin: 0;"">Is there a person in this image?</p>
                    </div>
                </div>","0","main_experiment_trial","8","kitchen_operations_semantic","semantic_sequence","chronological","","","","","","",""
"","","","","","html-keyboard-response","138","294878","0.0-138.0","9D058A02A7D3455BA2298DB86D4492CB","019cfa4b-9b17-7576-8f84-3bb02b0e1cde","019cfa3a-388e-72ab-ad58-bdeb258f96cd","","null","
                <div class=""stimulus-container"">
                    <img src=""images/semantic_sequence/kitchen_operations_semantic/kitchen_operations_semantic_9.png"" class=""exp-image"">
                    <div class=""question-area""></div> 
                </div>","null","","","","","","","","","","","",""
"","","","","","html-button-response","139","295402","0.0-139.0","9D058A02A7D3455BA2298DB86D4492CB","019cfa4b-9b17-7576-8f84-3bb02b0e1cde","019cfa3a-388e-72ab-ad58-bdeb258f96cd","","523","
                <div class=""stimulus-container"">
                    <img src=""images/semantic_sequence/kitchen_operations_semantic/kitchen_operations_semantic_9.png"" class=""exp-image"">
                    <div class=""question-area"">
                        <p style=""font-size: 20px; font-weight: bold; margin: 0;"">Is there a person in this image?</p>
                    </div>
                </div>","0","main_experiment_trial","9","kitchen_operations_semantic","semantic_sequence","chronological","","","","","","",""
"","","","","","html-keyboard-response","140","296402","0.0-140.0","9D058A02A7D3455BA2298DB86D4492CB","019cfa4b-9b17-7576-8f84-3bb02b0e1cde","019cfa3a-388e-72ab-ad58-bdeb258f96cd","","null","
                <div class=""stimulus-container"">
                    <img src=""images/semantic_sequence/kitchen_operations_semantic/kitchen_operations_semantic_ten.png"" class=""exp-image"">
                    <div class=""question-area""></div> 
                </div>","null","","","","","","","","","","","",""
"","","","","","html-button-response","141","296999","0.0-141.0","9D058A02A7D3455BA2298DB86D4492CB","019cfa4b-9b17-7576-8f84-3bb02b0e1cde","019cfa3a-388e-72ab-ad58-bdeb258f96cd","","596","
                <div class=""stimulus-container"">
                    <img src=""images/semantic_sequence/kitchen_operations_semantic/kitchen_operations_semantic_ten.png"" class=""exp-image"">
                    <div class=""question-area"">
                        <p style=""font-size: 20px; font-weight: bold; margin: 0;"">Is there a person in this image?</p>
                    </div>
                </div>","0","main_experiment_trial","ten","kitchen_operations_semantic","semantic_sequence","chronological","","","","","","",""
"","","","","","html-keyboard-response","142","301999","0.0-142.0","9D058A02A7D3455BA2298DB86D4492CB","019cfa4b-9b17-7576-8f84-3bb02b0e1cde","019cfa3a-388e-72ab-ad58-bdeb258f96cd","","null","<div style=""background-color: white; width: 100vw; height: 100vh;""></div>","null","","","","","","","","","","","",""
"","","","","","html-keyboard-response","143","303000","0.0-143.0","9D058A02A7D3455BA2298DB86D4492CB","019cfa4b-9b17-7576-8f84-3bb02b0e1cde","019cfa3a-388e-72ab-ad58-bdeb258f96cd","","null","
                <div class=""stimulus-container"">
                    <img src=""images/semantic_sequence/redecorating_a_house_semantic/redecorating_a_house_semantic_1.png"" class=""exp-image"">
                    <div class=""question-area""></div> 
                </div>","null","","","","","","","","","","","",""
"","","","","","html-button-response","144","303683","0.0-144.0","9D058A02A7D3455BA2298DB86D4492CB","019cfa4b-9b17-7576-8f84-3bb02b0e1cde","019cfa3a-388e-72ab-ad58-bdeb258f96cd","","683","
                <div class=""stimulus-container"">
                    <img src=""images/semantic_sequence/redecorating_a_house_semantic/redecorating_a_house_semantic_1.png"" class=""exp-image"">
                    <div class=""question-area"">
                        <p style=""font-size: 20px; font-weight: bold; margin: 0;"">Is there a person in this image?</p>
                    </div>
                </div>","0","main_experiment_trial","1","redecorating_a_house_semantic","semantic_sequence","chronological","","","","","","",""
"","","","","","html-keyboard-response","145","304684","0.0-145.0","9D058A02A7D3455BA2298DB86D4492CB","019cfa4b-9b17-7576-8f84-3bb02b0e1cde","019cfa3a-388e-72ab-ad58-bdeb258f96cd","","null","
                <div class=""stimulus-container"">
                    <img src=""images/semantic_sequence/redecorating_a_house_semantic/redecorating_a_house_semantic_2.png"" class=""exp-image"">
                    <div class=""question-area""></div> 
                </div>","null","","","","","","","","","","","",""
"","","","","","html-button-response","146","305246","0.0-146.0","9D058A02A7D3455BA2298DB86D4492CB","019cfa4b-9b17-7576-8f84-3bb02b0e1cde","019cfa3a-388e-72ab-ad58-bdeb258f96cd","","562","
                <div class=""stimulus-container"">
                    <img src=""images/semantic_sequence/redecorating_a_house_semantic/redecorating_a_house_semantic_2.png"" class=""exp-image"">
                    <div class=""question-area"">
                        <p style=""font-size: 20px; font-weight: bold; margin: 0;"">Is there a person in this image?</p>
                    </div>
                </div>","0","main_experiment_trial","2","redecorating_a_house_semantic","semantic_sequence","chronological","","","","","","",""
"","","","","","html-keyboard-response","147","306247","0.0-147.0","9D058A02A7D3455BA2298DB86D4492CB","019cfa4b-9b17-7576-8f84-3bb02b0e1cde","019cfa3a-388e-72ab-ad58-bdeb258f96cd","","null","
                <div class=""stimulus-container"">
                    <img src=""images/semantic_sequence/redecorating_a_house_semantic/redecorating_a_house_semantic_3.png"" class=""exp-image"">
                    <div class=""question-area""></div> 
                </div>","null","","","","","","","","","","","",""
"","","","","","html-button-response","148","306659","0.0-148.0","9D058A02A7D3455BA2298DB86D4492CB","019cfa4b-9b17-7576-8f84-3bb02b0e1cde","019cfa3a-388e-72ab-ad58-bdeb258f96cd","","411","
                <div class=""stimulus-container"">
                    <img src=""images/semantic_sequence/redecorating_a_house_semantic/redecorating_a_house_semantic_3.png"" class=""exp-image"">
                    <div class=""question-area"">
                        <p style=""font-size: 20px; font-weight: bold; margin: 0;"">Is there a person in this image?</p>
                    </div>
                </div>","0","main_experiment_trial","3","redecorating_a_house_semantic","semantic_sequence","chronological","","","","","","",""
"","","","","","html-keyboard-response","149","307660","0.0-149.0","9D058A02A7D3455BA2298DB86D4492CB","019cfa4b-9b17-7576-8f84-3bb02b0e1cde","019cfa3a-388e-72ab-ad58-bdeb258f96cd","","null","
                <div class=""stimulus-container"">
                    <img src=""images/semantic_sequence/redecorating_a_house_semantic/redecorating_a_house_semantic_4.png"" class=""exp-image"">
                    <div class=""question-area""></div> 
                </div>","null","","","","","","","","","","","",""
"","","","","","html-button-response","150","308027","0.0-150.0","9D058A02A7D3455BA2298DB86D4492CB","019cfa4b-9b17-7576-8f84-3bb02b0e1cde","019cfa3a-388e-72ab-ad58-bdeb258f96cd","","366","
                <div class=""stimulus-container"">
                    <img src=""images/semantic_sequence/redecorating_a_house_semantic/redecorating_a_house_semantic_4.png"" class=""exp-image"">
                    <div class=""question-area"">
                        <p style=""font-size: 20px; font-weight: bold; margin: 0;"">Is there a person in this image?</p>
                    </div>
                </div>","0","main_experiment_trial","4","redecorating_a_house_semantic","semantic_sequence","chronological","","","","","","",""
"","","","","","html-keyboard-response","151","309029","0.0-151.0","9D058A02A7D3455BA2298DB86D4492CB","019cfa4b-9b17-7576-8f84-3bb02b0e1cde","019cfa3a-388e-72ab-ad58-bdeb258f96cd","","null","
                <div class=""stimulus-container"">
                    <img src=""images/semantic_sequence/redecorating_a_house_semantic/redecorating_a_house_semantic_5.png"" class=""exp-image"">
                    <div class=""question-area""></div> 
                </div>","null","","","","","","","","","","","",""
"","","","","","html-button-response","152","309397","0.0-152.0","9D058A02A7D3455BA2298DB86D4492CB","019cfa4b-9b17-7576-8f84-3bb02b0e1cde","019cfa3a-388e-72ab-ad58-bdeb258f96cd","","369","
                <div class=""stimulus-container"">
                    <img src=""images/semantic_sequence/redecorating_a_house_semantic/redecorating_a_house_semantic_5.png"" class=""exp-image"">
                    <div class=""question-area"">
                        <p style=""font-size: 20px; font-weight: bold; margin: 0;"">Is there a person in this image?</p>
                    </div>
                </div>","0","main_experiment_trial","5","redecorating_a_house_semantic","semantic_sequence","chronological","","","","","","",""
"","","","","","html-keyboard-response","153","310397","0.0-153.0","9D058A02A7D3455BA2298DB86D4492CB","019cfa4b-9b17-7576-8f84-3bb02b0e1cde","019cfa3a-388e-72ab-ad58-bdeb258f96cd","","null","
                <div class=""stimulus-container"">
                    <img src=""images/semantic_sequence/redecorating_a_house_semantic/redecorating_a_house_semantic_6.png"" class=""exp-image"">
                    <div class=""question-area""></div> 
                </div>","null","","","","","","","","","","","",""
"","","","","","html-button-response","154","310832","0.0-154.0","9D058A02A7D3455BA2298DB86D4492CB","019cfa4b-9b17-7576-8f84-3bb02b0e1cde","019cfa3a-388e-72ab-ad58-bdeb258f96cd","","434","
                <div class=""stimulus-container"">
                    <img src=""images/semantic_sequence/redecorating_a_house_semantic/redecorating_a_house_semantic_6.png"" class=""exp-image"">
                    <div class=""question-area"">
                        <p style=""font-size: 20px; font-weight: bold; margin: 0;"">Is there a person in this image?</p>
                    </div>
                </div>","0","main_experiment_trial","6","redecorating_a_house_semantic","semantic_sequence","chronological","","","","","","",""
"","","","","","html-keyboard-response","155","311832","0.0-155.0","9D058A02A7D3455BA2298DB86D4492CB","019cfa4b-9b17-7576-8f84-3bb02b0e1cde","019cfa3a-388e-72ab-ad58-bdeb258f96cd","","null","
                <div class=""stimulus-container"">
                    <img src=""images/semantic_sequence/redecorating_a_house_semantic/redecorating_a_house_semantic_7.png"" class=""exp-image"">
                    <div class=""question-area""></div> 
                </div>","null","","","","","","","","","","","",""
"","","","","","html-button-response","156","312241","0.0-156.0","9D058A02A7D3455BA2298DB86D4492CB","019cfa4b-9b17-7576-8f84-3bb02b0e1cde","019cfa3a-388e-72ab-ad58-bdeb258f96cd","","408","
                <div class=""stimulus-container"">
                    <img src=""images/semantic_sequence/redecorating_a_house_semantic/redecorating_a_house_semantic_7.png"" class=""exp-image"">
                    <div class=""question-area"">
                        <p style=""font-size: 20px; font-weight: bold; margin: 0;"">Is there a person in this image?</p>
                    </div>
                </div>","0","main_experiment_trial","7","redecorating_a_house_semantic","semantic_sequence","chronological","","","","","","",""
"","","","","","html-keyboard-response","157","313243","0.0-157.0","9D058A02A7D3455BA2298DB86D4492CB","019cfa4b-9b17-7576-8f84-3bb02b0e1cde","019cfa3a-388e-72ab-ad58-bdeb258f96cd","","null","
                <div class=""stimulus-container"">
                    <img src=""images/semantic_sequence/redecorating_a_house_semantic/redecorating_a_house_semantic_8.png"" class=""exp-image"">
                    <div class=""question-area""></div> 
                </div>","null","","","","","","","","","","","",""
"","","","","","html-button-response","158","313642","0.0-158.0","9D058A02A7D3455BA2298DB86D4492CB","019cfa4b-9b17-7576-8f84-3bb02b0e1cde","019cfa3a-388e-72ab-ad58-bdeb258f96cd","","398","
                <div class=""stimulus-container"">
                    <img src=""images/semantic_sequence/redecorating_a_house_semantic/redecorating_a_house_semantic_8.png"" class=""exp-image"">
                    <div class=""question-area"">
                        <p style=""font-size: 20px; font-weight: bold; margin: 0;"">Is there a person in this image?</p>
                    </div>
                </div>","0","main_experiment_trial","8","redecorating_a_house_semantic","semantic_sequence","chronological","","","","","","",""
"","","","","","html-keyboard-response","159","314642","0.0-159.0","9D058A02A7D3455BA2298DB86D4492CB","019cfa4b-9b17-7576-8f84-3bb02b0e1cde","019cfa3a-388e-72ab-ad58-bdeb258f96cd","","null","
                <div class=""stimulus-container"">
                    <img src=""images/semantic_sequence/redecorating_a_house_semantic/redecorating_a_house_semantic_9.png"" class=""exp-image"">
                    <div class=""question-area""></div> 
                </div>","null","","","","","","","","","","","",""
"","","","","","html-button-response","160","314986","0.0-160.0","9D058A02A7D3455BA2298DB86D4492CB","019cfa4b-9b17-7576-8f84-3bb02b0e1cde","019cfa3a-388e-72ab-ad58-bdeb258f96cd","","344","
                <div class=""stimulus-container"">
                    <img src=""images/semantic_sequence/redecorating_a_house_semantic/redecorating_a_house_semantic_9.png"" class=""exp-image"">
                    <div class=""question-area"">
                        <p style=""font-size: 20px; font-weight: bold; margin: 0;"">Is there a person in this image?</p>
                    </div>
                </div>","0","main_experiment_trial","9","redecorating_a_house_semantic","semantic_sequence","chronological","","","","","","",""
"","","","","","html-keyboard-response","161","315987","0.0-161.0","9D058A02A7D3455BA2298DB86D4492CB","019cfa4b-9b17-7576-8f84-3bb02b0e1cde","019cfa3a-388e-72ab-ad58-bdeb258f96cd","","null","
                <div class=""stimulus-container"">
                    <img src=""images/semantic_sequence/redecorating_a_house_semantic/redecorating_a_house_semantic_ten.png"" class=""exp-image"">
                    <div class=""question-area""></div> 
                </div>","null","","","","","","","","","","","",""
"","","","","","html-button-response","162","316311","0.0-162.0","9D058A02A7D3455BA2298DB86D4492CB","019cfa4b-9b17-7576-8f84-3bb02b0e1cde","019cfa3a-388e-72ab-ad58-bdeb258f96cd","","323","
                <div class=""stimulus-container"">
                    <img src=""images/semantic_sequence/redecorating_a_house_semantic/redecorating_a_house_semantic_ten.png"" class=""exp-image"">
                    <div class=""question-area"">
                        <p style=""font-size: 20px; font-weight: bold; margin: 0;"">Is there a person in this image?</p>
                    </div>
                </div>","0","main_experiment_trial","ten","redecorating_a_house_semantic","semantic_sequence","chronological","","","","","","",""
"","","","","","html-keyboard-response","163","321315","0.0-163.0","9D058A02A7D3455BA2298DB86D4492CB","019cfa4b-9b17-7576-8f84-3bb02b0e1cde","019cfa3a-388e-72ab-ad58-bdeb258f96cd","","null","<div style=""background-color: white; width: 100vw; height: 100vh;""></div>","null","","","","","","","","","","","",""
"","","","","","html-keyboard-response","164","322316","0.0-164.0","9D058A02A7D3455BA2298DB86D4492CB","019cfa4b-9b17-7576-8f84-3bb02b0e1cde","019cfa3a-388e-72ab-ad58-bdeb258f96cd","","null","
                <div class=""stimulus-container"">
                    <img src=""images/causal_sequence/the_performance_causal/the_performance_causal_1.png"" class=""exp-image"">
                    <div class=""question-area""></div> 
                </div>","null","","","","","","","","","","","",""
"","","","","","html-button-response","165","323385","0.0-165.0","9D058A02A7D3455BA2298DB86D4492CB","019cfa4b-9b17-7576-8f84-3bb02b0e1cde","019cfa3a-388e-72ab-ad58-bdeb258f96cd","","1069","
                <div class=""stimulus-container"">
                    <img src=""images/causal_sequence/the_performance_causal/the_performance_causal_1.png"" class=""exp-image"">
                    <div class=""question-area"">
                        <p style=""font-size: 20px; font-weight: bold; margin: 0;"">Is there a person in this image?</p>
                    </div>
                </div>","0","main_experiment_trial","1","the_performance_causal","causal_sequence","chronological","","","","","","",""
"","","","","","html-keyboard-response","166","324385","0.0-166.0","9D058A02A7D3455BA2298DB86D4492CB","019cfa4b-9b17-7576-8f84-3bb02b0e1cde","019cfa3a-388e-72ab-ad58-bdeb258f96cd","","null","
                <div class=""stimulus-container"">
                    <img src=""images/causal_sequence/the_performance_causal/the_performance_causal_2.png"" class=""exp-image"">
                    <div class=""question-area""></div> 
                </div>","null","","","","","","","","","","","",""
"","","","","","html-button-response","167","324777","0.0-167.0","9D058A02A7D3455BA2298DB86D4492CB","019cfa4b-9b17-7576-8f84-3bb02b0e1cde","019cfa3a-388e-72ab-ad58-bdeb258f96cd","","392","
                <div class=""stimulus-container"">
                    <img src=""images/causal_sequence/the_performance_causal/the_performance_causal_2.png"" class=""exp-image"">
                    <div class=""question-area"">
                        <p style=""font-size: 20px; font-weight: bold; margin: 0;"">Is there a person in this image?</p>
                    </div>
                </div>","0","main_experiment_trial","2","the_performance_causal","causal_sequence","chronological","","","","","","",""
"","","","","","html-keyboard-response","168","325779","0.0-168.0","9D058A02A7D3455BA2298DB86D4492CB","019cfa4b-9b17-7576-8f84-3bb02b0e1cde","019cfa3a-388e-72ab-ad58-bdeb258f96cd","","null","
                <div class=""stimulus-container"">
                    <img src=""images/causal_sequence/the_performance_causal/the_performance_causal_3.png"" class=""exp-image"">
                    <div class=""question-area""></div> 
                </div>","null","","","","","","","","","","","",""
"","","","","","html-button-response","169","326876","0.0-169.0","9D058A02A7D3455BA2298DB86D4492CB","019cfa4b-9b17-7576-8f84-3bb02b0e1cde","019cfa3a-388e-72ab-ad58-bdeb258f96cd","","1096","
                <div class=""stimulus-container"">
                    <img src=""images/causal_sequence/the_performance_causal/the_performance_causal_3.png"" class=""exp-image"">
                    <div class=""question-area"">
                        <p style=""font-size: 20px; font-weight: bold; margin: 0;"">Is there a person in this image?</p>
                    </div>
                </div>","0","main_experiment_trial","3","the_performance_causal","causal_sequence","chronological","","","","","","",""
"","","","","","html-keyboard-response","170","327877","0.0-170.0","9D058A02A7D3455BA2298DB86D4492CB","019cfa4b-9b17-7576-8f84-3bb02b0e1cde","019cfa3a-388e-72ab-ad58-bdeb258f96cd","","null","
                <div class=""stimulus-container"">
                    <img src=""images/causal_sequence/the_performance_causal/the_performance_causal_4.png"" class=""exp-image"">
                    <div class=""question-area""></div> 
                </div>","null","","","","","","","","","","","",""
"","","","","","html-button-response","171","328357","0.0-171.0","9D058A02A7D3455BA2298DB86D4492CB","019cfa4b-9b17-7576-8f84-3bb02b0e1cde","019cfa3a-388e-72ab-ad58-bdeb258f96cd","","480","
                <div class=""stimulus-container"">
                    <img src=""images/causal_sequence/the_performance_causal/the_performance_causal_4.png"" class=""exp-image"">
                    <div class=""question-area"">
                        <p style=""font-size: 20px; font-weight: bold; margin: 0;"">Is there a person in this image?</p>
                    </div>
                </div>","0","main_experiment_trial","4","the_performance_causal","causal_sequence","chronological","","","","","","",""
"","","","","","html-keyboard-response","172","329357","0.0-172.0","9D058A02A7D3455BA2298DB86D4492CB","019cfa4b-9b17-7576-8f84-3bb02b0e1cde","019cfa3a-388e-72ab-ad58-bdeb258f96cd","","null","
                <div class=""stimulus-container"">
                    <img src=""images/causal_sequence/the_performance_causal/the_performance_causal_5.png"" class=""exp-image"">
                    <div class=""question-area""></div> 
                </div>","null","","","","","","","","","","","",""
"","","","","","html-button-response","173","329767","0.0-173.0","9D058A02A7D3455BA2298DB86D4492CB","019cfa4b-9b17-7576-8f84-3bb02b0e1cde","019cfa3a-388e-72ab-ad58-bdeb258f96cd","","409","
                <div class=""stimulus-container"">
                    <img src=""images/causal_sequence/the_performance_causal/the_performance_causal_5.png"" class=""exp-image"">
                    <div class=""question-area"">
                        <p style=""font-size: 20px; font-weight: bold; margin: 0;"">Is there a person in this image?</p>
                    </div>
                </div>","0","main_experiment_trial","5","the_performance_causal","causal_sequence","chronological","","","","","","",""
