"success","timeout","failed_images","failed_audio","failed_video","trial_type","trial_index","time_elapsed","internal_node_id","subject_id","study_id","session_id","view_history","rt","stimulus","response","task","image_index","folder","sequence_type","presentation_order","valuable_image_index","reward_type","distance_from_x","target_X","chosen_image_index","is_x_plus_dist","correct_choice"
"true","false","[]","[]","[]","preload","0","2801","0.0-0.0","00FDEE4F0AC847E4804C0C811FE61639","019dac6a-82d8-7cd9-8de7-457f495d2012","019dac5b-243f-7307-af64-a10f53f1ef70","","","","","","","","","","","","","","","",""
"","","","","","instructions","1","22415","0.0-1.0","00FDEE4F0AC847E4804C0C811FE61639","019dac6a-82d8-7cd9-8de7-457f495d2012","019dac5b-243f-7307-af64-a10f53f1ef70","[{""page_index"":0,""viewing_time"":19612}]","19613","","","","","","","","","","","","","",""
"","","","","","instructions","2","27039","0.0-2.0","00FDEE4F0AC847E4804C0C811FE61639","019dac6a-82d8-7cd9-8de7-457f495d2012","019dac5b-243f-7307-af64-a10f53f1ef70","[{""page_index"":0,""viewing_time"":4613}]","4623","","","","","","","","","","","","","",""
"true","","","","","fullscreen","3","62580","0.0-3.0","00FDEE4F0AC847E4804C0C811FE61639","019dac6a-82d8-7cd9-8de7-457f495d2012","019dac5b-243f-7307-af64-a10f53f1ef70","","34540","","","","","","","","","","","","","",""
"","","","","","instructions","4","113795","0.0-4.0","00FDEE4F0AC847E4804C0C811FE61639","019dac6a-82d8-7cd9-8de7-457f495d2012","019dac5b-243f-7307-af64-a10f53f1ef70","[{""page_index"":0,""viewing_time"":51216}]","51217","","","","","","","","","","","","","",""
"","","","","","instructions","5","119678","0.0-5.0","00FDEE4F0AC847E4804C0C811FE61639","019dac6a-82d8-7cd9-8de7-457f495d2012","019dac5b-243f-7307-af64-a10f53f1ef70","[{""page_index"":0,""viewing_time"":5882}]","5883","","","","","","","","","","","","","",""
"","","","","","html-keyboard-response","6","123697","0.0-6.0","00FDEE4F0AC847E4804C0C811FE61639","019dac6a-82d8-7cd9-8de7-457f495d2012","019dac5b-243f-7307-af64-a10f53f1ef70","","null","
                <div class=""stimulus-container"">
                    <img src=""images/instructions/movie_1.png"" class=""exp-image"">
                    <div class=""question-area""></div> 
                </div>","null","","","","","","","","","","","",""
"","","","","","html-button-response","7","126720","0.0-7.0","00FDEE4F0AC847E4804C0C811FE61639","019dac6a-82d8-7cd9-8de7-457f495d2012","019dac5b-243f-7307-af64-a10f53f1ef70","","null","
                <div class=""stimulus-container"">
                    <img src=""images/instructions/movie_1.png"" class=""exp-image"">
                    <div class=""question-area"">
                        <p style=""font-size: 20px; font-weight: bold; margin: 0;"">Was there a person in this image?</p>
                    </div>
                </div>","null","example_question","1","","","","","","","","","",""
"","","","","","html-keyboard-response","8","130739","0.0-8.0","00FDEE4F0AC847E4804C0C811FE61639","019dac6a-82d8-7cd9-8de7-457f495d2012","019dac5b-243f-7307-af64-a10f53f1ef70","","null","
                <div class=""stimulus-container"">
                    <img src=""images/instructions/movie_2.png"" class=""exp-image"">
                    <div class=""question-area""></div> 
                </div>","null","","","","","","","","","","","",""
"","","","","","html-button-response","9","132278","0.0-9.0","00FDEE4F0AC847E4804C0C811FE61639","019dac6a-82d8-7cd9-8de7-457f495d2012","019dac5b-243f-7307-af64-a10f53f1ef70","","1520","
                <div class=""stimulus-container"">
                    <img src=""images/instructions/movie_2.png"" class=""exp-image"">
                    <div class=""question-area"">
                        <p style=""font-size: 20px; font-weight: bold; margin: 0;"">Was there a person in this image?</p>
                    </div>
                </div>","0","example_question","2","","","","","","","","","",""
"","","","","","html-keyboard-response","10","136298","0.0-10.0","00FDEE4F0AC847E4804C0C811FE61639","019dac6a-82d8-7cd9-8de7-457f495d2012","019dac5b-243f-7307-af64-a10f53f1ef70","","null","
                <div class=""stimulus-container"">
                    <img src=""images/instructions/movie_3.png"" class=""exp-image"">
                    <div class=""question-area""></div> 
                </div>","null","","","","","","","","","","","",""
"","","","","","html-button-response","11","137245","0.0-11.0","00FDEE4F0AC847E4804C0C811FE61639","019dac6a-82d8-7cd9-8de7-457f495d2012","019dac5b-243f-7307-af64-a10f53f1ef70","","927","
                <div class=""stimulus-container"">
                    <img src=""images/instructions/movie_3.png"" class=""exp-image"">
                    <div class=""question-area"">
                        <p style=""font-size: 20px; font-weight: bold; margin: 0;"">Was there a person in this image?</p>
                    </div>
                </div>","0","example_question","3","","","","","","","","","",""
"","","","","","html-keyboard-response","12","141264","0.0-12.0","00FDEE4F0AC847E4804C0C811FE61639","019dac6a-82d8-7cd9-8de7-457f495d2012","019dac5b-243f-7307-af64-a10f53f1ef70","","null","
                <div class=""stimulus-container"">
                    <img src=""images/instructions/movie_4.png"" class=""exp-image"">
                    <div class=""question-area""></div> 
                </div>","null","","","","","","","","","","","",""
"","","","","","html-button-response","13","142329","0.0-13.0","00FDEE4F0AC847E4804C0C811FE61639","019dac6a-82d8-7cd9-8de7-457f495d2012","019dac5b-243f-7307-af64-a10f53f1ef70","","1044","
                <div class=""stimulus-container"">
                    <img src=""images/instructions/movie_4.png"" class=""exp-image"">
                    <div class=""question-area"">
                        <p style=""font-size: 20px; font-weight: bold; margin: 0;"">Was there a person in this image?</p>
                    </div>
                </div>","0","example_question","4","","","","","","","","","",""
"","","","","","instructions","14","144411","0.0-14.0","00FDEE4F0AC847E4804C0C811FE61639","019dac6a-82d8-7cd9-8de7-457f495d2012","019dac5b-243f-7307-af64-a10f53f1ef70","[{""page_index"":0,""viewing_time"":2081}]","2081","","","","","","","","","","","","","",""
"","","","","","instructions","15","151195","0.0-15.0","00FDEE4F0AC847E4804C0C811FE61639","019dac6a-82d8-7cd9-8de7-457f495d2012","019dac5b-243f-7307-af64-a10f53f1ef70","[{""page_index"":0,""viewing_time"":6783}]","6784","","","","","","","","","","","","","",""
"","","","","","html-keyboard-response","16","156197","0.0-16.0","00FDEE4F0AC847E4804C0C811FE61639","019dac6a-82d8-7cd9-8de7-457f495d2012","019dac5b-243f-7307-af64-a10f53f1ef70","","null","<div style=""background-color: white; width: 100vw; height: 100vh;""></div>","null","","","","","","","","","","","",""
"","","","","","html-keyboard-response","17","161217","0.0-17.0","00FDEE4F0AC847E4804C0C811FE61639","019dac6a-82d8-7cd9-8de7-457f495d2012","019dac5b-243f-7307-af64-a10f53f1ef70","","null","
                <div class=""stimulus-container"">
                    <img src=""images/causal_sequence/dog_causal/dog_causal_1.png"" class=""exp-image"">
                    <div class=""question-area""></div> 
                </div>","null","","","","","","","","","","","",""
"","","","","","html-button-response","18","162793","0.0-18.0","00FDEE4F0AC847E4804C0C811FE61639","019dac6a-82d8-7cd9-8de7-457f495d2012","019dac5b-243f-7307-af64-a10f53f1ef70","","1556","
                <div class=""stimulus-container"">
                    <img src=""images/causal_sequence/dog_causal/dog_causal_1.png"" class=""exp-image"">
                    <div class=""question-area"">
                        <p style=""font-size: 20px; font-weight: bold; margin: 0;"">Is there a person in this image?</p>
                    </div>
                </div>","0","main_experiment_trial","1","dog_causal","causal_sequence","chronological","","","","","","",""
"","","","","","html-keyboard-response","19","167812","0.0-19.0","00FDEE4F0AC847E4804C0C811FE61639","019dac6a-82d8-7cd9-8de7-457f495d2012","019dac5b-243f-7307-af64-a10f53f1ef70","","null","
                <div class=""stimulus-container"">
                    <img src=""images/causal_sequence/dog_causal/dog_causal_2.png"" class=""exp-image"">
                    <div class=""question-area""></div> 
                </div>","null","","","","","","","","","","","",""
"","","","","","html-button-response","20","169726","0.0-20.0","00FDEE4F0AC847E4804C0C811FE61639","019dac6a-82d8-7cd9-8de7-457f495d2012","019dac5b-243f-7307-af64-a10f53f1ef70","","1895","
                <div class=""stimulus-container"">
                    <img src=""images/causal_sequence/dog_causal/dog_causal_2.png"" class=""exp-image"">
                    <div class=""question-area"">
                        <p style=""font-size: 20px; font-weight: bold; margin: 0;"">Is there a person in this image?</p>
                    </div>
                </div>","0","main_experiment_trial","2","dog_causal","causal_sequence","chronological","","","","","","",""
"","","","","","html-keyboard-response","21","174747","0.0-21.0","00FDEE4F0AC847E4804C0C811FE61639","019dac6a-82d8-7cd9-8de7-457f495d2012","019dac5b-243f-7307-af64-a10f53f1ef70","","null","
                <div class=""stimulus-container"">
                    <img src=""images/causal_sequence/dog_causal/dog_causal_3.png"" class=""exp-image"">
                    <div class=""question-area""></div> 
                </div>","null","","","","","","","","","","","",""
"","","","","","html-button-response","22","175812","0.0-22.0","00FDEE4F0AC847E4804C0C811FE61639","019dac6a-82d8-7cd9-8de7-457f495d2012","019dac5b-243f-7307-af64-a10f53f1ef70","","1046","
                <div class=""stimulus-container"">
                    <img src=""images/causal_sequence/dog_causal/dog_causal_3.png"" class=""exp-image"">
                    <div class=""question-area"">
                        <p style=""font-size: 20px; font-weight: bold; margin: 0;"">Is there a person in this image?</p>
                    </div>
                </div>","0","main_experiment_trial","3","dog_causal","causal_sequence","chronological","","","","","","",""
"","","","","","html-keyboard-response","23","180831","0.0-23.0","00FDEE4F0AC847E4804C0C811FE61639","019dac6a-82d8-7cd9-8de7-457f495d2012","019dac5b-243f-7307-af64-a10f53f1ef70","","null","
                <div class=""stimulus-container"">
                    <img src=""images/causal_sequence/dog_causal/dog_causal_4.png"" class=""exp-image"">
                    <div class=""question-area""></div> 
                </div>","null","","","","","","","","","","","",""
"","","","","","html-button-response","24","182345","0.0-24.0","00FDEE4F0AC847E4804C0C811FE61639","019dac6a-82d8-7cd9-8de7-457f495d2012","019dac5b-243f-7307-af64-a10f53f1ef70","","1496","
                <div class=""stimulus-container"">
                    <img src=""images/causal_sequence/dog_causal/dog_causal_4.png"" class=""exp-image"">
                    <div class=""question-area"">
                        <p style=""font-size: 20px; font-weight: bold; margin: 0;"">Is there a person in this image?</p>
                    </div>
                </div>","0","main_experiment_trial","4","dog_causal","causal_sequence","chronological","","","","","","",""
"","","","","","html-keyboard-response","25","187364","0.0-25.0","00FDEE4F0AC847E4804C0C811FE61639","019dac6a-82d8-7cd9-8de7-457f495d2012","019dac5b-243f-7307-af64-a10f53f1ef70","","null","
                <div class=""stimulus-container"">
                    <img src=""images/causal_sequence/dog_causal/dog_causal_5.png"" class=""exp-image"">
                    <div class=""question-area""></div> 
                </div>","null","","","","","","","","","","","",""
"","","","","","html-button-response","26","189245","0.0-26.0","00FDEE4F0AC847E4804C0C811FE61639","019dac6a-82d8-7cd9-8de7-457f495d2012","019dac5b-243f-7307-af64-a10f53f1ef70","","1860","
                <div class=""stimulus-container"">
                    <img src=""images/causal_sequence/dog_causal/dog_causal_5.png"" class=""exp-image"">
                    <div class=""question-area"">
                        <p style=""font-size: 20px; font-weight: bold; margin: 0;"">Is there a person in this image?</p>
                    </div>
                </div>","0","main_experiment_trial","5","dog_causal","causal_sequence","chronological","","","","","","",""
"","","","","","html-keyboard-response","27","194264","0.0-27.0","00FDEE4F0AC847E4804C0C811FE61639","019dac6a-82d8-7cd9-8de7-457f495d2012","019dac5b-243f-7307-af64-a10f53f1ef70","","null","
                <div class=""stimulus-container"">
                    <img src=""images/causal_sequence/dog_causal/dog_causal_6.png"" class=""exp-image"">
                    <div class=""question-area""></div> 
                </div>","null","","","","","","","","","","","",""
"","","","","","html-button-response","28","195561","0.0-28.0","00FDEE4F0AC847E4804C0C811FE61639","019dac6a-82d8-7cd9-8de7-457f495d2012","019dac5b-243f-7307-af64-a10f53f1ef70","","1273","
                <div class=""stimulus-container"">
                    <img src=""images/causal_sequence/dog_causal/dog_causal_6.png"" class=""exp-image"">
                    <div class=""question-area"">
                        <p style=""font-size: 20px; font-weight: bold; margin: 0;"">Is there a person in this image?</p>
                    </div>
                </div>","0","main_experiment_trial","6","dog_causal","causal_sequence","chronological","","","","","","",""
"","","","","","html-keyboard-response","29","200579","0.0-29.0","00FDEE4F0AC847E4804C0C811FE61639","019dac6a-82d8-7cd9-8de7-457f495d2012","019dac5b-243f-7307-af64-a10f53f1ef70","","null","
                <div class=""stimulus-container"">
                    <img src=""images/causal_sequence/dog_causal/dog_causal_7.png"" class=""exp-image"">
                    <div class=""question-area""></div> 
                </div>","null","","","","","","","","","","","",""
"","","","","","html-button-response","30","201295","0.0-30.0","00FDEE4F0AC847E4804C0C811FE61639","019dac6a-82d8-7cd9-8de7-457f495d2012","019dac5b-243f-7307-af64-a10f53f1ef70","","695","
                <div class=""stimulus-container"">
                    <img src=""images/causal_sequence/dog_causal/dog_causal_7.png"" class=""exp-image"">
                    <div class=""question-area"">
                        <p style=""font-size: 20px; font-weight: bold; margin: 0;"">Is there a person in this image?</p>
                    </div>
                </div>","0","main_experiment_trial","7","dog_causal","causal_sequence","chronological","","","","","","",""
"","","","","","html-keyboard-response","31","206313","0.0-31.0","00FDEE4F0AC847E4804C0C811FE61639","019dac6a-82d8-7cd9-8de7-457f495d2012","019dac5b-243f-7307-af64-a10f53f1ef70","","null","
                <div class=""stimulus-container"">
                    <img src=""images/causal_sequence/dog_causal/dog_causal_8.png"" class=""exp-image"">
                    <div class=""question-area""></div> 
                </div>","null","","","","","","","","","","","",""
"","","","","","html-button-response","32","207629","0.0-32.0","00FDEE4F0AC847E4804C0C811FE61639","019dac6a-82d8-7cd9-8de7-457f495d2012","019dac5b-243f-7307-af64-a10f53f1ef70","","1296","
                <div class=""stimulus-container"">
                    <img src=""images/causal_sequence/dog_causal/dog_causal_8.png"" class=""exp-image"">
                    <div class=""question-area"">
                        <p style=""font-size: 20px; font-weight: bold; margin: 0;"">Is there a person in this image?</p>
                    </div>
                </div>","0","main_experiment_trial","8","dog_causal","causal_sequence","chronological","","","","","","",""
"","","","","","html-keyboard-response","33","212648","0.0-33.0","00FDEE4F0AC847E4804C0C811FE61639","019dac6a-82d8-7cd9-8de7-457f495d2012","019dac5b-243f-7307-af64-a10f53f1ef70","","null","
                <div class=""stimulus-container"">
                    <img src=""images/causal_sequence/dog_causal/dog_causal_9.png"" class=""exp-image"">
                    <div class=""question-area""></div> 
                </div>","null","","","","","","","","","","","",""
"","","","","","html-button-response","34","214045","0.0-34.0","00FDEE4F0AC847E4804C0C811FE61639","019dac6a-82d8-7cd9-8de7-457f495d2012","019dac5b-243f-7307-af64-a10f53f1ef70","","1379","
                <div class=""stimulus-container"">
                    <img src=""images/causal_sequence/dog_causal/dog_causal_9.png"" class=""exp-image"">
                    <div class=""question-area"">
                        <p style=""font-size: 20px; font-weight: bold; margin: 0;"">Is there a person in this image?</p>
                    </div>
                </div>","0","main_experiment_trial","9","dog_causal","causal_sequence","chronological","","","","","","",""
"","","","","","html-keyboard-response","35","219062","0.0-35.0","00FDEE4F0AC847E4804C0C811FE61639","019dac6a-82d8-7cd9-8de7-457f495d2012","019dac5b-243f-7307-af64-a10f53f1ef70","","null","
                <div class=""stimulus-container"">
                    <img src=""images/causal_sequence/dog_causal/dog_causal_ten.png"" class=""exp-image"">
                    <div class=""question-area""></div> 
                </div>","null","","","","","","","","","","","",""
"","","","","","html-button-response","36","219911","0.0-36.0","00FDEE4F0AC847E4804C0C811FE61639","019dac6a-82d8-7cd9-8de7-457f495d2012","019dac5b-243f-7307-af64-a10f53f1ef70","","831","
                <div class=""stimulus-container"">
                    <img src=""images/causal_sequence/dog_causal/dog_causal_ten.png"" class=""exp-image"">
                    <div class=""question-area"">
                        <p style=""font-size: 20px; font-weight: bold; margin: 0;"">Is there a person in this image?</p>
                    </div>
                </div>","0","main_experiment_trial","ten","dog_causal","causal_sequence","chronological","","","","","","",""
"","","","","","html-keyboard-response","37","224913","0.0-37.0","00FDEE4F0AC847E4804C0C811FE61639","019dac6a-82d8-7cd9-8de7-457f495d2012","019dac5b-243f-7307-af64-a10f53f1ef70","","null","<div style=""background-color: white; width: 100vw; height: 100vh;""></div>","null","","","","","","","","","","","",""
"","","","","","html-keyboard-response","38","229935","0.0-38.0","00FDEE4F0AC847E4804C0C811FE61639","019dac6a-82d8-7cd9-8de7-457f495d2012","019dac5b-243f-7307-af64-a10f53f1ef70","","null","
                <div class=""stimulus-container"">
                    <img src=""images/causal_sequence/coin_causal/coin_causal_1.png"" class=""exp-image"">
                    <div class=""question-area""></div> 
                </div>","null","","","","","","","","","","","",""
"","","","","","html-button-response","39","231059","0.0-39.0","00FDEE4F0AC847E4804C0C811FE61639","019dac6a-82d8-7cd9-8de7-457f495d2012","019dac5b-243f-7307-af64-a10f53f1ef70","","1106","
                <div class=""stimulus-container"">
                    <img src=""images/causal_sequence/coin_causal/coin_causal_1.png"" class=""exp-image"">
                    <div class=""question-area"">
                        <p style=""font-size: 20px; font-weight: bold; margin: 0;"">Is there a person in this image?</p>
                    </div>
                </div>","0","main_experiment_trial","1","coin_causal","causal_sequence","chronological","","","","","","",""
"","","","","","html-keyboard-response","40","236069","0.0-40.0","00FDEE4F0AC847E4804C0C811FE61639","019dac6a-82d8-7cd9-8de7-457f495d2012","019dac5b-243f-7307-af64-a10f53f1ef70","","null","
                <div class=""stimulus-container"">
                    <img src=""images/causal_sequence/coin_causal/coin_causal_2.png"" class=""exp-image"">
                    <div class=""question-area""></div> 
                </div>","null","","","","","","","","","","","",""
"","","","","","html-button-response","41","238291","0.0-41.0","00FDEE4F0AC847E4804C0C811FE61639","019dac6a-82d8-7cd9-8de7-457f495d2012","019dac5b-243f-7307-af64-a10f53f1ef70","","2215","
                <div class=""stimulus-container"">
                    <img src=""images/causal_sequence/coin_causal/coin_causal_2.png"" class=""exp-image"">
                    <div class=""question-area"">
                        <p style=""font-size: 20px; font-weight: bold; margin: 0;"">Is there a person in this image?</p>
                    </div>
                </div>","0","main_experiment_trial","2","coin_causal","causal_sequence","chronological","","","","","","",""
"","","","","","html-keyboard-response","42","243297","0.0-42.0","00FDEE4F0AC847E4804C0C811FE61639","019dac6a-82d8-7cd9-8de7-457f495d2012","019dac5b-243f-7307-af64-a10f53f1ef70","","null","
                <div class=""stimulus-container"">
                    <img src=""images/causal_sequence/coin_causal/coin_causal_3.png"" class=""exp-image"">
                    <div class=""question-area""></div> 
                </div>","null","","","","","","","","","","","",""
"","","","","","html-button-response","43","244258","0.0-43.0","00FDEE4F0AC847E4804C0C811FE61639","019dac6a-82d8-7cd9-8de7-457f495d2012","019dac5b-243f-7307-af64-a10f53f1ef70","","947","
                <div class=""stimulus-container"">
                    <img src=""images/causal_sequence/coin_causal/coin_causal_3.png"" class=""exp-image"">
                    <div class=""question-area"">
                        <p style=""font-size: 20px; font-weight: bold; margin: 0;"">Is there a person in this image?</p>
                    </div>
                </div>","0","main_experiment_trial","3","coin_causal","causal_sequence","chronological","","","","","","",""
"","","","","","html-keyboard-response","44","249265","0.0-44.0","00FDEE4F0AC847E4804C0C811FE61639","019dac6a-82d8-7cd9-8de7-457f495d2012","019dac5b-243f-7307-af64-a10f53f1ef70","","null","
                <div class=""stimulus-container"">
                    <img src=""images/causal_sequence/coin_causal/coin_causal_4.png"" class=""exp-image"">
                    <div class=""question-area""></div> 
                </div>","null","","","","","","","","","","","",""
"","","","","","html-button-response","45","250775","0.0-45.0","00FDEE4F0AC847E4804C0C811FE61639","019dac6a-82d8-7cd9-8de7-457f495d2012","019dac5b-243f-7307-af64-a10f53f1ef70","","1505","
                <div class=""stimulus-container"">
                    <img src=""images/causal_sequence/coin_causal/coin_causal_4.png"" class=""exp-image"">
                    <div class=""question-area"">
                        <p style=""font-size: 20px; font-weight: bold; margin: 0;"">Is there a person in this image?</p>
                    </div>
                </div>","0","main_experiment_trial","4","coin_causal","causal_sequence","chronological","","","","","","",""
"","","","","","html-keyboard-response","46","255782","0.0-46.0","00FDEE4F0AC847E4804C0C811FE61639","019dac6a-82d8-7cd9-8de7-457f495d2012","019dac5b-243f-7307-af64-a10f53f1ef70","","null","
                <div class=""stimulus-container"">
                    <img src=""images/causal_sequence/coin_causal/coin_causal_5.png"" class=""exp-image"">
                    <div class=""question-area""></div> 
                </div>","null","","","","","","","","","","","",""
"","","","","","html-button-response","47","256928","0.0-47.0","00FDEE4F0AC847E4804C0C811FE61639","019dac6a-82d8-7cd9-8de7-457f495d2012","019dac5b-243f-7307-af64-a10f53f1ef70","","1104","
                <div class=""stimulus-container"">
                    <img src=""images/causal_sequence/coin_causal/coin_causal_5.png"" class=""exp-image"">
                    <div class=""question-area"">
                        <p style=""font-size: 20px; font-weight: bold; margin: 0;"">Is there a person in this image?</p>
                    </div>
                </div>","0","main_experiment_trial","5","coin_causal","causal_sequence","chronological","","","","","","",""
"","","","","","html-keyboard-response","48","261947","0.0-48.0","00FDEE4F0AC847E4804C0C811FE61639","019dac6a-82d8-7cd9-8de7-457f495d2012","019dac5b-243f-7307-af64-a10f53f1ef70","","null","
                <div class=""stimulus-container"">
                    <img src=""images/causal_sequence/coin_causal/coin_causal_6.png"" class=""exp-image"">
                    <div class=""question-area""></div> 
                </div>","null","","","","","","","","","","","",""
"","","","","","html-button-response","49","262695","0.0-49.0","00FDEE4F0AC847E4804C0C811FE61639","019dac6a-82d8-7cd9-8de7-457f495d2012","019dac5b-243f-7307-af64-a10f53f1ef70","","727","
                <div class=""stimulus-container"">
                    <img src=""images/causal_sequence/coin_causal/coin_causal_6.png"" class=""exp-image"">
                    <div class=""question-area"">
                        <p style=""font-size: 20px; font-weight: bold; margin: 0;"">Is there a person in this image?</p>
                    </div>
                </div>","0","main_experiment_trial","6","coin_causal","causal_sequence","chronological","","","","","","",""
"","","","","","html-keyboard-response","50","267715","0.0-50.0","00FDEE4F0AC847E4804C0C811FE61639","019dac6a-82d8-7cd9-8de7-457f495d2012","019dac5b-243f-7307-af64-a10f53f1ef70","","null","
                <div class=""stimulus-container"">
                    <img src=""images/causal_sequence/coin_causal/coin_causal_7.png"" class=""exp-image"">
                    <div class=""question-area""></div> 
                </div>","null","","","","","","","","","","","",""
"","","","","","html-button-response","51","269692","0.0-51.0","00FDEE4F0AC847E4804C0C811FE61639","019dac6a-82d8-7cd9-8de7-457f495d2012","019dac5b-243f-7307-af64-a10f53f1ef70","","1959","
                <div class=""stimulus-container"">
                    <img src=""images/causal_sequence/coin_causal/coin_causal_7.png"" class=""exp-image"">
                    <div class=""question-area"">
                        <p style=""font-size: 20px; font-weight: bold; margin: 0;"">Is there a person in this image?</p>
                    </div>
                </div>","1","main_experiment_trial","7","coin_causal","causal_sequence","chronological","","","","","","",""
"","","","","","html-keyboard-response","52","274711","0.0-52.0","00FDEE4F0AC847E4804C0C811FE61639","019dac6a-82d8-7cd9-8de7-457f495d2012","019dac5b-243f-7307-af64-a10f53f1ef70","","null","
                <div class=""stimulus-container"">
                    <img src=""images/causal_sequence/coin_causal/coin_causal_8.png"" class=""exp-image"">
                    <div class=""question-area""></div> 
                </div>","null","","","","","","","","","","","",""
"","","","","","html-button-response","53","275709","0.0-53.0","00FDEE4F0AC847E4804C0C811FE61639","019dac6a-82d8-7cd9-8de7-457f495d2012","019dac5b-243f-7307-af64-a10f53f1ef70","","978","
                <div class=""stimulus-container"">
                    <img src=""images/causal_sequence/coin_causal/coin_causal_8.png"" class=""exp-image"">
                    <div class=""question-area"">
                        <p style=""font-size: 20px; font-weight: bold; margin: 0;"">Is there a person in this image?</p>
                    </div>
                </div>","0","main_experiment_trial","8","coin_causal","causal_sequence","chronological","","","","","","",""
"","","","","","html-keyboard-response","54","280728","0.0-54.0","00FDEE4F0AC847E4804C0C811FE61639","019dac6a-82d8-7cd9-8de7-457f495d2012","019dac5b-243f-7307-af64-a10f53f1ef70","","null","
                <div class=""stimulus-container"">
                    <img src=""images/causal_sequence/coin_causal/coin_causal_9.png"" class=""exp-image"">
                    <div class=""question-area""></div> 
                </div>","null","","","","","","","","","","","",""
"","","","","","html-button-response","55","281625","0.0-55.0","00FDEE4F0AC847E4804C0C811FE61639","019dac6a-82d8-7cd9-8de7-457f495d2012","019dac5b-243f-7307-af64-a10f53f1ef70","","879","
                <div class=""stimulus-container"">
                    <img src=""images/causal_sequence/coin_causal/coin_causal_9.png"" class=""exp-image"">
                    <div class=""question-area"">
                        <p style=""font-size: 20px; font-weight: bold; margin: 0;"">Is there a person in this image?</p>
                    </div>
                </div>","0","main_experiment_trial","9","coin_causal","causal_sequence","chronological","","","","","","",""
"","","","","","html-keyboard-response","56","286644","0.0-56.0","00FDEE4F0AC847E4804C0C811FE61639","019dac6a-82d8-7cd9-8de7-457f495d2012","019dac5b-243f-7307-af64-a10f53f1ef70","","null","
                <div class=""stimulus-container"">
                    <img src=""images/causal_sequence/coin_causal/coin_causal_ten.png"" class=""exp-image"">
                    <div class=""question-area""></div> 
                </div>","null","","","","","","","","","","","",""
"","","","","","html-button-response","57","287594","0.0-57.0","00FDEE4F0AC847E4804C0C811FE61639","019dac6a-82d8-7cd9-8de7-457f495d2012","019dac5b-243f-7307-af64-a10f53f1ef70","","929","
                <div class=""stimulus-container"">
                    <img src=""images/causal_sequence/coin_causal/coin_causal_ten.png"" class=""exp-image"">
                    <div class=""question-area"">
                        <p style=""font-size: 20px; font-weight: bold; margin: 0;"">Is there a person in this image?</p>
                    </div>
                </div>","0","main_experiment_trial","ten","coin_causal","causal_sequence","chronological","","","","","","",""
"","","","","","html-keyboard-response","58","292596","0.0-58.0","00FDEE4F0AC847E4804C0C811FE61639","019dac6a-82d8-7cd9-8de7-457f495d2012","019dac5b-243f-7307-af64-a10f53f1ef70","","null","<div style=""background-color: white; width: 100vw; height: 100vh;""></div>","null","","","","","","","","","","","",""
"","","","","","html-keyboard-response","59","297617","0.0-59.0","00FDEE4F0AC847E4804C0C811FE61639","019dac6a-82d8-7cd9-8de7-457f495d2012","019dac5b-243f-7307-af64-a10f53f1ef70","","null","
                <div class=""stimulus-container"">
                    <img src=""images/semantic_sequence/maintaining_a_car_semantic/maintaining_a_car_semantic_1.png"" class=""exp-image"">
                    <div class=""question-area""></div> 
                </div>","null","","","","","","","","","","","",""
"","","","","","html-button-response","60","298744","0.0-60.0","00FDEE4F0AC847E4804C0C811FE61639","019dac6a-82d8-7cd9-8de7-457f495d2012","019dac5b-243f-7307-af64-a10f53f1ef70","","1107","
                <div class=""stimulus-container"">
                    <img src=""images/semantic_sequence/maintaining_a_car_semantic/maintaining_a_car_semantic_1.png"" class=""exp-image"">
                    <div class=""question-area"">
                        <p style=""font-size: 20px; font-weight: bold; margin: 0;"">Is there a person in this image?</p>
                    </div>
                </div>","0","main_experiment_trial","1","maintaining_a_car_semantic","semantic_sequence","chronological","","","","","","",""
"","","","","","html-keyboard-response","61","303762","0.0-61.0","00FDEE4F0AC847E4804C0C811FE61639","019dac6a-82d8-7cd9-8de7-457f495d2012","019dac5b-243f-7307-af64-a10f53f1ef70","","null","
                <div class=""stimulus-container"">
                    <img src=""images/semantic_sequence/maintaining_a_car_semantic/maintaining_a_car_semantic_2.png"" class=""exp-image"">
                    <div class=""question-area""></div> 
                </div>","null","","","","","","","","","","","",""
"","","","","","html-button-response","62","304777","0.0-62.0","00FDEE4F0AC847E4804C0C811FE61639","019dac6a-82d8-7cd9-8de7-457f495d2012","019dac5b-243f-7307-af64-a10f53f1ef70","","994","
                <div class=""stimulus-container"">
                    <img src=""images/semantic_sequence/maintaining_a_car_semantic/maintaining_a_car_semantic_2.png"" class=""exp-image"">
                    <div class=""question-area"">
                        <p style=""font-size: 20px; font-weight: bold; margin: 0;"">Is there a person in this image?</p>
                    </div>
                </div>","0","main_experiment_trial","2","maintaining_a_car_semantic","semantic_sequence","chronological","","","","","","",""
"","","","","","html-keyboard-response","63","309794","0.0-63.0","00FDEE4F0AC847E4804C0C811FE61639","019dac6a-82d8-7cd9-8de7-457f495d2012","019dac5b-243f-7307-af64-a10f53f1ef70","","null","
                <div class=""stimulus-container"">
                    <img src=""images/semantic_sequence/maintaining_a_car_semantic/maintaining_a_car_semantic_3.png"" class=""exp-image"">
                    <div class=""question-area""></div> 
                </div>","null","","","","","","","","","","","",""
"","","","","","html-button-response","64","310276","0.0-64.0","00FDEE4F0AC847E4804C0C811FE61639","019dac6a-82d8-7cd9-8de7-457f495d2012","019dac5b-243f-7307-af64-a10f53f1ef70","","461","
                <div class=""stimulus-container"">
                    <img src=""images/semantic_sequence/maintaining_a_car_semantic/maintaining_a_car_semantic_3.png"" class=""exp-image"">
                    <div class=""question-area"">
                        <p style=""font-size: 20px; font-weight: bold; margin: 0;"">Is there a person in this image?</p>
                    </div>
                </div>","0","main_experiment_trial","3","maintaining_a_car_semantic","semantic_sequence","chronological","","","","","","",""
"","","","","","html-keyboard-response","65","315296","0.0-65.0","00FDEE4F0AC847E4804C0C811FE61639","019dac6a-82d8-7cd9-8de7-457f495d2012","019dac5b-243f-7307-af64-a10f53f1ef70","","null","
                <div class=""stimulus-container"">
                    <img src=""images/semantic_sequence/maintaining_a_car_semantic/maintaining_a_car_semantic_4.png"" class=""exp-image"">
                    <div class=""question-area""></div> 
                </div>","null","","","","","","","","","","","",""
"","","","","","html-button-response","66","316110","0.0-66.0","00FDEE4F0AC847E4804C0C811FE61639","019dac6a-82d8-7cd9-8de7-457f495d2012","019dac5b-243f-7307-af64-a10f53f1ef70","","796","
                <div class=""stimulus-container"">
                    <img src=""images/semantic_sequence/maintaining_a_car_semantic/maintaining_a_car_semantic_4.png"" class=""exp-image"">
                    <div class=""question-area"">
                        <p style=""font-size: 20px; font-weight: bold; margin: 0;"">Is there a person in this image?</p>
                    </div>
                </div>","0","main_experiment_trial","4","maintaining_a_car_semantic","semantic_sequence","chronological","","","","","","",""
"","","","","","html-keyboard-response","67","321118","0.0-67.0","00FDEE4F0AC847E4804C0C811FE61639","019dac6a-82d8-7cd9-8de7-457f495d2012","019dac5b-243f-7307-af64-a10f53f1ef70","","null","
                <div class=""stimulus-container"">
                    <img src=""images/semantic_sequence/maintaining_a_car_semantic/maintaining_a_car_semantic_5.png"" class=""exp-image"">
                    <div class=""question-area""></div> 
                </div>","null","","","","","","","","","","","",""
"","","","","","html-button-response","68","322291","0.0-68.0","00FDEE4F0AC847E4804C0C811FE61639","019dac6a-82d8-7cd9-8de7-457f495d2012","019dac5b-243f-7307-af64-a10f53f1ef70","","1154","
                <div class=""stimulus-container"">
                    <img src=""images/semantic_sequence/maintaining_a_car_semantic/maintaining_a_car_semantic_5.png"" class=""exp-image"">
                    <div class=""question-area"">
                        <p style=""font-size: 20px; font-weight: bold; margin: 0;"">Is there a person in this image?</p>
                    </div>
                </div>","0","main_experiment_trial","5","maintaining_a_car_semantic","semantic_sequence","chronological","","","","","","",""
"","","","","","html-keyboard-response","69","327312","0.0-69.0","00FDEE4F0AC847E4804C0C811FE61639","019dac6a-82d8-7cd9-8de7-457f495d2012","019dac5b-243f-7307-af64-a10f53f1ef70","","null","
                <div class=""stimulus-container"">
                    <img src=""images/semantic_sequence/maintaining_a_car_semantic/maintaining_a_car_semantic_6.png"" class=""exp-image"">
                    <div class=""question-area""></div> 
                </div>","null","","","","","","","","","","","",""
"","","","","","html-button-response","70","329178","0.0-70.0","00FDEE4F0AC847E4804C0C811FE61639","019dac6a-82d8-7cd9-8de7-457f495d2012","019dac5b-243f-7307-af64-a10f53f1ef70","","1844","
                <div class=""stimulus-container"">
                    <img src=""images/semantic_sequence/maintaining_a_car_semantic/maintaining_a_car_semantic_6.png"" class=""exp-image"">
                    <div class=""question-area"">
                        <p style=""font-size: 20px; font-weight: bold; margin: 0;"">Is there a person in this image?</p>
                    </div>
                </div>","0","main_experiment_trial","6","maintaining_a_car_semantic","semantic_sequence","chronological","","","","","","",""
"","","","","","html-keyboard-response","71","334197","0.0-71.0","00FDEE4F0AC847E4804C0C811FE61639","019dac6a-82d8-7cd9-8de7-457f495d2012","019dac5b-243f-7307-af64-a10f53f1ef70","","null","
                <div class=""stimulus-container"">
                    <img src=""images/semantic_sequence/maintaining_a_car_semantic/maintaining_a_car_semantic_7.png"" class=""exp-image"">
                    <div class=""question-area""></div> 
                </div>","null","","","","","","","","","","","",""
"","","","","","html-button-response","72","334925","0.0-72.0","00FDEE4F0AC847E4804C0C811FE61639","019dac6a-82d8-7cd9-8de7-457f495d2012","019dac5b-243f-7307-af64-a10f53f1ef70","","708","
                <div class=""stimulus-container"">
                    <img src=""images/semantic_sequence/maintaining_a_car_semantic/maintaining_a_car_semantic_7.png"" class=""exp-image"">
                    <div class=""question-area"">
                        <p style=""font-size: 20px; font-weight: bold; margin: 0;"">Is there a person in this image?</p>
                    </div>
                </div>","0","main_experiment_trial","7","maintaining_a_car_semantic","semantic_sequence","chronological","","","","","","",""
"","","","","","html-keyboard-response","73","339945","0.0-73.0","00FDEE4F0AC847E4804C0C811FE61639","019dac6a-82d8-7cd9-8de7-457f495d2012","019dac5b-243f-7307-af64-a10f53f1ef70","","null","
                <div class=""stimulus-container"">
                    <img src=""images/semantic_sequence/maintaining_a_car_semantic/maintaining_a_car_semantic_8.png"" class=""exp-image"">
                    <div class=""question-area""></div> 
                </div>","null","","","","","","","","","","","",""
"","","","","","html-button-response","74","341210","0.0-74.0","00FDEE4F0AC847E4804C0C811FE61639","019dac6a-82d8-7cd9-8de7-457f495d2012","019dac5b-243f-7307-af64-a10f53f1ef70","","1247","
                <div class=""stimulus-container"">
                    <img src=""images/semantic_sequence/maintaining_a_car_semantic/maintaining_a_car_semantic_8.png"" class=""exp-image"">
                    <div class=""question-area"">
                        <p style=""font-size: 20px; font-weight: bold; margin: 0;"">Is there a person in this image?</p>
                    </div>
                </div>","0","main_experiment_trial","8","maintaining_a_car_semantic","semantic_sequence","chronological","","","","","","",""
"","","","","","html-keyboard-response","75","346229","0.0-75.0","00FDEE4F0AC847E4804C0C811FE61639","019dac6a-82d8-7cd9-8de7-457f495d2012","019dac5b-243f-7307-af64-a10f53f1ef70","","null","
                <div class=""stimulus-container"">
                    <img src=""images/semantic_sequence/maintaining_a_car_semantic/maintaining_a_car_semantic_9.png"" class=""exp-image"">
                    <div class=""question-area""></div> 
                </div>","null","","","","","","","","","","","",""
"","","","","","html-button-response","76","347442","0.0-76.0","00FDEE4F0AC847E4804C0C811FE61639","019dac6a-82d8-7cd9-8de7-457f495d2012","019dac5b-243f-7307-af64-a10f53f1ef70","","1196","
                <div class=""stimulus-container"">
                    <img src=""images/semantic_sequence/maintaining_a_car_semantic/maintaining_a_car_semantic_9.png"" class=""exp-image"">
                    <div class=""question-area"">
                        <p style=""font-size: 20px; font-weight: bold; margin: 0;"">Is there a person in this image?</p>
                    </div>
                </div>","0","main_experiment_trial","9","maintaining_a_car_semantic","semantic_sequence","chronological","","","","","","",""
"","","","","","html-keyboard-response","77","352460","0.0-77.0","00FDEE4F0AC847E4804C0C811FE61639","019dac6a-82d8-7cd9-8de7-457f495d2012","019dac5b-243f-7307-af64-a10f53f1ef70","","null","
                <div class=""stimulus-container"">
                    <img src=""images/semantic_sequence/maintaining_a_car_semantic/maintaining_a_car_semantic_ten.png"" class=""exp-image"">
                    <div class=""question-area""></div> 
                </div>","null","","","","","","","","","","","",""
"","","","","","html-button-response","78","353327","0.0-78.0","00FDEE4F0AC847E4804C0C811FE61639","019dac6a-82d8-7cd9-8de7-457f495d2012","019dac5b-243f-7307-af64-a10f53f1ef70","","845","
                <div class=""stimulus-container"">
                    <img src=""images/semantic_sequence/maintaining_a_car_semantic/maintaining_a_car_semantic_ten.png"" class=""exp-image"">
                    <div class=""question-area"">
                        <p style=""font-size: 20px; font-weight: bold; margin: 0;"">Is there a person in this image?</p>
                    </div>
                </div>","0","main_experiment_trial","ten","maintaining_a_car_semantic","semantic_sequence","chronological","","","","","","",""
"","","","","","html-keyboard-response","79","358329","0.0-79.0","00FDEE4F0AC847E4804C0C811FE61639","019dac6a-82d8-7cd9-8de7-457f495d2012","019dac5b-243f-7307-af64-a10f53f1ef70","","null","<div style=""background-color: white; width: 100vw; height: 100vh;""></div>","null","","","","","","","","","","","",""
"","","","","","html-keyboard-response","80","363348","0.0-80.0","00FDEE4F0AC847E4804C0C811FE61639","019dac6a-82d8-7cd9-8de7-457f495d2012","019dac5b-243f-7307-af64-a10f53f1ef70","","null","
                <div class=""stimulus-container"">
                    <img src=""images/causal_sequence/package_causal/package_causal_1.png"" class=""exp-image"">
                    <div class=""question-area""></div> 
                </div>","null","","","","","","","","","","","",""
"","","","","","html-button-response","81","364726","0.0-81.0","00FDEE4F0AC847E4804C0C811FE61639","019dac6a-82d8-7cd9-8de7-457f495d2012","019dac5b-243f-7307-af64-a10f53f1ef70","","1361","
                <div class=""stimulus-container"">
                    <img src=""images/causal_sequence/package_causal/package_causal_1.png"" class=""exp-image"">
                    <div class=""question-area"">
                        <p style=""font-size: 20px; font-weight: bold; margin: 0;"">Is there a person in this image?</p>
                    </div>
                </div>","0","main_experiment_trial","1","package_causal","causal_sequence","chronological","","","","","","",""
"","","","","","html-keyboard-response","82","369745","0.0-82.0","00FDEE4F0AC847E4804C0C811FE61639","019dac6a-82d8-7cd9-8de7-457f495d2012","019dac5b-243f-7307-af64-a10f53f1ef70","","null","
                <div class=""stimulus-container"">
                    <img src=""images/causal_sequence/package_causal/package_causal_2.png"" class=""exp-image"">
                    <div class=""question-area""></div> 
                </div>","null","","","","","","","","","","","",""
"","","","","","html-button-response","83","371591","0.0-83.0","00FDEE4F0AC847E4804C0C811FE61639","019dac6a-82d8-7cd9-8de7-457f495d2012","019dac5b-243f-7307-af64-a10f53f1ef70","","1826","
                <div class=""stimulus-container"">
                    <img src=""images/causal_sequence/package_causal/package_causal_2.png"" class=""exp-image"">
                    <div class=""question-area"">
                        <p style=""font-size: 20px; font-weight: bold; margin: 0;"">Is there a person in this image?</p>
                    </div>
                </div>","0","main_experiment_trial","2","package_causal","causal_sequence","chronological","","","","","","",""
"","","","","","html-keyboard-response","84","376611","0.0-84.0","00FDEE4F0AC847E4804C0C811FE61639","019dac6a-82d8-7cd9-8de7-457f495d2012","019dac5b-243f-7307-af64-a10f53f1ef70","","null","
                <div class=""stimulus-container"">
                    <img src=""images/causal_sequence/package_causal/package_causal_3.png"" class=""exp-image"">
                    <div class=""question-area""></div> 
                </div>","null","","","","","","","","","","","",""
"","","","","","html-button-response","85","379043","0.0-85.0","00FDEE4F0AC847E4804C0C811FE61639","019dac6a-82d8-7cd9-8de7-457f495d2012","019dac5b-243f-7307-af64-a10f53f1ef70","","2412","
                <div class=""stimulus-container"">
                    <img src=""images/causal_sequence/package_causal/package_causal_3.png"" class=""exp-image"">
                    <div class=""question-area"">
                        <p style=""font-size: 20px; font-weight: bold; margin: 0;"">Is there a person in this image?</p>
                    </div>
                </div>","0","main_experiment_trial","3","package_causal","causal_sequence","chronological","","","","","","",""
"","","","","","html-keyboard-response","86","384062","0.0-86.0","00FDEE4F0AC847E4804C0C811FE61639","019dac6a-82d8-7cd9-8de7-457f495d2012","019dac5b-243f-7307-af64-a10f53f1ef70","","null","
                <div class=""stimulus-container"">
                    <img src=""images/causal_sequence/package_causal/package_causal_4.png"" class=""exp-image"">
                    <div class=""question-area""></div> 
                </div>","null","","","","","","","","","","","",""
"","","","","","html-button-response","87","385242","0.0-87.0","00FDEE4F0AC847E4804C0C811FE61639","019dac6a-82d8-7cd9-8de7-457f495d2012","019dac5b-243f-7307-af64-a10f53f1ef70","","1161","
                <div class=""stimulus-container"">
                    <img src=""images/causal_sequence/package_causal/package_causal_4.png"" class=""exp-image"">
                    <div class=""question-area"">
                        <p style=""font-size: 20px; font-weight: bold; margin: 0;"">Is there a person in this image?</p>
                    </div>
                </div>","1","main_experiment_trial","4","package_causal","causal_sequence","chronological","","","","","","",""
"","","","","","html-keyboard-response","88","390261","0.0-88.0","00FDEE4F0AC847E4804C0C811FE61639","019dac6a-82d8-7cd9-8de7-457f495d2012","019dac5b-243f-7307-af64-a10f53f1ef70","","null","
                <div class=""stimulus-container"">
                    <img src=""images/causal_sequence/package_causal/package_causal_5.png"" class=""exp-image"">
                    <div class=""question-area""></div> 
                </div>","null","","","","","","","","","","","",""
"","","","","","html-button-response","89","391243","0.0-89.0","00FDEE4F0AC847E4804C0C811FE61639","019dac6a-82d8-7cd9-8de7-457f495d2012","019dac5b-243f-7307-af64-a10f53f1ef70","","963","
                <div class=""stimulus-container"">
                    <img src=""images/causal_sequence/package_causal/package_causal_5.png"" class=""exp-image"">
                    <div class=""question-area"">
                        <p style=""font-size: 20px; font-weight: bold; margin: 0;"">Is there a person in this image?</p>
                    </div>
                </div>","0","main_experiment_trial","5","package_causal","causal_sequence","chronological","","","","","","",""
"","","","","","html-keyboard-response","90","396262","0.0-90.0","00FDEE4F0AC847E4804C0C811FE61639","019dac6a-82d8-7cd9-8de7-457f495d2012","019dac5b-243f-7307-af64-a10f53f1ef70","","null","
                <div class=""stimulus-container"">
                    <img src=""images/causal_sequence/package_causal/package_causal_6.png"" class=""exp-image"">
                    <div class=""question-area""></div> 
                </div>","null","","","","","","","","","","","",""
"","","","","","html-button-response","91","397091","0.0-91.0","00FDEE4F0AC847E4804C0C811FE61639","019dac6a-82d8-7cd9-8de7-457f495d2012","019dac5b-243f-7307-af64-a10f53f1ef70","","808","
                <div class=""stimulus-container"">
                    <img src=""images/causal_sequence/package_causal/package_causal_6.png"" class=""exp-image"">
                    <div class=""question-area"">
                        <p style=""font-size: 20px; font-weight: bold; margin: 0;"">Is there a person in this image?</p>
                    </div>
                </div>","0","main_experiment_trial","6","package_causal","causal_sequence","chronological","","","","","","",""
"","","","","","html-keyboard-response","92","402110","0.0-92.0","00FDEE4F0AC847E4804C0C811FE61639","019dac6a-82d8-7cd9-8de7-457f495d2012","019dac5b-243f-7307-af64-a10f53f1ef70","","null","
                <div class=""stimulus-container"">
                    <img src=""images/causal_sequence/package_causal/package_causal_7.png"" class=""exp-image"">
                    <div class=""question-area""></div> 
                </div>","null","","","","","","","","","","","",""
"","","","","","html-button-response","93","403043","0.0-93.0","00FDEE4F0AC847E4804C0C811FE61639","019dac6a-82d8-7cd9-8de7-457f495d2012","019dac5b-243f-7307-af64-a10f53f1ef70","","914","
                <div class=""stimulus-container"">
                    <img src=""images/causal_sequence/package_causal/package_causal_7.png"" class=""exp-image"">
                    <div class=""question-area"">
                        <p style=""font-size: 20px; font-weight: bold; margin: 0;"">Is there a person in this image?</p>
                    </div>
                </div>","0","main_experiment_trial","7","package_causal","causal_sequence","chronological","","","","","","",""
"","","","","","html-keyboard-response","94","408061","0.0-94.0","00FDEE4F0AC847E4804C0C811FE61639","019dac6a-82d8-7cd9-8de7-457f495d2012","019dac5b-243f-7307-af64-a10f53f1ef70","","null","
                <div class=""stimulus-container"">
                    <img src=""images/causal_sequence/package_causal/package_causal_8.png"" class=""exp-image"">
                    <div class=""question-area""></div> 
                </div>","null","","","","","","","","","","","",""
"","","","","","html-button-response","95","408993","0.0-95.0","00FDEE4F0AC847E4804C0C811FE61639","019dac6a-82d8-7cd9-8de7-457f495d2012","019dac5b-243f-7307-af64-a10f53f1ef70","","912","
                <div class=""stimulus-container"">
                    <img src=""images/causal_sequence/package_causal/package_causal_8.png"" class=""exp-image"">
                    <div class=""question-area"">
                        <p style=""font-size: 20px; font-weight: bold; margin: 0;"">Is there a person in this image?</p>
                    </div>
                </div>","0","main_experiment_trial","8","package_causal","causal_sequence","chronological","","","","","","",""
"","","","","","html-keyboard-response","96","414010","0.0-96.0","00FDEE4F0AC847E4804C0C811FE61639","019dac6a-82d8-7cd9-8de7-457f495d2012","019dac5b-243f-7307-af64-a10f53f1ef70","","null","
                <div class=""stimulus-container"">
                    <img src=""images/causal_sequence/package_causal/package_causal_9.png"" class=""exp-image"">
                    <div class=""question-area""></div> 
                </div>","null","","","","","","","","","","","",""
"","","","","","html-button-response","97","414743","0.0-97.0","00FDEE4F0AC847E4804C0C811FE61639","019dac6a-82d8-7cd9-8de7-457f495d2012","019dac5b-243f-7307-af64-a10f53f1ef70","","713","
                <div class=""stimulus-container"">
                    <img src=""images/causal_sequence/package_causal/package_causal_9.png"" class=""exp-image"">
                    <div class=""question-area"">
                        <p style=""font-size: 20px; font-weight: bold; margin: 0;"">Is there a person in this image?</p>
                    </div>
                </div>","0","main_experiment_trial","9","package_causal","causal_sequence","chronological","","","","","","",""
"","","","","","html-keyboard-response","98","419762","0.0-98.0","00FDEE4F0AC847E4804C0C811FE61639","019dac6a-82d8-7cd9-8de7-457f495d2012","019dac5b-243f-7307-af64-a10f53f1ef70","","null","
                <div class=""stimulus-container"">
                    <img src=""images/causal_sequence/package_causal/package_causal_ten.png"" class=""exp-image"">
                    <div class=""question-area""></div> 
                </div>","null","","","","","","","","","","","",""
"","","","","","html-button-response","99","421107","0.0-99.0","00FDEE4F0AC847E4804C0C811FE61639","019dac6a-82d8-7cd9-8de7-457f495d2012","019dac5b-243f-7307-af64-a10f53f1ef70","","1324","
                <div class=""stimulus-container"">
                    <img src=""images/causal_sequence/package_causal/package_causal_ten.png"" class=""exp-image"">
                    <div class=""question-area"">
                        <p style=""font-size: 20px; font-weight: bold; margin: 0;"">Is there a person in this image?</p>
                    </div>
                </div>","0","main_experiment_trial","ten","package_causal","causal_sequence","chronological","","","","","","",""
"","","","","","html-keyboard-response","100","426109","0.0-100.0","00FDEE4F0AC847E4804C0C811FE61639","019dac6a-82d8-7cd9-8de7-457f495d2012","019dac5b-243f-7307-af64-a10f53f1ef70","","null","<div style=""background-color: white; width: 100vw; height: 100vh;""></div>","null","","","","","","","","","","","",""
"","","","","","html-keyboard-response","101","431129","0.0-101.0","00FDEE4F0AC847E4804C0C811FE61639","019dac6a-82d8-7cd9-8de7-457f495d2012","019dac5b-243f-7307-af64-a10f53f1ef70","","null","
                <div class=""stimulus-container"">
                    <img src=""images/semantic_sequence/kitchen_operations_semantic/kitchen_operations_semantic_1.png"" class=""exp-image"">
                    <div class=""question-area""></div> 
                </div>","null","","","","","","","","","","","",""
"","","","","","html-button-response","102","432109","0.0-102.0","00FDEE4F0AC847E4804C0C811FE61639","019dac6a-82d8-7cd9-8de7-457f495d2012","019dac5b-243f-7307-af64-a10f53f1ef70","","959","
                <div class=""stimulus-container"">
                    <img src=""images/semantic_sequence/kitchen_operations_semantic/kitchen_operations_semantic_1.png"" class=""exp-image"">
                    <div class=""question-area"">
                        <p style=""font-size: 20px; font-weight: bold; margin: 0;"">Is there a person in this image?</p>
                    </div>
                </div>","0","main_experiment_trial","1","kitchen_operations_semantic","semantic_sequence","chronological","","","","","","",""
"","","","","","html-keyboard-response","103","437128","0.0-103.0","00FDEE4F0AC847E4804C0C811FE61639","019dac6a-82d8-7cd9-8de7-457f495d2012","019dac5b-243f-7307-af64-a10f53f1ef70","","null","
                <div class=""stimulus-container"">
                    <img src=""images/semantic_sequence/kitchen_operations_semantic/kitchen_operations_semantic_2.png"" class=""exp-image"">
                    <div class=""question-area""></div> 
                </div>","null","","","","","","","","","","","",""
"","","","","","html-button-response","104","437942","0.0-104.0","00FDEE4F0AC847E4804C0C811FE61639","019dac6a-82d8-7cd9-8de7-457f495d2012","019dac5b-243f-7307-af64-a10f53f1ef70","","794","
                <div class=""stimulus-container"">
                    <img src=""images/semantic_sequence/kitchen_operations_semantic/kitchen_operations_semantic_2.png"" class=""exp-image"">
                    <div class=""question-area"">
                        <p style=""font-size: 20px; font-weight: bold; margin: 0;"">Is there a person in this image?</p>
                    </div>
                </div>","0","main_experiment_trial","2","kitchen_operations_semantic","semantic_sequence","chronological","","","","","","",""
"","","","","","html-keyboard-response","105","442961","0.0-105.0","00FDEE4F0AC847E4804C0C811FE61639","019dac6a-82d8-7cd9-8de7-457f495d2012","019dac5b-243f-7307-af64-a10f53f1ef70","","null","
                <div class=""stimulus-container"">
                    <img src=""images/semantic_sequence/kitchen_operations_semantic/kitchen_operations_semantic_3.png"" class=""exp-image"">
                    <div class=""question-area""></div> 
                </div>","null","","","","","","","","","","","",""
"","","","","","html-button-response","106","444342","0.0-106.0","00FDEE4F0AC847E4804C0C811FE61639","019dac6a-82d8-7cd9-8de7-457f495d2012","019dac5b-243f-7307-af64-a10f53f1ef70","","1363","
                <div class=""stimulus-container"">
                    <img src=""images/semantic_sequence/kitchen_operations_semantic/kitchen_operations_semantic_3.png"" class=""exp-image"">
                    <div class=""question-area"">
                        <p style=""font-size: 20px; font-weight: bold; margin: 0;"">Is there a person in this image?</p>
                    </div>
                </div>","0","main_experiment_trial","3","kitchen_operations_semantic","semantic_sequence","chronological","","","","","","",""
"","","","","","html-keyboard-response","107","449361","0.0-107.0","00FDEE4F0AC847E4804C0C811FE61639","019dac6a-82d8-7cd9-8de7-457f495d2012","019dac5b-243f-7307-af64-a10f53f1ef70","","null","
                <div class=""stimulus-container"">
                    <img src=""images/semantic_sequence/kitchen_operations_semantic/kitchen_operations_semantic_4.png"" class=""exp-image"">
                    <div class=""question-area""></div> 
                </div>","null","","","","","","","","","","","",""
"","","","","","html-button-response","108","450141","0.0-108.0","00FDEE4F0AC847E4804C0C811FE61639","019dac6a-82d8-7cd9-8de7-457f495d2012","019dac5b-243f-7307-af64-a10f53f1ef70","","761","
                <div class=""stimulus-container"">
                    <img src=""images/semantic_sequence/kitchen_operations_semantic/kitchen_operations_semantic_4.png"" class=""exp-image"">
                    <div class=""question-area"">
                        <p style=""font-size: 20px; font-weight: bold; margin: 0;"">Is there a person in this image?</p>
                    </div>
                </div>","0","main_experiment_trial","4","kitchen_operations_semantic","semantic_sequence","chronological","","","","","","",""
"","","","","","html-keyboard-response","109","455158","0.0-109.0","00FDEE4F0AC847E4804C0C811FE61639","019dac6a-82d8-7cd9-8de7-457f495d2012","019dac5b-243f-7307-af64-a10f53f1ef70","","null","
                <div class=""stimulus-container"">
                    <img src=""images/semantic_sequence/kitchen_operations_semantic/kitchen_operations_semantic_5.png"" class=""exp-image"">
                    <div class=""question-area""></div> 
                </div>","null","","","","","","","","","","","",""
"","","","","","html-button-response","110","455742","0.0-110.0","00FDEE4F0AC847E4804C0C811FE61639","019dac6a-82d8-7cd9-8de7-457f495d2012","019dac5b-243f-7307-af64-a10f53f1ef70","","564","
                <div class=""stimulus-container"">
                    <img src=""images/semantic_sequence/kitchen_operations_semantic/kitchen_operations_semantic_5.png"" class=""exp-image"">
                    <div class=""question-area"">
                        <p style=""font-size: 20px; font-weight: bold; margin: 0;"">Is there a person in this image?</p>
                    </div>
                </div>","0","main_experiment_trial","5","kitchen_operations_semantic","semantic_sequence","chronological","","","","","","",""
"","","","","","html-keyboard-response","111","460761","0.0-111.0","00FDEE4F0AC847E4804C0C811FE61639","019dac6a-82d8-7cd9-8de7-457f495d2012","019dac5b-243f-7307-af64-a10f53f1ef70","","null","
                <div class=""stimulus-container"">
                    <img src=""images/semantic_sequence/kitchen_operations_semantic/kitchen_operations_semantic_6.png"" class=""exp-image"">
                    <div class=""question-area""></div> 
                </div>","null","","","","","","","","","","","",""
"","","","","","html-button-response","112","461292","0.0-112.0","00FDEE4F0AC847E4804C0C811FE61639","019dac6a-82d8-7cd9-8de7-457f495d2012","019dac5b-243f-7307-af64-a10f53f1ef70","","510","
                <div class=""stimulus-container"">
                    <img src=""images/semantic_sequence/kitchen_operations_semantic/kitchen_operations_semantic_6.png"" class=""exp-image"">
                    <div class=""question-area"">
                        <p style=""font-size: 20px; font-weight: bold; margin: 0;"">Is there a person in this image?</p>
                    </div>
                </div>","0","main_experiment_trial","6","kitchen_operations_semantic","semantic_sequence","chronological","","","","","","",""
"","","","","","html-keyboard-response","113","466311","0.0-113.0","00FDEE4F0AC847E4804C0C811FE61639","019dac6a-82d8-7cd9-8de7-457f495d2012","019dac5b-243f-7307-af64-a10f53f1ef70","","null","
                <div class=""stimulus-container"">
                    <img src=""images/semantic_sequence/kitchen_operations_semantic/kitchen_operations_semantic_7.png"" class=""exp-image"">
                    <div class=""question-area""></div> 
                </div>","null","","","","","","","","","","","",""
"","","","","","html-button-response","114","467125","0.0-114.0","00FDEE4F0AC847E4804C0C811FE61639","019dac6a-82d8-7cd9-8de7-457f495d2012","019dac5b-243f-7307-af64-a10f53f1ef70","","792","
                <div class=""stimulus-container"">
                    <img src=""images/semantic_sequence/kitchen_operations_semantic/kitchen_operations_semantic_7.png"" class=""exp-image"">
                    <div class=""question-area"">
                        <p style=""font-size: 20px; font-weight: bold; margin: 0;"">Is there a person in this image?</p>
                    </div>
                </div>","0","main_experiment_trial","7","kitchen_operations_semantic","semantic_sequence","chronological","","","","","","",""
"","","","","","html-keyboard-response","115","472142","0.0-115.0","00FDEE4F0AC847E4804C0C811FE61639","019dac6a-82d8-7cd9-8de7-457f495d2012","019dac5b-243f-7307-af64-a10f53f1ef70","","null","
                <div class=""stimulus-container"">
                    <img src=""images/semantic_sequence/kitchen_operations_semantic/kitchen_operations_semantic_8.png"" class=""exp-image"">
                    <div class=""question-area""></div> 
                </div>","null","","","","","","","","","","","",""
"","","","","","html-button-response","116","473607","0.0-116.0","00FDEE4F0AC847E4804C0C811FE61639","019dac6a-82d8-7cd9-8de7-457f495d2012","019dac5b-243f-7307-af64-a10f53f1ef70","","1446","
                <div class=""stimulus-container"">
                    <img src=""images/semantic_sequence/kitchen_operations_semantic/kitchen_operations_semantic_8.png"" class=""exp-image"">
                    <div class=""question-area"">
                        <p style=""font-size: 20px; font-weight: bold; margin: 0;"">Is there a person in this image?</p>
                    </div>
                </div>","0","main_experiment_trial","8","kitchen_operations_semantic","semantic_sequence","chronological","","","","","","",""
"","","","","","html-keyboard-response","117","478626","0.0-117.0","00FDEE4F0AC847E4804C0C811FE61639","019dac6a-82d8-7cd9-8de7-457f495d2012","019dac5b-243f-7307-af64-a10f53f1ef70","","null","
                <div class=""stimulus-container"">
                    <img src=""images/semantic_sequence/kitchen_operations_semantic/kitchen_operations_semantic_9.png"" class=""exp-image"">
                    <div class=""question-area""></div> 
                </div>","null","","","","","","","","","","","",""
"","","","","","html-button-response","118","479375","0.0-118.0","00FDEE4F0AC847E4804C0C811FE61639","019dac6a-82d8-7cd9-8de7-457f495d2012","019dac5b-243f-7307-af64-a10f53f1ef70","","729","
                <div class=""stimulus-container"">
                    <img src=""images/semantic_sequence/kitchen_operations_semantic/kitchen_operations_semantic_9.png"" class=""exp-image"">
                    <div class=""question-area"">
                        <p style=""font-size: 20px; font-weight: bold; margin: 0;"">Is there a person in this image?</p>
                    </div>
                </div>","0","main_experiment_trial","9","kitchen_operations_semantic","semantic_sequence","chronological","","","","","","",""
"","","","","","html-keyboard-response","119","484395","0.0-119.0","00FDEE4F0AC847E4804C0C811FE61639","019dac6a-82d8-7cd9-8de7-457f495d2012","019dac5b-243f-7307-af64-a10f53f1ef70","","null","
                <div class=""stimulus-container"">
                    <img src=""images/semantic_sequence/kitchen_operations_semantic/kitchen_operations_semantic_ten.png"" class=""exp-image"">
                    <div class=""question-area""></div> 
                </div>","null","","","","","","","","","","","",""
"","","","","","html-button-response","120","486276","0.0-120.0","00FDEE4F0AC847E4804C0C811FE61639","019dac6a-82d8-7cd9-8de7-457f495d2012","019dac5b-243f-7307-af64-a10f53f1ef70","","1861","
                <div class=""stimulus-container"">
                    <img src=""images/semantic_sequence/kitchen_operations_semantic/kitchen_operations_semantic_ten.png"" class=""exp-image"">
                    <div class=""question-area"">
                        <p style=""font-size: 20px; font-weight: bold; margin: 0;"">Is there a person in this image?</p>
                    </div>
                </div>","0","main_experiment_trial","ten","kitchen_operations_semantic","semantic_sequence","chronological","","","","","","",""
"","","","","","html-keyboard-response","121","491278","0.0-121.0","00FDEE4F0AC847E4804C0C811FE61639","019dac6a-82d8-7cd9-8de7-457f495d2012","019dac5b-243f-7307-af64-a10f53f1ef70","","null","<div style=""background-color: white; width: 100vw; height: 100vh;""></div>","null","","","","","","","","","","","",""
"","","","","","html-keyboard-response","122","496298","0.0-122.0","00FDEE4F0AC847E4804C0C811FE61639","019dac6a-82d8-7cd9-8de7-457f495d2012","019dac5b-243f-7307-af64-a10f53f1ef70","","null","
                <div class=""stimulus-container"">
                    <img src=""images/causal_sequence/saving_a_cat_causal/saving_a_cat_causal_1.png"" class=""exp-image"">
                    <div class=""question-area""></div> 
                </div>","null","","","","","","","","","","","",""
"","","","","","html-button-response","123","497008","0.0-123.0","00FDEE4F0AC847E4804C0C811FE61639","019dac6a-82d8-7cd9-8de7-457f495d2012","019dac5b-243f-7307-af64-a10f53f1ef70","","690","
                <div class=""stimulus-container"">
                    <img src=""images/causal_sequence/saving_a_cat_causal/saving_a_cat_causal_1.png"" class=""exp-image"">
                    <div class=""question-area"">
                        <p style=""font-size: 20px; font-weight: bold; margin: 0;"">Is there a person in this image?</p>
                    </div>
                </div>","0","main_experiment_trial","1","saving_a_cat_causal","causal_sequence","chronological","","","","","","",""
"","","","","","html-keyboard-response","124","502026","0.0-124.0","00FDEE4F0AC847E4804C0C811FE61639","019dac6a-82d8-7cd9-8de7-457f495d2012","019dac5b-243f-7307-af64-a10f53f1ef70","","null","
                <div class=""stimulus-container"">
                    <img src=""images/causal_sequence/saving_a_cat_causal/saving_a_cat_causal_2.png"" class=""exp-image"">
                    <div class=""question-area""></div> 
                </div>","null","","","","","","","","","","","",""
"","","","","","html-button-response","125","503090","0.0-125.0","00FDEE4F0AC847E4804C0C811FE61639","019dac6a-82d8-7cd9-8de7-457f495d2012","019dac5b-243f-7307-af64-a10f53f1ef70","","1043","
                <div class=""stimulus-container"">
                    <img src=""images/causal_sequence/saving_a_cat_causal/saving_a_cat_causal_2.png"" class=""exp-image"">
                    <div class=""question-area"">
                        <p style=""font-size: 20px; font-weight: bold; margin: 0;"">Is there a person in this image?</p>
                    </div>
                </div>","1","main_experiment_trial","2","saving_a_cat_causal","causal_sequence","chronological","","","","","","",""
"","","","","","html-keyboard-response","126","508109","0.0-126.0","00FDEE4F0AC847E4804C0C811FE61639","019dac6a-82d8-7cd9-8de7-457f495d2012","019dac5b-243f-7307-af64-a10f53f1ef70","","null","
                <div class=""stimulus-container"">
                    <img src=""images/causal_sequence/saving_a_cat_causal/saving_a_cat_causal_3.png"" class=""exp-image"">
                    <div class=""question-area""></div> 
                </div>","null","","","","","","","","","","","",""
"","","","","","html-button-response","127","508823","0.0-127.0","00FDEE4F0AC847E4804C0C811FE61639","019dac6a-82d8-7cd9-8de7-457f495d2012","019dac5b-243f-7307-af64-a10f53f1ef70","","694","
                <div class=""stimulus-container"">
                    <img src=""images/causal_sequence/saving_a_cat_causal/saving_a_cat_causal_3.png"" class=""exp-image"">
                    <div class=""question-area"">
                        <p style=""font-size: 20px; font-weight: bold; margin: 0;"">Is there a person in this image?</p>
                    </div>
                </div>","1","main_experiment_trial","3","saving_a_cat_causal","causal_sequence","chronological","","","","","","",""
"","","","","","html-keyboard-response","128","513844","0.0-128.0","00FDEE4F0AC847E4804C0C811FE61639","019dac6a-82d8-7cd9-8de7-457f495d2012","019dac5b-243f-7307-af64-a10f53f1ef70","","null","
                <div class=""stimulus-container"">
                    <img src=""images/causal_sequence/saving_a_cat_causal/saving_a_cat_causal_4.png"" class=""exp-image"">
                    <div class=""question-area""></div> 
                </div>","null","","","","","","","","","","","",""
"","","","","","html-button-response","129","516123","0.0-129.0","00FDEE4F0AC847E4804C0C811FE61639","019dac6a-82d8-7cd9-8de7-457f495d2012","019dac5b-243f-7307-af64-a10f53f1ef70","","2259","
                <div class=""stimulus-container"">
                    <img src=""images/causal_sequence/saving_a_cat_causal/saving_a_cat_causal_4.png"" class=""exp-image"">
                    <div class=""question-area"">
                        <p style=""font-size: 20px; font-weight: bold; margin: 0;"">Is there a person in this image?</p>
                    </div>
                </div>","0","main_experiment_trial","4","saving_a_cat_causal","causal_sequence","chronological","","","","","","",""
"","","","","","html-keyboard-response","130","521143","0.0-130.0","00FDEE4F0AC847E4804C0C811FE61639","019dac6a-82d8-7cd9-8de7-457f495d2012","019dac5b-243f-7307-af64-a10f53f1ef70","","null","
                <div class=""stimulus-container"">
                    <img src=""images/causal_sequence/saving_a_cat_causal/saving_a_cat_causal_5.png"" class=""exp-image"">
                    <div class=""question-area""></div> 
                </div>","null","","","","","","","","","","","",""
"","","","","","html-button-response","131","522224","0.0-131.0","00FDEE4F0AC847E4804C0C811FE61639","019dac6a-82d8-7cd9-8de7-457f495d2012","019dac5b-243f-7307-af64-a10f53f1ef70","","1061","
                <div class=""stimulus-container"">
                    <img src=""images/causal_sequence/saving_a_cat_causal/saving_a_cat_causal_5.png"" class=""exp-image"">
                    <div class=""question-area"">
                        <p style=""font-size: 20px; font-weight: bold; margin: 0;"">Is there a person in this image?</p>
                    </div>
                </div>","0","main_experiment_trial","5","saving_a_cat_causal","causal_sequence","chronological","","","","","","",""
"","","","","","html-keyboard-response","132","527244","0.0-132.0","00FDEE4F0AC847E4804C0C811FE61639","019dac6a-82d8-7cd9-8de7-457f495d2012","019dac5b-243f-7307-af64-a10f53f1ef70","","null","
                <div class=""stimulus-container"">
                    <img src=""images/causal_sequence/saving_a_cat_causal/saving_a_cat_causal_6.png"" class=""exp-image"">
                    <div class=""question-area""></div> 
                </div>","null","","","","","","","","","","","",""
"","","","","","html-button-response","133","528374","0.0-133.0","00FDEE4F0AC847E4804C0C811FE61639","019dac6a-82d8-7cd9-8de7-457f495d2012","019dac5b-243f-7307-af64-a10f53f1ef70","","1110","
                <div class=""stimulus-container"">
                    <img src=""images/causal_sequence/saving_a_cat_causal/saving_a_cat_causal_6.png"" class=""exp-image"">
                    <div class=""question-area"">
                        <p style=""font-size: 20px; font-weight: bold; margin: 0;"">Is there a person in this image?</p>
                    </div>
                </div>","0","main_experiment_trial","6","saving_a_cat_causal","causal_sequence","chronological","","","","","","",""
"","","","","","html-keyboard-response","134","533394","0.0-134.0","00FDEE4F0AC847E4804C0C811FE61639","019dac6a-82d8-7cd9-8de7-457f495d2012","019dac5b-243f-7307-af64-a10f53f1ef70","","null","
                <div class=""stimulus-container"">
                    <img src=""images/causal_sequence/saving_a_cat_causal/saving_a_cat_causal_7.png"" class=""exp-image"">
                    <div class=""question-area""></div> 
                </div>","null","","","","","","","","","","","",""
"","","","","","html-button-response","135","534107","0.0-135.0","00FDEE4F0AC847E4804C0C811FE61639","019dac6a-82d8-7cd9-8de7-457f495d2012","019dac5b-243f-7307-af64-a10f53f1ef70","","694","
                <div class=""stimulus-container"">
                    <img src=""images/causal_sequence/saving_a_cat_causal/saving_a_cat_causal_7.png"" class=""exp-image"">
                    <div class=""question-area"">
                        <p style=""font-size: 20px; font-weight: bold; margin: 0;"">Is there a person in this image?</p>
                    </div>
                </div>","0","main_experiment_trial","7","saving_a_cat_causal","causal_sequence","chronological","","","","","","",""
"","","","","","html-keyboard-response","136","539127","0.0-136.0","00FDEE4F0AC847E4804C0C811FE61639","019dac6a-82d8-7cd9-8de7-457f495d2012","019dac5b-243f-7307-af64-a10f53f1ef70","","null","
                <div class=""stimulus-container"">
                    <img src=""images/causal_sequence/saving_a_cat_causal/saving_a_cat_causal_8.png"" class=""exp-image"">
                    <div class=""question-area""></div> 
                </div>","null","","","","","","","","","","","",""
"","","","","","html-button-response","137","540640","0.0-137.0","00FDEE4F0AC847E4804C0C811FE61639","019dac6a-82d8-7cd9-8de7-457f495d2012","019dac5b-243f-7307-af64-a10f53f1ef70","","1495","
                <div class=""stimulus-container"">
                    <img src=""images/causal_sequence/saving_a_cat_causal/saving_a_cat_causal_8.png"" class=""exp-image"">
                    <div class=""question-area"">
                        <p style=""font-size: 20px; font-weight: bold; margin: 0;"">Is there a person in this image?</p>
                    </div>
                </div>","0","main_experiment_trial","8","saving_a_cat_causal","causal_sequence","chronological","","","","","","",""
"","","","","","html-keyboard-response","138","545660","0.0-138.0","00FDEE4F0AC847E4804C0C811FE61639","019dac6a-82d8-7cd9-8de7-457f495d2012","019dac5b-243f-7307-af64-a10f53f1ef70","","null","
                <div class=""stimulus-container"">
                    <img src=""images/causal_sequence/saving_a_cat_causal/saving_a_cat_causal_9.png"" class=""exp-image"">
                    <div class=""question-area""></div> 
                </div>","null","","","","","","","","","","","",""
"","","","","","html-button-response","139","546773","0.0-139.0","00FDEE4F0AC847E4804C0C811FE61639","019dac6a-82d8-7cd9-8de7-457f495d2012","019dac5b-243f-7307-af64-a10f53f1ef70","","1096","
                <div class=""stimulus-container"">
                    <img src=""images/causal_sequence/saving_a_cat_causal/saving_a_cat_causal_9.png"" class=""exp-image"">
                    <div class=""question-area"">
                        <p style=""font-size: 20px; font-weight: bold; margin: 0;"">Is there a person in this image?</p>
                    </div>
                </div>","0","main_experiment_trial","9","saving_a_cat_causal","causal_sequence","chronological","","","","","","",""
"","","","","","html-keyboard-response","140","551794","0.0-140.0","00FDEE4F0AC847E4804C0C811FE61639","019dac6a-82d8-7cd9-8de7-457f495d2012","019dac5b-243f-7307-af64-a10f53f1ef70","","null","
                <div class=""stimulus-container"">
                    <img src=""images/causal_sequence/saving_a_cat_causal/saving_a_cat_causal_ten.png"" class=""exp-image"">
                    <div class=""question-area""></div> 
                </div>","null","","","","","","","","","","","",""
"","","","","","html-button-response","141","553072","0.0-141.0","00FDEE4F0AC847E4804C0C811FE61639","019dac6a-82d8-7cd9-8de7-457f495d2012","019dac5b-243f-7307-af64-a10f53f1ef70","","1258","
                <div class=""stimulus-container"">
                    <img src=""images/causal_sequence/saving_a_cat_causal/saving_a_cat_causal_ten.png"" class=""exp-image"">
                    <div class=""question-area"">
                        <p style=""font-size: 20px; font-weight: bold; margin: 0;"">Is there a person in this image?</p>
                    </div>
                </div>","0","main_experiment_trial","ten","saving_a_cat_causal","causal_sequence","chronological","","","","","","",""
"","","","","","html-keyboard-response","142","558074","0.0-142.0","00FDEE4F0AC847E4804C0C811FE61639","019dac6a-82d8-7cd9-8de7-457f495d2012","019dac5b-243f-7307-af64-a10f53f1ef70","","null","<div style=""background-color: white; width: 100vw; height: 100vh;""></div>","null","","","","","","","","","","","",""
"","","","","","html-keyboard-response","143","563096","0.0-143.0","00FDEE4F0AC847E4804C0C811FE61639","019dac6a-82d8-7cd9-8de7-457f495d2012","019dac5b-243f-7307-af64-a10f53f1ef70","","null","
                <div class=""stimulus-container"">
                    <img src=""images/semantic_sequence/self_care_activities_semantic/self_care_activities_semantic_1.png"" class=""exp-image"">
                    <div class=""question-area""></div> 
                </div>","null","","","","","","","","","","","",""
"","","","","","html-button-response","144","564506","0.0-144.0","00FDEE4F0AC847E4804C0C811FE61639","019dac6a-82d8-7cd9-8de7-457f495d2012","019dac5b-243f-7307-af64-a10f53f1ef70","","1389","
                <div class=""stimulus-container"">
                    <img src=""images/semantic_sequence/self_care_activities_semantic/self_care_activities_semantic_1.png"" class=""exp-image"">
                    <div class=""question-area"">
                        <p style=""font-size: 20px; font-weight: bold; margin: 0;"">Is there a person in this image?</p>
                    </div>
                </div>","0","main_experiment_trial","1","self_care_activities_semantic","semantic_sequence","chronological","","","","","","",""
"","","","","","html-keyboard-response","145","569526","0.0-145.0","00FDEE4F0AC847E4804C0C811FE61639","019dac6a-82d8-7cd9-8de7-457f495d2012","019dac5b-243f-7307-af64-a10f53f1ef70","","null","
                <div class=""stimulus-container"">
                    <img src=""images/semantic_sequence/self_care_activities_semantic/self_care_activities_semantic_2.png"" class=""exp-image"">
                    <div class=""question-area""></div> 
                </div>","null","","","","","","","","","","","",""
"","","","","","html-button-response","146","571624","0.0-146.0","00FDEE4F0AC847E4804C0C811FE61639","019dac6a-82d8-7cd9-8de7-457f495d2012","019dac5b-243f-7307-af64-a10f53f1ef70","","2079","
                <div class=""stimulus-container"">
                    <img src=""images/semantic_sequence/self_care_activities_semantic/self_care_activities_semantic_2.png"" class=""exp-image"">
                    <div class=""question-area"">
                        <p style=""font-size: 20px; font-weight: bold; margin: 0;"">Is there a person in this image?</p>
                    </div>
                </div>","0","main_experiment_trial","2","self_care_activities_semantic","semantic_sequence","chronological","","","","","","",""
"","","","","","html-keyboard-response","147","576643","0.0-147.0","00FDEE4F0AC847E4804C0C811FE61639","019dac6a-82d8-7cd9-8de7-457f495d2012","019dac5b-243f-7307-af64-a10f53f1ef70","","null","
                <div class=""stimulus-container"">
                    <img src=""images/semantic_sequence/self_care_activities_semantic/self_care_activities_semantic_3.png"" class=""exp-image"">
                    <div class=""question-area""></div> 
                </div>","null","","","","","","","","","","","",""
"","","","","","html-button-response","148","577656","0.0-148.0","00FDEE4F0AC847E4804C0C811FE61639","019dac6a-82d8-7cd9-8de7-457f495d2012","019dac5b-243f-7307-af64-a10f53f1ef70","","993","
                <div class=""stimulus-container"">
                    <img src=""images/semantic_sequence/self_care_activities_semantic/self_care_activities_semantic_3.png"" class=""exp-image"">
                    <div class=""question-area"">
                        <p style=""font-size: 20px; font-weight: bold; margin: 0;"">Is there a person in this image?</p>
                    </div>
                </div>","0","main_experiment_trial","3","self_care_activities_semantic","semantic_sequence","chronological","","","","","","",""
"","","","","","html-keyboard-response","149","582674","0.0-149.0","00FDEE4F0AC847E4804C0C811FE61639","019dac6a-82d8-7cd9-8de7-457f495d2012","019dac5b-243f-7307-af64-a10f53f1ef70","","null","
                <div class=""stimulus-container"">
                    <img src=""images/semantic_sequence/self_care_activities_semantic/self_care_activities_semantic_4.png"" class=""exp-image"">
                    <div class=""question-area""></div> 
                </div>","null","","","","","","","","","","","",""
"","","","","","html-button-response","150","583824","0.0-150.0","00FDEE4F0AC847E4804C0C811FE61639","019dac6a-82d8-7cd9-8de7-457f495d2012","019dac5b-243f-7307-af64-a10f53f1ef70","","1130","
                <div class=""stimulus-container"">
                    <img src=""images/semantic_sequence/self_care_activities_semantic/self_care_activities_semantic_4.png"" class=""exp-image"">
                    <div class=""question-area"">
                        <p style=""font-size: 20px; font-weight: bold; margin: 0;"">Is there a person in this image?</p>
                    </div>
                </div>","0","main_experiment_trial","4","self_care_activities_semantic","semantic_sequence","chronological","","","","","","",""
"","","","","","html-keyboard-response","151","588841","0.0-151.0","00FDEE4F0AC847E4804C0C811FE61639","019dac6a-82d8-7cd9-8de7-457f495d2012","019dac5b-243f-7307-af64-a10f53f1ef70","","null","
                <div class=""stimulus-container"">
                    <img src=""images/semantic_sequence/self_care_activities_semantic/self_care_activities_semantic_5.png"" class=""exp-image"">
                    <div class=""question-area""></div> 
                </div>","null","","","","","","","","","","","",""
"","","","","","html-button-response","152","590090","0.0-152.0","00FDEE4F0AC847E4804C0C811FE61639","019dac6a-82d8-7cd9-8de7-457f495d2012","019dac5b-243f-7307-af64-a10f53f1ef70","","1229","
                <div class=""stimulus-container"">
                    <img src=""images/semantic_sequence/self_care_activities_semantic/self_care_activities_semantic_5.png"" class=""exp-image"">
                    <div class=""question-area"">
                        <p style=""font-size: 20px; font-weight: bold; margin: 0;"">Is there a person in this image?</p>
                    </div>
                </div>","0","main_experiment_trial","5","self_care_activities_semantic","semantic_sequence","chronological","","","","","","",""
"","","","","","html-keyboard-response","153","595108","0.0-153.0","00FDEE4F0AC847E4804C0C811FE61639","019dac6a-82d8-7cd9-8de7-457f495d2012","019dac5b-243f-7307-af64-a10f53f1ef70","","null","
                <div class=""stimulus-container"">
                    <img src=""images/semantic_sequence/self_care_activities_semantic/self_care_activities_semantic_6.png"" class=""exp-image"">
                    <div class=""question-area""></div> 
                </div>","null","","","","","","","","","","","",""
"","","","","","html-button-response","154","596139","0.0-154.0","00FDEE4F0AC847E4804C0C811FE61639","019dac6a-82d8-7cd9-8de7-457f495d2012","019dac5b-243f-7307-af64-a10f53f1ef70","","1010","
                <div class=""stimulus-container"">
                    <img src=""images/semantic_sequence/self_care_activities_semantic/self_care_activities_semantic_6.png"" class=""exp-image"">
                    <div class=""question-area"">
                        <p style=""font-size: 20px; font-weight: bold; margin: 0;"">Is there a person in this image?</p>
                    </div>
                </div>","1","main_experiment_trial","6","self_care_activities_semantic","semantic_sequence","chronological","","","","","","",""
"","","","","","html-keyboard-response","155","601159","0.0-155.0","00FDEE4F0AC847E4804C0C811FE61639","019dac6a-82d8-7cd9-8de7-457f495d2012","019dac5b-243f-7307-af64-a10f53f1ef70","","null","
                <div class=""stimulus-container"">
                    <img src=""images/semantic_sequence/self_care_activities_semantic/self_care_activities_semantic_7.png"" class=""exp-image"">
                    <div class=""question-area""></div> 
                </div>","null","","","","","","","","","","","",""
"","","","","","html-button-response","156","603008","0.0-156.0","00FDEE4F0AC847E4804C0C811FE61639","019dac6a-82d8-7cd9-8de7-457f495d2012","019dac5b-243f-7307-af64-a10f53f1ef70","","1828","
                <div class=""stimulus-container"">
                    <img src=""images/semantic_sequence/self_care_activities_semantic/self_care_activities_semantic_7.png"" class=""exp-image"">
                    <div class=""question-area"">
                        <p style=""font-size: 20px; font-weight: bold; margin: 0;"">Is there a person in this image?</p>
                    </div>
                </div>","0","main_experiment_trial","7","self_care_activities_semantic","semantic_sequence","chronological","","","","","","",""
"","","","","","html-keyboard-response","157","608027","0.0-157.0","00FDEE4F0AC847E4804C0C811FE61639","019dac6a-82d8-7cd9-8de7-457f495d2012","019dac5b-243f-7307-af64-a10f53f1ef70","","null","
                <div class=""stimulus-container"">
                    <img src=""images/semantic_sequence/self_care_activities_semantic/self_care_activities_semantic_8.png"" class=""exp-image"">
                    <div class=""question-area""></div> 
                </div>","null","","","","","","","","","","","",""
"","","","","","html-button-response","158","609224","0.0-158.0","00FDEE4F0AC847E4804C0C811FE61639","019dac6a-82d8-7cd9-8de7-457f495d2012","019dac5b-243f-7307-af64-a10f53f1ef70","","1176","
                <div class=""stimulus-container"">
                    <img src=""images/semantic_sequence/self_care_activities_semantic/self_care_activities_semantic_8.png"" class=""exp-image"">
                    <div class=""question-area"">
                        <p style=""font-size: 20px; font-weight: bold; margin: 0;"">Is there a person in this image?</p>
                    </div>
                </div>","0","main_experiment_trial","8","self_care_activities_semantic","semantic_sequence","chronological","","","","","","",""
"","","","","","html-keyboard-response","159","614242","0.0-159.0","00FDEE4F0AC847E4804C0C811FE61639","019dac6a-82d8-7cd9-8de7-457f495d2012","019dac5b-243f-7307-af64-a10f53f1ef70","","null","
                <div class=""stimulus-container"">
                    <img src=""images/semantic_sequence/self_care_activities_semantic/self_care_activities_semantic_9.png"" class=""exp-image"">
                    <div class=""question-area""></div> 
                </div>","null","","","","","","","","","","","",""
"","","","","","html-button-response","160","615657","0.0-160.0","00FDEE4F0AC847E4804C0C811FE61639","019dac6a-82d8-7cd9-8de7-457f495d2012","019dac5b-243f-7307-af64-a10f53f1ef70","","1395","
                <div class=""stimulus-container"">
                    <img src=""images/semantic_sequence/self_care_activities_semantic/self_care_activities_semantic_9.png"" class=""exp-image"">
                    <div class=""question-area"">
                        <p style=""font-size: 20px; font-weight: bold; margin: 0;"">Is there a person in this image?</p>
                    </div>
                </div>","0","main_experiment_trial","9","self_care_activities_semantic","semantic_sequence","chronological","","","","","","",""
"","","","","","html-keyboard-response","161","620676","0.0-161.0","00FDEE4F0AC847E4804C0C811FE61639","019dac6a-82d8-7cd9-8de7-457f495d2012","019dac5b-243f-7307-af64-a10f53f1ef70","","null","
                <div class=""stimulus-container"">
                    <img src=""images/semantic_sequence/self_care_activities_semantic/self_care_activities_semantic_ten.png"" class=""exp-image"">
                    <div class=""question-area""></div> 
                </div>","null","","","","","","","","","","","",""
"","","","","","html-button-response","162","621857","0.0-162.0","00FDEE4F0AC847E4804C0C811FE61639","019dac6a-82d8-7cd9-8de7-457f495d2012","019dac5b-243f-7307-af64-a10f53f1ef70","","1160","
                <div class=""stimulus-container"">
                    <img src=""images/semantic_sequence/self_care_activities_semantic/self_care_activities_semantic_ten.png"" class=""exp-image"">
                    <div class=""question-area"">
                        <p style=""font-size: 20px; font-weight: bold; margin: 0;"">Is there a person in this image?</p>
                    </div>
                </div>","0","main_experiment_trial","ten","self_care_activities_semantic","semantic_sequence","chronological","","","","","","",""
"","","","","","html-keyboard-response","163","626859","0.0-163.0","00FDEE4F0AC847E4804C0C811FE61639","019dac6a-82d8-7cd9-8de7-457f495d2012","019dac5b-243f-7307-af64-a10f53f1ef70","","null","<div style=""background-color: white; width: 100vw; height: 100vh;""></div>","null","","","","","","","","","","","",""
"","","","","","html-keyboard-response","164","631882","0.0-164.0","00FDEE4F0AC847E4804C0C811FE61639","019dac6a-82d8-7cd9-8de7-457f495d2012","019dac5b-243f-7307-af64-a10f53f1ef70","","null","
                <div class=""stimulus-container"">
                    <img src=""images/semantic_sequence/visiting_cities_semantic/visiting_cities_semantic_1.png"" class=""exp-image"">
                    <div class=""question-area""></div> 
                </div>","null","","","","","","","","","","","",""
"","","","","","html-button-response","165","633891","0.0-165.0","00FDEE4F0AC847E4804C0C811FE61639","019dac6a-82d8-7cd9-8de7-457f495d2012","019dac5b-243f-7307-af64-a10f53f1ef70","","1987","
                <div class=""stimulus-container"">
                    <img src=""images/semantic_sequence/visiting_cities_semantic/visiting_cities_semantic_1.png"" class=""exp-image"">
                    <div class=""question-area"">
                        <p style=""font-size: 20px; font-weight: bold; margin: 0;"">Is there a person in this image?</p>
                    </div>
                </div>","0","main_experiment_trial","1","visiting_cities_semantic","semantic_sequence","chronological","","","","","","",""
"","","","","","html-keyboard-response","166","638908","0.0-166.0","00FDEE4F0AC847E4804C0C811FE61639","019dac6a-82d8-7cd9-8de7-457f495d2012","019dac5b-243f-7307-af64-a10f53f1ef70","","null","
                <div class=""stimulus-container"">
                    <img src=""images/semantic_sequence/visiting_cities_semantic/visiting_cities_semantic_2.png"" class=""exp-image"">
                    <div class=""question-area""></div> 
                </div>","null","","","","","","","","","","","",""
"","","","","","html-button-response","167","640072","0.0-167.0","00FDEE4F0AC847E4804C0C811FE61639","019dac6a-82d8-7cd9-8de7-457f495d2012","019dac5b-243f-7307-af64-a10f53f1ef70","","1145","
                <div class=""stimulus-container"">
                    <img src=""images/semantic_sequence/visiting_cities_semantic/visiting_cities_semantic_2.png"" class=""exp-image"">
                    <div class=""question-area"">
                        <p style=""font-size: 20px; font-weight: bold; margin: 0;"">Is there a person in this image?</p>
                    </div>
                </div>","1","main_experiment_trial","2","visiting_cities_semantic","semantic_sequence","chronological","","","","","","",""
"","","","","","html-keyboard-response","168","645090","0.0-168.0","00FDEE4F0AC847E4804C0C811FE61639","019dac6a-82d8-7cd9-8de7-457f495d2012","019dac5b-243f-7307-af64-a10f53f1ef70","","null","
                <div class=""stimulus-container"">
                    <img src=""images/semantic_sequence/visiting_cities_semantic/visiting_cities_semantic_3.png"" class=""exp-image"">
                    <div class=""question-area""></div> 
                </div>","null","","","","","","","","","","","",""
"","","","","","html-button-response","169","646573","0.0-169.0","00FDEE4F0AC847E4804C0C811FE61639","019dac6a-82d8-7cd9-8de7-457f495d2012","019dac5b-243f-7307-af64-a10f53f1ef70","","1462","
                <div class=""stimulus-container"">
                    <img src=""images/semantic_sequence/visiting_cities_semantic/visiting_cities_semantic_3.png"" class=""exp-image"">
                    <div class=""question-area"">
                        <p style=""font-size: 20px; font-weight: bold; margin: 0;"">Is there a person in this image?</p>
                    </div>
                </div>","1","main_experiment_trial","3","visiting_cities_semantic","semantic_sequence","chronological","","","","","","",""
"","","","","","html-keyboard-response","170","651591","0.0-170.0","00FDEE4F0AC847E4804C0C811FE61639","019dac6a-82d8-7cd9-8de7-457f495d2012","019dac5b-243f-7307-af64-a10f53f1ef70","","null","
                <div class=""stimulus-container"">
                    <img src=""images/semantic_sequence/visiting_cities_semantic/visiting_cities_semantic_4.png"" class=""exp-image"">
                    <div class=""question-area""></div> 
                </div>","null","","","","","","","","","","","",""
"","","","","","html-button-response","171","653090","0.0-171.0","00FDEE4F0AC847E4804C0C811FE61639","019dac6a-82d8-7cd9-8de7-457f495d2012","019dac5b-243f-7307-af64-a10f53f1ef70","","1479","
                <div class=""stimulus-container"">
                    <img src=""images/semantic_sequence/visiting_cities_semantic/visiting_cities_semantic_4.png"" class=""exp-image"">
                    <div class=""question-area"">
                        <p style=""font-size: 20px; font-weight: bold; margin: 0;"">Is there a person in this image?</p>
                    </div>
                </div>","1","main_experiment_trial","4","visiting_cities_semantic","semantic_sequence","chronological","","","","","","",""
"","","","","","html-keyboard-response","172","658107","0.0-172.0","00FDEE4F0AC847E4804C0C811FE61639","019dac6a-82d8-7cd9-8de7-457f495d2012","019dac5b-243f-7307-af64-a10f53f1ef70","","null","
                <div class=""stimulus-container"">
                    <img src=""images/semantic_sequence/visiting_cities_semantic/visiting_cities_semantic_5.png"" class=""exp-image"">
                    <div class=""question-area""></div> 
                </div>","null","","","","","","","","","","","",""
"","","","","","html-button-response","173","660473","0.0-173.0","00FDEE4F0AC847E4804C0C811FE61639","019dac6a-82d8-7cd9-8de7-457f495d2012","019dac5b-243f-7307-af64-a10f53f1ef70","","2347","
                <div class=""stimulus-container"">
                    <img src=""images/semantic_sequence/visiting_cities_semantic/visiting_cities_semantic_5.png"" class=""exp-image"">
                    <div class=""question-area"">
                        <p style=""font-size: 20px; font-weight: bold; margin: 0;"">Is there a person in this image?</p>
                    </div>
                </div>","0","main_experiment_trial","5","visiting_cities_semantic","semantic_sequence","chronological","","","","","","",""
"","","","","","html-keyboard-response","174","665492","0.0-174.0","00FDEE4F0AC847E4804C0C811FE61639","019dac6a-82d8-7cd9-8de7-457f495d2012","019dac5b-243f-7307-af64-a10f53f1ef70","","null","
                <div class=""stimulus-container"">
                    <img src=""images/semantic_sequence/visiting_cities_semantic/visiting_cities_semantic_6.png"" class=""exp-image"">
                    <div class=""question-area""></div> 
                </div>","null","","","","","","","","","","","",""
"","","","","","html-button-response","175","667172","0.0-175.0","00FDEE4F0AC847E4804C0C811FE61639","019dac6a-82d8-7cd9-8de7-457f495d2012","019dac5b-243f-7307-af64-a10f53f1ef70","","1661","
                <div class=""stimulus-container"">
                    <img src=""images/semantic_sequence/visiting_cities_semantic/visiting_cities_semantic_6.png"" class=""exp-image"">
                    <div class=""question-area"">
                        <p style=""font-size: 20px; font-weight: bold; margin: 0;"">Is there a person in this image?</p>
                    </div>
                </div>","1","main_experiment_trial","6","visiting_cities_semantic","semantic_sequence","chronological","","","","","","",""
"","","","","","html-keyboard-response","176","672190","0.0-176.0","00FDEE4F0AC847E4804C0C811FE61639","019dac6a-82d8-7cd9-8de7-457f495d2012","019dac5b-243f-7307-af64-a10f53f1ef70","","null","
                <div class=""stimulus-container"">
