"success","timeout","failed_images","failed_audio","failed_video","trial_type","trial_index","time_elapsed","internal_node_id","subject_id","study_id","session_id","view_history","rt","stimulus","response","task","image_index","folder","valuable_image_index","valuable_X","chosen_image_index","distance_from_X"
"false","false","[]","[]","[]","preload","0","1207","0.0-0.0","0AB21AEFF33F4BF3BB25E684E467A78A","019ce7a6-d98d-7e42-be4f-dc7f58e24dcc","019ce7a0-0965-7aa7-a556-174d32a8e773","","","","","","","","","","",""
"","","","","","instructions","1","3024","0.0-1.0","0AB21AEFF33F4BF3BB25E684E467A78A","019ce7a6-d98d-7e42-be4f-dc7f58e24dcc","019ce7a0-0965-7aa7-a556-174d32a8e773","[{""page_index"":0,""viewing_time"":1816}]","1816","","","","","","","","",""
"","","","","","instructions","2","6236","0.0-2.0","0AB21AEFF33F4BF3BB25E684E467A78A","019ce7a6-d98d-7e42-be4f-dc7f58e24dcc","019ce7a0-0965-7aa7-a556-174d32a8e773","[{""page_index"":0,""viewing_time"":3211}]","3212","","","","","","","","",""
"true","","","","","fullscreen","3","11755","0.0-3.0","0AB21AEFF33F4BF3BB25E684E467A78A","019ce7a6-d98d-7e42-be4f-dc7f58e24dcc","019ce7a0-0965-7aa7-a556-174d32a8e773","","4512","","","","","","","","",""
"","","","","","instructions","4","28022","0.0-4.0","0AB21AEFF33F4BF3BB25E684E467A78A","019ce7a6-d98d-7e42-be4f-dc7f58e24dcc","019ce7a0-0965-7aa7-a556-174d32a8e773","[{""page_index"":0,""viewing_time"":16265}]","16265","","","","","","","","",""
"","","","","","instructions","5","31987","0.0-5.0","0AB21AEFF33F4BF3BB25E684E467A78A","019ce7a6-d98d-7e42-be4f-dc7f58e24dcc","019ce7a0-0965-7aa7-a556-174d32a8e773","[{""page_index"":0,""viewing_time"":3964}]","3964","","","","","","","","",""
"","","","","","html-keyboard-response","6","35990","0.0-6.0","0AB21AEFF33F4BF3BB25E684E467A78A","019ce7a6-d98d-7e42-be4f-dc7f58e24dcc","019ce7a0-0965-7aa7-a556-174d32a8e773","","null","
                <div class=""stimulus-container"">
                    <img src=""images/instructions/movie_1.png"" class=""exp-image"">
                    <div class=""question-area""></div> 
                </div>","null","","","","","","",""
"","","","","","html-button-response","7","38995","0.0-7.0","0AB21AEFF33F4BF3BB25E684E467A78A","019ce7a6-d98d-7e42-be4f-dc7f58e24dcc","019ce7a0-0965-7aa7-a556-174d32a8e773","","null","
                <div class=""stimulus-container"">
                    <img src=""images/instructions/movie_1.png"" class=""exp-image"">
                    <div class=""question-area"">
                        <p style=""font-size: 20px; font-weight: bold; margin: 0;"">Was there a person in this image?</p>
                    </div>
                </div>","null","example_question","1","","","","",""
"","","","","","html-keyboard-response","8","42998","0.0-8.0","0AB21AEFF33F4BF3BB25E684E467A78A","019ce7a6-d98d-7e42-be4f-dc7f58e24dcc","019ce7a0-0965-7aa7-a556-174d32a8e773","","null","
                <div class=""stimulus-container"">
                    <img src=""images/instructions/movie_2.png"" class=""exp-image"">
                    <div class=""question-area""></div> 
                </div>","null","","","","","","",""
"","","","","","html-button-response","9","44310","0.0-9.0","0AB21AEFF33F4BF3BB25E684E467A78A","019ce7a6-d98d-7e42-be4f-dc7f58e24dcc","019ce7a0-0965-7aa7-a556-174d32a8e773","","1311","
                <div class=""stimulus-container"">
                    <img src=""images/instructions/movie_2.png"" class=""exp-image"">
                    <div class=""question-area"">
                        <p style=""font-size: 20px; font-weight: bold; margin: 0;"">Was there a person in this image?</p>
                    </div>
                </div>","1","example_question","2","","","","",""
"","","","","","html-keyboard-response","10","48313","0.0-10.0","0AB21AEFF33F4BF3BB25E684E467A78A","019ce7a6-d98d-7e42-be4f-dc7f58e24dcc","019ce7a0-0965-7aa7-a556-174d32a8e773","","null","
                <div class=""stimulus-container"">
                    <img src=""images/instructions/movie_3.png"" class=""exp-image"">
                    <div class=""question-area""></div> 
                </div>","null","","","","","","",""
"","","","","","html-button-response","11","49160","0.0-11.0","0AB21AEFF33F4BF3BB25E684E467A78A","019ce7a6-d98d-7e42-be4f-dc7f58e24dcc","019ce7a0-0965-7aa7-a556-174d32a8e773","","845","
                <div class=""stimulus-container"">
                    <img src=""images/instructions/movie_3.png"" class=""exp-image"">
                    <div class=""question-area"">
                        <p style=""font-size: 20px; font-weight: bold; margin: 0;"">Was there a person in this image?</p>
                    </div>
                </div>","0","example_question","3","","","","",""
"","","","","","html-keyboard-response","12","53163","0.0-12.0","0AB21AEFF33F4BF3BB25E684E467A78A","019ce7a6-d98d-7e42-be4f-dc7f58e24dcc","019ce7a0-0965-7aa7-a556-174d32a8e773","","null","
                <div class=""stimulus-container"">
                    <img src=""images/instructions/movie_4.png"" class=""exp-image"">
                    <div class=""question-area""></div> 
                </div>","null","","","","","","",""
"","","","","","html-button-response","13","53788","0.0-13.0","0AB21AEFF33F4BF3BB25E684E467A78A","019ce7a6-d98d-7e42-be4f-dc7f58e24dcc","019ce7a0-0965-7aa7-a556-174d32a8e773","","624","
                <div class=""stimulus-container"">
                    <img src=""images/instructions/movie_4.png"" class=""exp-image"">
                    <div class=""question-area"">
                        <p style=""font-size: 20px; font-weight: bold; margin: 0;"">Was there a person in this image?</p>
                    </div>
                </div>","0","example_question","4","","","","",""
"","","","","","instructions","14","56968","0.0-14.0","0AB21AEFF33F4BF3BB25E684E467A78A","019ce7a6-d98d-7e42-be4f-dc7f58e24dcc","019ce7a0-0965-7aa7-a556-174d32a8e773","[{""page_index"":0,""viewing_time"":3180}]","3180","","","","","","","","",""
"","","","","","html-keyboard-response","15","57971","0.0-15.0","0AB21AEFF33F4BF3BB25E684E467A78A","019ce7a6-d98d-7e42-be4f-dc7f58e24dcc","019ce7a0-0965-7aa7-a556-174d32a8e773","","null","<div style=""background-color: gray; width: 100vw; height: 100vh;""></div>","null","","","","","","",""
"","","","","","html-keyboard-response","16","62974","0.0-16.0","0AB21AEFF33F4BF3BB25E684E467A78A","019ce7a6-d98d-7e42-be4f-dc7f58e24dcc","019ce7a0-0965-7aa7-a556-174d32a8e773","","null","
                    <div class=""stimulus-container"">
                        <img src=""images/causal_sequence/the_performance_causal/the_performance_causal_1.png"" class=""exp-image"">
                        <div class=""question-area""></div> 
                    </div>","null","","","","","","",""
"","","","","","html-button-response","17","64193","0.0-17.0","0AB21AEFF33F4BF3BB25E684E467A78A","019ce7a6-d98d-7e42-be4f-dc7f58e24dcc","019ce7a0-0965-7aa7-a556-174d32a8e773","","1217","
                    <div class=""stimulus-container"">
                        <img src=""images/causal_sequence/the_performance_causal/the_performance_causal_1.png"" class=""exp-image"">
                        <div class=""question-area"">
                            <p style=""font-size: 20px; font-weight: bold; margin: 0;"">Is there a person in this image?</p>
                        </div>
                    </div>","0","main_causal_task","1","the_performance_causal","","","",""
"","","","","","html-keyboard-response","18","69195","0.0-18.0","0AB21AEFF33F4BF3BB25E684E467A78A","019ce7a6-d98d-7e42-be4f-dc7f58e24dcc","019ce7a0-0965-7aa7-a556-174d32a8e773","","null","
                    <div class=""stimulus-container"">
                        <img src=""images/causal_sequence/the_performance_causal/the_performance_causal_2.png"" class=""exp-image"">
                        <div class=""question-area""></div> 
                    </div>","null","","","","","","",""
"","","","","","html-button-response","19","69906","0.0-19.0","0AB21AEFF33F4BF3BB25E684E467A78A","019ce7a6-d98d-7e42-be4f-dc7f58e24dcc","019ce7a0-0965-7aa7-a556-174d32a8e773","","710","
                    <div class=""stimulus-container"">
                        <img src=""images/causal_sequence/the_performance_causal/the_performance_causal_2.png"" class=""exp-image"">
                        <div class=""question-area"">
                            <p style=""font-size: 20px; font-weight: bold; margin: 0;"">Is there a person in this image?</p>
                        </div>
                    </div>","0","main_causal_task","2","the_performance_causal","","","",""
"","","","","","html-keyboard-response","20","74913","0.0-20.0","0AB21AEFF33F4BF3BB25E684E467A78A","019ce7a6-d98d-7e42-be4f-dc7f58e24dcc","019ce7a0-0965-7aa7-a556-174d32a8e773","","null","
                    <div class=""stimulus-container"">
                        <img src=""images/causal_sequence/the_performance_causal/the_performance_causal_3.png"" class=""exp-image"">
                        <div class=""question-area""></div> 
                    </div>","null","","","","","","",""
"","","","","","html-button-response","21","75715","0.0-21.0","0AB21AEFF33F4BF3BB25E684E467A78A","019ce7a6-d98d-7e42-be4f-dc7f58e24dcc","019ce7a0-0965-7aa7-a556-174d32a8e773","","801","
                    <div class=""stimulus-container"">
                        <img src=""images/causal_sequence/the_performance_causal/the_performance_causal_3.png"" class=""exp-image"">
                        <div class=""question-area"">
                            <p style=""font-size: 20px; font-weight: bold; margin: 0;"">Is there a person in this image?</p>
                        </div>
                    </div>","0","main_causal_task","3","the_performance_causal","","","",""
"","","","","","html-keyboard-response","22","80718","0.0-22.0","0AB21AEFF33F4BF3BB25E684E467A78A","019ce7a6-d98d-7e42-be4f-dc7f58e24dcc","019ce7a0-0965-7aa7-a556-174d32a8e773","","null","
                    <div class=""stimulus-container"">
                        <img src=""images/causal_sequence/the_performance_causal/the_performance_causal_4.png"" class=""exp-image"">
                        <div class=""question-area""></div> 
                    </div>","null","","","","","","",""
"","","","","","html-button-response","23","82339","0.0-23.0","0AB21AEFF33F4BF3BB25E684E467A78A","019ce7a6-d98d-7e42-be4f-dc7f58e24dcc","019ce7a0-0965-7aa7-a556-174d32a8e773","","1620","
                    <div class=""stimulus-container"">
                        <img src=""images/causal_sequence/the_performance_causal/the_performance_causal_4.png"" class=""exp-image"">
                        <div class=""question-area"">
                            <p style=""font-size: 20px; font-weight: bold; margin: 0;"">Is there a person in this image?</p>
                        </div>
                    </div>","0","main_causal_task","4","the_performance_causal","","","",""
"","","","","","html-keyboard-response","24","87340","0.0-24.0","0AB21AEFF33F4BF3BB25E684E467A78A","019ce7a6-d98d-7e42-be4f-dc7f58e24dcc","019ce7a0-0965-7aa7-a556-174d32a8e773","","null","
                    <div class=""stimulus-container"">
                        <img src=""images/causal_sequence/the_performance_causal/the_performance_causal_5.png"" class=""exp-image"">
                        <div class=""question-area""></div> 
                    </div>","null","","","","","","",""
"","","","","","html-button-response","25","87818","0.0-25.0","0AB21AEFF33F4BF3BB25E684E467A78A","019ce7a6-d98d-7e42-be4f-dc7f58e24dcc","019ce7a0-0965-7aa7-a556-174d32a8e773","","477","
                    <div class=""stimulus-container"">
                        <img src=""images/causal_sequence/the_performance_causal/the_performance_causal_5.png"" class=""exp-image"">
                        <div class=""question-area"">
                            <p style=""font-size: 20px; font-weight: bold; margin: 0;"">Is there a person in this image?</p>
                        </div>
                    </div>","0","main_causal_task","5","the_performance_causal","","","",""
"","","","","","html-keyboard-response","26","92821","0.0-26.0","0AB21AEFF33F4BF3BB25E684E467A78A","019ce7a6-d98d-7e42-be4f-dc7f58e24dcc","019ce7a0-0965-7aa7-a556-174d32a8e773","","null","
                    <div class=""stimulus-container"">
                        <img src=""images/causal_sequence/the_performance_causal/the_performance_causal_6.png"" class=""exp-image"">
                        <div class=""question-area""></div> 
                    </div>","null","","","","","","",""
"","","","","","html-button-response","27","93242","0.0-27.0","0AB21AEFF33F4BF3BB25E684E467A78A","019ce7a6-d98d-7e42-be4f-dc7f58e24dcc","019ce7a0-0965-7aa7-a556-174d32a8e773","","420","
                    <div class=""stimulus-container"">
                        <img src=""images/causal_sequence/the_performance_causal/the_performance_causal_6.png"" class=""exp-image"">
                        <div class=""question-area"">
                            <p style=""font-size: 20px; font-weight: bold; margin: 0;"">Is there a person in this image?</p>
                        </div>
                    </div>","0","main_causal_task","6","the_performance_causal","","","",""
"","","","","","html-keyboard-response","28","98245","0.0-28.0","0AB21AEFF33F4BF3BB25E684E467A78A","019ce7a6-d98d-7e42-be4f-dc7f58e24dcc","019ce7a0-0965-7aa7-a556-174d32a8e773","","null","
                    <div class=""stimulus-container"">
                        <img src=""images/causal_sequence/the_performance_causal/the_performance_causal_7.png"" class=""exp-image"">
                        <div class=""question-area""></div> 
                    </div>","null","","","","","","",""
"","","","","","html-button-response","29","98640","0.0-29.0","0AB21AEFF33F4BF3BB25E684E467A78A","019ce7a6-d98d-7e42-be4f-dc7f58e24dcc","019ce7a0-0965-7aa7-a556-174d32a8e773","","394","
                    <div class=""stimulus-container"">
                        <img src=""images/causal_sequence/the_performance_causal/the_performance_causal_7.png"" class=""exp-image"">
                        <div class=""question-area"">
                            <p style=""font-size: 20px; font-weight: bold; margin: 0;"">Is there a person in this image?</p>
                        </div>
                    </div>","0","main_causal_task","7","the_performance_causal","","","",""
"","","","","","html-keyboard-response","30","103642","0.0-30.0","0AB21AEFF33F4BF3BB25E684E467A78A","019ce7a6-d98d-7e42-be4f-dc7f58e24dcc","019ce7a0-0965-7aa7-a556-174d32a8e773","","null","
                    <div class=""stimulus-container"">
                        <img src=""images/causal_sequence/the_performance_causal/the_performance_causal_8.png"" class=""exp-image"">
                        <div class=""question-area""></div> 
                    </div>","null","","","","","","",""
"","","","","","html-button-response","31","104030","0.0-31.0","0AB21AEFF33F4BF3BB25E684E467A78A","019ce7a6-d98d-7e42-be4f-dc7f58e24dcc","019ce7a0-0965-7aa7-a556-174d32a8e773","","386","
                    <div class=""stimulus-container"">
                        <img src=""images/causal_sequence/the_performance_causal/the_performance_causal_8.png"" class=""exp-image"">
                        <div class=""question-area"">
                            <p style=""font-size: 20px; font-weight: bold; margin: 0;"">Is there a person in this image?</p>
                        </div>
                    </div>","0","main_causal_task","8","the_performance_causal","","","",""
"","","","","","html-keyboard-response","32","109033","0.0-32.0","0AB21AEFF33F4BF3BB25E684E467A78A","019ce7a6-d98d-7e42-be4f-dc7f58e24dcc","019ce7a0-0965-7aa7-a556-174d32a8e773","","null","
                    <div class=""stimulus-container"">
                        <img src=""images/causal_sequence/the_performance_causal/the_performance_causal_9.png"" class=""exp-image"">
                        <div class=""question-area""></div> 
                    </div>","null","","","","","","",""
"","","","","","html-button-response","33","109643","0.0-33.0","0AB21AEFF33F4BF3BB25E684E467A78A","019ce7a6-d98d-7e42-be4f-dc7f58e24dcc","019ce7a0-0965-7aa7-a556-174d32a8e773","","608","
                    <div class=""stimulus-container"">
                        <img src=""images/causal_sequence/the_performance_causal/the_performance_causal_9.png"" class=""exp-image"">
                        <div class=""question-area"">
                            <p style=""font-size: 20px; font-weight: bold; margin: 0;"">Is there a person in this image?</p>
                        </div>
                    </div>","1","main_causal_task","9","the_performance_causal","","","",""
"","","","","","html-keyboard-response","34","110645","0.0-34.0","0AB21AEFF33F4BF3BB25E684E467A78A","019ce7a6-d98d-7e42-be4f-dc7f58e24dcc","019ce7a0-0965-7aa7-a556-174d32a8e773","","null","<div style=""background-color: gray; width: 100vw; height: 100vh;""></div>","null","","","","","","",""
"","","","","","html-keyboard-response","35","115648","0.0-35.0","0AB21AEFF33F4BF3BB25E684E467A78A","019ce7a6-d98d-7e42-be4f-dc7f58e24dcc","019ce7a0-0965-7aa7-a556-174d32a8e773","","null","
                    <div class=""stimulus-container"">
                        <img src=""images/causal_sequence/coin_causal/coin_causal_1.png"" class=""exp-image"">
                        <div class=""question-area""></div> 
                    </div>","null","","","","","","",""
"","","","","","html-button-response","36","116487","0.0-36.0","0AB21AEFF33F4BF3BB25E684E467A78A","019ce7a6-d98d-7e42-be4f-dc7f58e24dcc","019ce7a0-0965-7aa7-a556-174d32a8e773","","837","
                    <div class=""stimulus-container"">
                        <img src=""images/causal_sequence/coin_causal/coin_causal_1.png"" class=""exp-image"">
                        <div class=""question-area"">
                            <p style=""font-size: 20px; font-weight: bold; margin: 0;"">Is there a person in this image?</p>
                        </div>
                    </div>","1","main_causal_task","1","coin_causal","","","",""
"","","","","","html-keyboard-response","37","121488","0.0-37.0","0AB21AEFF33F4BF3BB25E684E467A78A","019ce7a6-d98d-7e42-be4f-dc7f58e24dcc","019ce7a0-0965-7aa7-a556-174d32a8e773","","null","
                    <div class=""stimulus-container"">
                        <img src=""images/causal_sequence/coin_causal/coin_causal_2.png"" class=""exp-image"">
                        <div class=""question-area""></div> 
                    </div>","null","","","","","","",""
"","","","","","html-button-response","38","121912","0.0-38.0","0AB21AEFF33F4BF3BB25E684E467A78A","019ce7a6-d98d-7e42-be4f-dc7f58e24dcc","019ce7a0-0965-7aa7-a556-174d32a8e773","","423","
                    <div class=""stimulus-container"">
                        <img src=""images/causal_sequence/coin_causal/coin_causal_2.png"" class=""exp-image"">
                        <div class=""question-area"">
                            <p style=""font-size: 20px; font-weight: bold; margin: 0;"">Is there a person in this image?</p>
                        </div>
                    </div>","0","main_causal_task","2","coin_causal","","","",""
"","","","","","html-keyboard-response","39","126914","0.0-39.0","0AB21AEFF33F4BF3BB25E684E467A78A","019ce7a6-d98d-7e42-be4f-dc7f58e24dcc","019ce7a0-0965-7aa7-a556-174d32a8e773","","null","
                    <div class=""stimulus-container"">
                        <img src=""images/causal_sequence/coin_causal/coin_causal_3.png"" class=""exp-image"">
                        <div class=""question-area""></div> 
                    </div>","null","","","","","","",""
"","","","","","html-button-response","40","127574","0.0-40.0","0AB21AEFF33F4BF3BB25E684E467A78A","019ce7a6-d98d-7e42-be4f-dc7f58e24dcc","019ce7a0-0965-7aa7-a556-174d32a8e773","","659","
                    <div class=""stimulus-container"">
                        <img src=""images/causal_sequence/coin_causal/coin_causal_3.png"" class=""exp-image"">
                        <div class=""question-area"">
                            <p style=""font-size: 20px; font-weight: bold; margin: 0;"">Is there a person in this image?</p>
                        </div>
                    </div>","1","main_causal_task","3","coin_causal","","","",""
"","","","","","html-keyboard-response","41","132576","0.0-41.0","0AB21AEFF33F4BF3BB25E684E467A78A","019ce7a6-d98d-7e42-be4f-dc7f58e24dcc","019ce7a0-0965-7aa7-a556-174d32a8e773","","null","
                    <div class=""stimulus-container"">
                        <img src=""images/causal_sequence/coin_causal/coin_causal_4.png"" class=""exp-image"">
                        <div class=""question-area""></div> 
                    </div>","null","","","","","","",""
"","","","","","html-button-response","42","132964","0.0-42.0","0AB21AEFF33F4BF3BB25E684E467A78A","019ce7a6-d98d-7e42-be4f-dc7f58e24dcc","019ce7a0-0965-7aa7-a556-174d32a8e773","","386","
                    <div class=""stimulus-container"">
                        <img src=""images/causal_sequence/coin_causal/coin_causal_4.png"" class=""exp-image"">
                        <div class=""question-area"">
                            <p style=""font-size: 20px; font-weight: bold; margin: 0;"">Is there a person in this image?</p>
                        </div>
                    </div>","1","main_causal_task","4","coin_causal","","","",""
"","","","","","html-keyboard-response","43","137965","0.0-43.0","0AB21AEFF33F4BF3BB25E684E467A78A","019ce7a6-d98d-7e42-be4f-dc7f58e24dcc","019ce7a0-0965-7aa7-a556-174d32a8e773","","null","
                    <div class=""stimulus-container"">
                        <img src=""images/causal_sequence/coin_causal/coin_causal_5.png"" class=""exp-image"">
                        <div class=""question-area""></div> 
                    </div>","null","","","","","","",""
"","","","","","html-button-response","44","138592","0.0-44.0","0AB21AEFF33F4BF3BB25E684E467A78A","019ce7a6-d98d-7e42-be4f-dc7f58e24dcc","019ce7a0-0965-7aa7-a556-174d32a8e773","","626","
                    <div class=""stimulus-container"">
                        <img src=""images/causal_sequence/coin_causal/coin_causal_5.png"" class=""exp-image"">
                        <div class=""question-area"">
                            <p style=""font-size: 20px; font-weight: bold; margin: 0;"">Is there a person in this image?</p>
                        </div>
                    </div>","0","main_causal_task","5","coin_causal","","","",""
"","","","","","html-keyboard-response","45","143594","0.0-45.0","0AB21AEFF33F4BF3BB25E684E467A78A","019ce7a6-d98d-7e42-be4f-dc7f58e24dcc","019ce7a0-0965-7aa7-a556-174d32a8e773","","null","
                    <div class=""stimulus-container"">
                        <img src=""images/causal_sequence/coin_causal/coin_causal_6.png"" class=""exp-image"">
                        <div class=""question-area""></div> 
                    </div>","null","","","","","","",""
"","","","","","html-button-response","46","144771","0.0-46.0","0AB21AEFF33F4BF3BB25E684E467A78A","019ce7a6-d98d-7e42-be4f-dc7f58e24dcc","019ce7a0-0965-7aa7-a556-174d32a8e773","","1176","
                    <div class=""stimulus-container"">
                        <img src=""images/causal_sequence/coin_causal/coin_causal_6.png"" class=""exp-image"">
                        <div class=""question-area"">
                            <p style=""font-size: 20px; font-weight: bold; margin: 0;"">Is there a person in this image?</p>
                        </div>
                    </div>","0","main_causal_task","6","coin_causal","","","",""
"","","","","","html-keyboard-response","47","149773","0.0-47.0","0AB21AEFF33F4BF3BB25E684E467A78A","019ce7a6-d98d-7e42-be4f-dc7f58e24dcc","019ce7a0-0965-7aa7-a556-174d32a8e773","","null","
                    <div class=""stimulus-container"">
                        <img src=""images/causal_sequence/coin_causal/coin_causal_7.png"" class=""exp-image"">
                        <div class=""question-area""></div> 
                    </div>","null","","","","","","",""
"","","","","","html-button-response","48","150531","0.0-48.0","0AB21AEFF33F4BF3BB25E684E467A78A","019ce7a6-d98d-7e42-be4f-dc7f58e24dcc","019ce7a0-0965-7aa7-a556-174d32a8e773","","756","
                    <div class=""stimulus-container"">
                        <img src=""images/causal_sequence/coin_causal/coin_causal_7.png"" class=""exp-image"">
                        <div class=""question-area"">
                            <p style=""font-size: 20px; font-weight: bold; margin: 0;"">Is there a person in this image?</p>
                        </div>
                    </div>","1","main_causal_task","7","coin_causal","","","",""
"","","","","","html-keyboard-response","49","155533","0.0-49.0","0AB21AEFF33F4BF3BB25E684E467A78A","019ce7a6-d98d-7e42-be4f-dc7f58e24dcc","019ce7a0-0965-7aa7-a556-174d32a8e773","","null","
                    <div class=""stimulus-container"">
                        <img src=""images/causal_sequence/coin_causal/coin_causal_8.png"" class=""exp-image"">
                        <div class=""question-area""></div> 
                    </div>","null","","","","","","",""
"","","","","","html-button-response","50","155983","0.0-50.0","0AB21AEFF33F4BF3BB25E684E467A78A","019ce7a6-d98d-7e42-be4f-dc7f58e24dcc","019ce7a0-0965-7aa7-a556-174d32a8e773","","449","
                    <div class=""stimulus-container"">
                        <img src=""images/causal_sequence/coin_causal/coin_causal_8.png"" class=""exp-image"">
                        <div class=""question-area"">
                            <p style=""font-size: 20px; font-weight: bold; margin: 0;"">Is there a person in this image?</p>
                        </div>
                    </div>","0","main_causal_task","8","coin_causal","","","",""
"","","","","","html-keyboard-response","51","160984","0.0-51.0","0AB21AEFF33F4BF3BB25E684E467A78A","019ce7a6-d98d-7e42-be4f-dc7f58e24dcc","019ce7a0-0965-7aa7-a556-174d32a8e773","","null","
                    <div class=""stimulus-container"">
                        <img src=""images/causal_sequence/coin_causal/coin_causal_9.png"" class=""exp-image"">
                        <div class=""question-area""></div> 
                    </div>","null","","","","","","",""
"","","","","","html-button-response","52","161484","0.0-52.0","0AB21AEFF33F4BF3BB25E684E467A78A","019ce7a6-d98d-7e42-be4f-dc7f58e24dcc","019ce7a0-0965-7aa7-a556-174d32a8e773","","499","
                    <div class=""stimulus-container"">
                        <img src=""images/causal_sequence/coin_causal/coin_causal_9.png"" class=""exp-image"">
                        <div class=""question-area"">
                            <p style=""font-size: 20px; font-weight: bold; margin: 0;"">Is there a person in this image?</p>
                        </div>
                    </div>","0","main_causal_task","9","coin_causal","","","",""
"","","","","","html-keyboard-response","53","162486","0.0-53.0","0AB21AEFF33F4BF3BB25E684E467A78A","019ce7a6-d98d-7e42-be4f-dc7f58e24dcc","019ce7a0-0965-7aa7-a556-174d32a8e773","","null","<div style=""background-color: gray; width: 100vw; height: 100vh;""></div>","null","","","","","","",""
"","","","","","html-keyboard-response","54","167488","0.0-54.0","0AB21AEFF33F4BF3BB25E684E467A78A","019ce7a6-d98d-7e42-be4f-dc7f58e24dcc","019ce7a0-0965-7aa7-a556-174d32a8e773","","null","
                    <div class=""stimulus-container"">
                        <img src=""images/causal_sequence/dog_causal/dog_causal_1.png"" class=""exp-image"">
                        <div class=""question-area""></div> 
                    </div>","null","","","","","","",""
"","","","","","html-button-response","55","168042","0.0-55.0","0AB21AEFF33F4BF3BB25E684E467A78A","019ce7a6-d98d-7e42-be4f-dc7f58e24dcc","019ce7a0-0965-7aa7-a556-174d32a8e773","","552","
                    <div class=""stimulus-container"">
                        <img src=""images/causal_sequence/dog_causal/dog_causal_1.png"" class=""exp-image"">
                        <div class=""question-area"">
                            <p style=""font-size: 20px; font-weight: bold; margin: 0;"">Is there a person in this image?</p>
                        </div>
                    </div>","0","main_causal_task","1","dog_causal","","","",""
"","","","","","html-keyboard-response","56","173044","0.0-56.0","0AB21AEFF33F4BF3BB25E684E467A78A","019ce7a6-d98d-7e42-be4f-dc7f58e24dcc","019ce7a0-0965-7aa7-a556-174d32a8e773","","null","
                    <div class=""stimulus-container"">
                        <img src=""images/causal_sequence/dog_causal/dog_causal_2.png"" class=""exp-image"">
                        <div class=""question-area""></div> 
                    </div>","null","","","","","","",""
"","","","","","html-button-response","57","173489","0.0-57.0","0AB21AEFF33F4BF3BB25E684E467A78A","019ce7a6-d98d-7e42-be4f-dc7f58e24dcc","019ce7a0-0965-7aa7-a556-174d32a8e773","","443","
                    <div class=""stimulus-container"">
                        <img src=""images/causal_sequence/dog_causal/dog_causal_2.png"" class=""exp-image"">
                        <div class=""question-area"">
                            <p style=""font-size: 20px; font-weight: bold; margin: 0;"">Is there a person in this image?</p>
                        </div>
                    </div>","0","main_causal_task","2","dog_causal","","","",""
"","","","","","html-keyboard-response","58","178490","0.0-58.0","0AB21AEFF33F4BF3BB25E684E467A78A","019ce7a6-d98d-7e42-be4f-dc7f58e24dcc","019ce7a0-0965-7aa7-a556-174d32a8e773","","null","
                    <div class=""stimulus-container"">
                        <img src=""images/causal_sequence/dog_causal/dog_causal_3.png"" class=""exp-image"">
                        <div class=""question-area""></div> 
                    </div>","null","","","","","","",""
"","","","","","html-button-response","59","178923","0.0-59.0","0AB21AEFF33F4BF3BB25E684E467A78A","019ce7a6-d98d-7e42-be4f-dc7f58e24dcc","019ce7a0-0965-7aa7-a556-174d32a8e773","","432","
                    <div class=""stimulus-container"">
                        <img src=""images/causal_sequence/dog_causal/dog_causal_3.png"" class=""exp-image"">
                        <div class=""question-area"">
                            <p style=""font-size: 20px; font-weight: bold; margin: 0;"">Is there a person in this image?</p>
                        </div>
                    </div>","0","main_causal_task","3","dog_causal","","","",""
"","","","","","html-keyboard-response","60","183926","0.0-60.0","0AB21AEFF33F4BF3BB25E684E467A78A","019ce7a6-d98d-7e42-be4f-dc7f58e24dcc","019ce7a0-0965-7aa7-a556-174d32a8e773","","null","
                    <div class=""stimulus-container"">
                        <img src=""images/causal_sequence/dog_causal/dog_causal_4.png"" class=""exp-image"">
                        <div class=""question-area""></div> 
                    </div>","null","","","","","","",""
"","","","","","html-button-response","61","184325","0.0-61.0","0AB21AEFF33F4BF3BB25E684E467A78A","019ce7a6-d98d-7e42-be4f-dc7f58e24dcc","019ce7a0-0965-7aa7-a556-174d32a8e773","","398","
                    <div class=""stimulus-container"">
                        <img src=""images/causal_sequence/dog_causal/dog_causal_4.png"" class=""exp-image"">
                        <div class=""question-area"">
                            <p style=""font-size: 20px; font-weight: bold; margin: 0;"">Is there a person in this image?</p>
                        </div>
                    </div>","0","main_causal_task","4","dog_causal","","","",""
"","","","","","html-keyboard-response","62","189329","0.0-62.0","0AB21AEFF33F4BF3BB25E684E467A78A","019ce7a6-d98d-7e42-be4f-dc7f58e24dcc","019ce7a0-0965-7aa7-a556-174d32a8e773","","null","
                    <div class=""stimulus-container"">
                        <img src=""images/causal_sequence/dog_causal/dog_causal_5.png"" class=""exp-image"">
                        <div class=""question-area""></div> 
                    </div>","null","","","","","","",""
"","","","","","html-button-response","63","189874","0.0-63.0","0AB21AEFF33F4BF3BB25E684E467A78A","019ce7a6-d98d-7e42-be4f-dc7f58e24dcc","019ce7a0-0965-7aa7-a556-174d32a8e773","","543","
                    <div class=""stimulus-container"">
                        <img src=""images/causal_sequence/dog_causal/dog_causal_5.png"" class=""exp-image"">
                        <div class=""question-area"">
                            <p style=""font-size: 20px; font-weight: bold; margin: 0;"">Is there a person in this image?</p>
                        </div>
                    </div>","0","main_causal_task","5","dog_causal","","","",""
"","","","","","html-keyboard-response","64","194876","0.0-64.0","0AB21AEFF33F4BF3BB25E684E467A78A","019ce7a6-d98d-7e42-be4f-dc7f58e24dcc","019ce7a0-0965-7aa7-a556-174d32a8e773","","null","
                    <div class=""stimulus-container"">
                        <img src=""images/causal_sequence/dog_causal/dog_causal_6.png"" class=""exp-image"">
                        <div class=""question-area""></div> 
                    </div>","null","","","","","","",""
"","","","","","html-button-response","65","195290","0.0-65.0","0AB21AEFF33F4BF3BB25E684E467A78A","019ce7a6-d98d-7e42-be4f-dc7f58e24dcc","019ce7a0-0965-7aa7-a556-174d32a8e773","","411","
                    <div class=""stimulus-container"">
                        <img src=""images/causal_sequence/dog_causal/dog_causal_6.png"" class=""exp-image"">
                        <div class=""question-area"">
                            <p style=""font-size: 20px; font-weight: bold; margin: 0;"">Is there a person in this image?</p>
                        </div>
                    </div>","0","main_causal_task","6","dog_causal","","","",""
"","","","","","html-keyboard-response","66","200293","0.0-66.0","0AB21AEFF33F4BF3BB25E684E467A78A","019ce7a6-d98d-7e42-be4f-dc7f58e24dcc","019ce7a0-0965-7aa7-a556-174d32a8e773","","null","
                    <div class=""stimulus-container"">
                        <img src=""images/causal_sequence/dog_causal/dog_causal_7.png"" class=""exp-image"">
                        <div class=""question-area""></div> 
                    </div>","null","","","","","","",""
"","","","","","html-button-response","67","200720","0.0-67.0","0AB21AEFF33F4BF3BB25E684E467A78A","019ce7a6-d98d-7e42-be4f-dc7f58e24dcc","019ce7a0-0965-7aa7-a556-174d32a8e773","","426","
                    <div class=""stimulus-container"">
                        <img src=""images/causal_sequence/dog_causal/dog_causal_7.png"" class=""exp-image"">
                        <div class=""question-area"">
                            <p style=""font-size: 20px; font-weight: bold; margin: 0;"">Is there a person in this image?</p>
                        </div>
                    </div>","0","main_causal_task","7","dog_causal","","","",""
"","","","","","html-keyboard-response","68","205723","0.0-68.0","0AB21AEFF33F4BF3BB25E684E467A78A","019ce7a6-d98d-7e42-be4f-dc7f58e24dcc","019ce7a0-0965-7aa7-a556-174d32a8e773","","null","
                    <div class=""stimulus-container"">
                        <img src=""images/causal_sequence/dog_causal/dog_causal_8.png"" class=""exp-image"">
                        <div class=""question-area""></div> 
                    </div>","null","","","","","","",""
"","","","","","html-button-response","69","206138","0.0-69.0","0AB21AEFF33F4BF3BB25E684E467A78A","019ce7a6-d98d-7e42-be4f-dc7f58e24dcc","019ce7a0-0965-7aa7-a556-174d32a8e773","","414","
                    <div class=""stimulus-container"">
                        <img src=""images/causal_sequence/dog_causal/dog_causal_8.png"" class=""exp-image"">
                        <div class=""question-area"">
                            <p style=""font-size: 20px; font-weight: bold; margin: 0;"">Is there a person in this image?</p>
                        </div>
                    </div>","0","main_causal_task","8","dog_causal","","","",""
"","","","","","html-keyboard-response","70","211140","0.0-70.0","0AB21AEFF33F4BF3BB25E684E467A78A","019ce7a6-d98d-7e42-be4f-dc7f58e24dcc","019ce7a0-0965-7aa7-a556-174d32a8e773","","null","
                    <div class=""stimulus-container"">
                        <img src=""images/causal_sequence/dog_causal/dog_causal_9.png"" class=""exp-image"">
                        <div class=""question-area""></div> 
                    </div>","null","","","","","","",""
"","","","","","html-button-response","71","211546","0.0-71.0","0AB21AEFF33F4BF3BB25E684E467A78A","019ce7a6-d98d-7e42-be4f-dc7f58e24dcc","019ce7a0-0965-7aa7-a556-174d32a8e773","","405","
                    <div class=""stimulus-container"">
                        <img src=""images/causal_sequence/dog_causal/dog_causal_9.png"" class=""exp-image"">
                        <div class=""question-area"">
                            <p style=""font-size: 20px; font-weight: bold; margin: 0;"">Is there a person in this image?</p>
                        </div>
                    </div>","0","main_causal_task","9","dog_causal","","","",""
"","","","","","html-keyboard-response","72","212547","0.0-72.0","0AB21AEFF33F4BF3BB25E684E467A78A","019ce7a6-d98d-7e42-be4f-dc7f58e24dcc","019ce7a0-0965-7aa7-a556-174d32a8e773","","null","<div style=""background-color: gray; width: 100vw; height: 100vh;""></div>","null","","","","","","",""
"","","","","","html-keyboard-response","73","217550","0.0-73.0","0AB21AEFF33F4BF3BB25E684E467A78A","019ce7a6-d98d-7e42-be4f-dc7f58e24dcc","019ce7a0-0965-7aa7-a556-174d32a8e773","","null","
                    <div class=""stimulus-container"">
                        <img src=""images/causal_sequence/package_causal/package_causal_1.png"" class=""exp-image"">
                        <div class=""question-area""></div> 
                    </div>","null","","","","","","",""
"","","","","","html-button-response","74","218007","0.0-74.0","0AB21AEFF33F4BF3BB25E684E467A78A","019ce7a6-d98d-7e42-be4f-dc7f58e24dcc","019ce7a0-0965-7aa7-a556-174d32a8e773","","455","
                    <div class=""stimulus-container"">
                        <img src=""images/causal_sequence/package_causal/package_causal_1.png"" class=""exp-image"">
                        <div class=""question-area"">
                            <p style=""font-size: 20px; font-weight: bold; margin: 0;"">Is there a person in this image?</p>
                        </div>
                    </div>","0","main_causal_task","1","package_causal","","","",""
"","","","","","html-keyboard-response","75","223010","0.0-75.0","0AB21AEFF33F4BF3BB25E684E467A78A","019ce7a6-d98d-7e42-be4f-dc7f58e24dcc","019ce7a0-0965-7aa7-a556-174d32a8e773","","null","
                    <div class=""stimulus-container"">
                        <img src=""images/causal_sequence/package_causal/package_causal_2.png"" class=""exp-image"">
                        <div class=""question-area""></div> 
                    </div>","null","","","","","","",""
"","","","","","html-button-response","76","224221","0.0-76.0","0AB21AEFF33F4BF3BB25E684E467A78A","019ce7a6-d98d-7e42-be4f-dc7f58e24dcc","019ce7a0-0965-7aa7-a556-174d32a8e773","","1210","
                    <div class=""stimulus-container"">
                        <img src=""images/causal_sequence/package_causal/package_causal_2.png"" class=""exp-image"">
                        <div class=""question-area"">
                            <p style=""font-size: 20px; font-weight: bold; margin: 0;"">Is there a person in this image?</p>
                        </div>
                    </div>","0","main_causal_task","2","package_causal","","","",""
"","","","","","html-keyboard-response","77","229224","0.0-77.0","0AB21AEFF33F4BF3BB25E684E467A78A","019ce7a6-d98d-7e42-be4f-dc7f58e24dcc","019ce7a0-0965-7aa7-a556-174d32a8e773","","null","
                    <div class=""stimulus-container"">
                        <img src=""images/causal_sequence/package_causal/package_causal_3.png"" class=""exp-image"">
                        <div class=""question-area""></div> 
                    </div>","null","","","","","","",""
"","","","","","html-button-response","78","229609","0.0-78.0","0AB21AEFF33F4BF3BB25E684E467A78A","019ce7a6-d98d-7e42-be4f-dc7f58e24dcc","019ce7a0-0965-7aa7-a556-174d32a8e773","","383","
                    <div class=""stimulus-container"">
                        <img src=""images/causal_sequence/package_causal/package_causal_3.png"" class=""exp-image"">
                        <div class=""question-area"">
                            <p style=""font-size: 20px; font-weight: bold; margin: 0;"">Is there a person in this image?</p>
                        </div>
                    </div>","0","main_causal_task","3","package_causal","","","",""
"","","","","","html-keyboard-response","79","234611","0.0-79.0","0AB21AEFF33F4BF3BB25E684E467A78A","019ce7a6-d98d-7e42-be4f-dc7f58e24dcc","019ce7a0-0965-7aa7-a556-174d32a8e773","","null","
                    <div class=""stimulus-container"">
                        <img src=""images/causal_sequence/package_causal/package_causal_4.png"" class=""exp-image"">
                        <div class=""question-area""></div> 
                    </div>","null","","","","","","",""
"","","","","","html-button-response","80","235198","0.0-80.0","0AB21AEFF33F4BF3BB25E684E467A78A","019ce7a6-d98d-7e42-be4f-dc7f58e24dcc","019ce7a0-0965-7aa7-a556-174d32a8e773","","585","
                    <div class=""stimulus-container"">
                        <img src=""images/causal_sequence/package_causal/package_causal_4.png"" class=""exp-image"">
                        <div class=""question-area"">
                            <p style=""font-size: 20px; font-weight: bold; margin: 0;"">Is there a person in this image?</p>
                        </div>
                    </div>","1","main_causal_task","4","package_causal","","","",""
"","","","","","html-keyboard-response","81","240202","0.0-81.0","0AB21AEFF33F4BF3BB25E684E467A78A","019ce7a6-d98d-7e42-be4f-dc7f58e24dcc","019ce7a0-0965-7aa7-a556-174d32a8e773","","null","
                    <div class=""stimulus-container"">
                        <img src=""images/causal_sequence/package_causal/package_causal_5.png"" class=""exp-image"">
                        <div class=""question-area""></div> 
                    </div>","null","","","","","","",""
"","","","","","html-button-response","82","240729","0.0-82.0","0AB21AEFF33F4BF3BB25E684E467A78A","019ce7a6-d98d-7e42-be4f-dc7f58e24dcc","019ce7a0-0965-7aa7-a556-174d32a8e773","","525","
                    <div class=""stimulus-container"">
                        <img src=""images/causal_sequence/package_causal/package_causal_5.png"" class=""exp-image"">
                        <div class=""question-area"">
                            <p style=""font-size: 20px; font-weight: bold; margin: 0;"">Is there a person in this image?</p>
                        </div>
                    </div>","0","main_causal_task","5","package_causal","","","",""
"","","","","","html-keyboard-response","83","245732","0.0-83.0","0AB21AEFF33F4BF3BB25E684E467A78A","019ce7a6-d98d-7e42-be4f-dc7f58e24dcc","019ce7a0-0965-7aa7-a556-174d32a8e773","","null","
                    <div class=""stimulus-container"">
                        <img src=""images/causal_sequence/package_causal/package_causal_6.png"" class=""exp-image"">
                        <div class=""question-area""></div> 
                    </div>","null","","","","","","",""
"","","","","","html-button-response","84","246148","0.0-84.0","0AB21AEFF33F4BF3BB25E684E467A78A","019ce7a6-d98d-7e42-be4f-dc7f58e24dcc","019ce7a0-0965-7aa7-a556-174d32a8e773","","415","
                    <div class=""stimulus-container"">
                        <img src=""images/causal_sequence/package_causal/package_causal_6.png"" class=""exp-image"">
                        <div class=""question-area"">
                            <p style=""font-size: 20px; font-weight: bold; margin: 0;"">Is there a person in this image?</p>
                        </div>
                    </div>","0","main_causal_task","6","package_causal","","","",""
"","","","","","html-keyboard-response","85","251150","0.0-85.0","0AB21AEFF33F4BF3BB25E684E467A78A","019ce7a6-d98d-7e42-be4f-dc7f58e24dcc","019ce7a0-0965-7aa7-a556-174d32a8e773","","null","
                    <div class=""stimulus-container"">
                        <img src=""images/causal_sequence/package_causal/package_causal_7.png"" class=""exp-image"">
                        <div class=""question-area""></div> 
                    </div>","null","","","","","","",""
"","","","","","html-button-response","86","251563","0.0-86.0","0AB21AEFF33F4BF3BB25E684E467A78A","019ce7a6-d98d-7e42-be4f-dc7f58e24dcc","019ce7a0-0965-7aa7-a556-174d32a8e773","","412","
                    <div class=""stimulus-container"">
                        <img src=""images/causal_sequence/package_causal/package_causal_7.png"" class=""exp-image"">
                        <div class=""question-area"">
                            <p style=""font-size: 20px; font-weight: bold; margin: 0;"">Is there a person in this image?</p>
                        </div>
                    </div>","0","main_causal_task","7","package_causal","","","",""
"","","","","","html-keyboard-response","87","256566","0.0-87.0","0AB21AEFF33F4BF3BB25E684E467A78A","019ce7a6-d98d-7e42-be4f-dc7f58e24dcc","019ce7a0-0965-7aa7-a556-174d32a8e773","","null","
                    <div class=""stimulus-container"">
                        <img src=""images/causal_sequence/package_causal/package_causal_8.png"" class=""exp-image"">
                        <div class=""question-area""></div> 
                    </div>","null","","","","","","",""
"","","","","","html-button-response","88","256943","0.0-88.0","0AB21AEFF33F4BF3BB25E684E467A78A","019ce7a6-d98d-7e42-be4f-dc7f58e24dcc","019ce7a0-0965-7aa7-a556-174d32a8e773","","375","
                    <div class=""stimulus-container"">
                        <img src=""images/causal_sequence/package_causal/package_causal_8.png"" class=""exp-image"">
                        <div class=""question-area"">
                            <p style=""font-size: 20px; font-weight: bold; margin: 0;"">Is there a person in this image?</p>
                        </div>
                    </div>","0","main_causal_task","8","package_causal","","","",""
"","","","","","html-keyboard-response","89","261946","0.0-89.0","0AB21AEFF33F4BF3BB25E684E467A78A","019ce7a6-d98d-7e42-be4f-dc7f58e24dcc","019ce7a0-0965-7aa7-a556-174d32a8e773","","null","
                    <div class=""stimulus-container"">
                        <img src=""images/causal_sequence/package_causal/package_causal_9.png"" class=""exp-image"">
                        <div class=""question-area""></div> 
                    </div>","null","","","","","","",""
"","","","","","html-button-response","90","262356","0.0-90.0","0AB21AEFF33F4BF3BB25E684E467A78A","019ce7a6-d98d-7e42-be4f-dc7f58e24dcc","019ce7a0-0965-7aa7-a556-174d32a8e773","","409","
                    <div class=""stimulus-container"">
                        <img src=""images/causal_sequence/package_causal/package_causal_9.png"" class=""exp-image"">
                        <div class=""question-area"">
                            <p style=""font-size: 20px; font-weight: bold; margin: 0;"">Is there a person in this image?</p>
                        </div>
                    </div>","0","main_causal_task","9","package_causal","","","",""
"","","","","","html-keyboard-response","91","263358","0.0-91.0","0AB21AEFF33F4BF3BB25E684E467A78A","019ce7a6-d98d-7e42-be4f-dc7f58e24dcc","019ce7a0-0965-7aa7-a556-174d32a8e773","","null","<div style=""background-color: gray; width: 100vw; height: 100vh;""></div>","null","","","","","","",""
"","","","","","html-keyboard-response","92","268360","0.0-92.0","0AB21AEFF33F4BF3BB25E684E467A78A","019ce7a6-d98d-7e42-be4f-dc7f58e24dcc","019ce7a0-0965-7aa7-a556-174d32a8e773","","null","
                    <div class=""stimulus-container"">
                        <img src=""images/causal_sequence/saving_a_cat_causal/saving_a_cat_causal_1.png"" class=""exp-image"">
                        <div class=""question-area""></div> 
                    </div>","null","","","","","","",""
"","","","","","html-button-response","93","268763","0.0-93.0","0AB21AEFF33F4BF3BB25E684E467A78A","019ce7a6-d98d-7e42-be4f-dc7f58e24dcc","019ce7a0-0965-7aa7-a556-174d32a8e773","","402","
                    <div class=""stimulus-container"">
                        <img src=""images/causal_sequence/saving_a_cat_causal/saving_a_cat_causal_1.png"" class=""exp-image"">
                        <div class=""question-area"">
                            <p style=""font-size: 20px; font-weight: bold; margin: 0;"">Is there a person in this image?</p>
                        </div>
                    </div>","0","main_causal_task","1","saving_a_cat_causal","","","",""
"","","","","","html-keyboard-response","94","273766","0.0-94.0","0AB21AEFF33F4BF3BB25E684E467A78A","019ce7a6-d98d-7e42-be4f-dc7f58e24dcc","019ce7a0-0965-7aa7-a556-174d32a8e773","","null","
                    <div class=""stimulus-container"">
                        <img src=""images/causal_sequence/saving_a_cat_causal/saving_a_cat_causal_2.png"" class=""exp-image"">
                        <div class=""question-area""></div> 
                    </div>","null","","","","","","",""
"","","","","","html-button-response","95","274275","0.0-95.0","0AB21AEFF33F4BF3BB25E684E467A78A","019ce7a6-d98d-7e42-be4f-dc7f58e24dcc","019ce7a0-0965-7aa7-a556-174d32a8e773","","508","
                    <div class=""stimulus-container"">
                        <img src=""images/causal_sequence/saving_a_cat_causal/saving_a_cat_causal_2.png"" class=""exp-image"">
                        <div class=""question-area"">
                            <p style=""font-size: 20px; font-weight: bold; margin: 0;"">Is there a person in this image?</p>
                        </div>
                    </div>","1","main_causal_task","2","saving_a_cat_causal","","","",""
"","","","","","html-keyboard-response","96","279278","0.0-96.0","0AB21AEFF33F4BF3BB25E684E467A78A","019ce7a6-d98d-7e42-be4f-dc7f58e24dcc","019ce7a0-0965-7aa7-a556-174d32a8e773","","null","
                    <div class=""stimulus-container"">
                        <img src=""images/causal_sequence/saving_a_cat_causal/saving_a_cat_causal_3.png"" class=""exp-image"">
                        <div class=""question-area""></div> 
                    </div>","null","","","","","","",""
"","","","","","html-button-response","97","280008","0.0-97.0","0AB21AEFF33F4BF3BB25E684E467A78A","019ce7a6-d98d-7e42-be4f-dc7f58e24dcc","019ce7a0-0965-7aa7-a556-174d32a8e773","","728","
                    <div class=""stimulus-container"">
                        <img src=""images/causal_sequence/saving_a_cat_causal/saving_a_cat_causal_3.png"" class=""exp-image"">
                        <div class=""question-area"">
                            <p style=""font-size: 20px; font-weight: bold; margin: 0;"">Is there a person in this image?</p>
                        </div>
                    </div>","1","main_causal_task","3","saving_a_cat_causal","","","",""
"","","","","","html-keyboard-response","98","285010","0.0-98.0","0AB21AEFF33F4BF3BB25E684E467A78A","019ce7a6-d98d-7e42-be4f-dc7f58e24dcc","019ce7a0-0965-7aa7-a556-174d32a8e773","","null","
                    <div class=""stimulus-container"">
                        <img src=""images/causal_sequence/saving_a_cat_causal/saving_a_cat_causal_4.png"" class=""exp-image"">
                        <div class=""question-area""></div> 
                    </div>","null","","","","","","",""
"","","","","","html-button-response","99","285543","0.0-99.0","0AB21AEFF33F4BF3BB25E684E467A78A","019ce7a6-d98d-7e42-be4f-dc7f58e24dcc","019ce7a0-0965-7aa7-a556-174d32a8e773","","532","
                    <div class=""stimulus-container"">
                        <img src=""images/causal_sequence/saving_a_cat_causal/saving_a_cat_causal_4.png"" class=""exp-image"">
                        <div class=""question-area"">
                            <p style=""font-size: 20px; font-weight: bold; margin: 0;"">Is there a person in this image?</p>
                        </div>
                    </div>","0","main_causal_task","4","saving_a_cat_causal","","","",""
"","","","","","html-keyboard-response","100","290546","0.0-100.0","0AB21AEFF33F4BF3BB25E684E467A78A","019ce7a6-d98d-7e42-be4f-dc7f58e24dcc","019ce7a0-0965-7aa7-a556-174d32a8e773","","null","
                    <div class=""stimulus-container"">
                        <img src=""images/causal_sequence/saving_a_cat_causal/saving_a_cat_causal_5.png"" class=""exp-image"">
                        <div class=""question-area""></div> 
                    </div>","null","","","","","","",""
"","","","","","html-button-response","101","291110","0.0-101.0","0AB21AEFF33F4BF3BB25E684E467A78A","019ce7a6-d98d-7e42-be4f-dc7f58e24dcc","019ce7a0-0965-7aa7-a556-174d32a8e773","","563","
                    <div class=""stimulus-container"">
                        <img src=""images/causal_sequence/saving_a_cat_causal/saving_a_cat_causal_5.png"" class=""exp-image"">
                        <div class=""question-area"">
                            <p style=""font-size: 20px; font-weight: bold; margin: 0;"">Is there a person in this image?</p>
                        </div>
                    </div>","0","main_causal_task","5","saving_a_cat_causal","","","",""
"","","","","","html-keyboard-response","102","296115","0.0-102.0","0AB21AEFF33F4BF3BB25E684E467A78A","019ce7a6-d98d-7e42-be4f-dc7f58e24dcc","019ce7a0-0965-7aa7-a556-174d32a8e773","","null","
                    <div class=""stimulus-container"">
                        <img src=""images/causal_sequence/saving_a_cat_causal/saving_a_cat_causal_6.png"" class=""exp-image"">
                        <div class=""question-area""></div> 
                    </div>","null","","","","","","",""
"","","","","","html-button-response","103","296574","0.0-103.0","0AB21AEFF33F4BF3BB25E684E467A78A","019ce7a6-d98d-7e42-be4f-dc7f58e24dcc","019ce7a0-0965-7aa7-a556-174d32a8e773","","456","
                    <div class=""stimulus-container"">
                        <img src=""images/causal_sequence/saving_a_cat_causal/saving_a_cat_causal_6.png"" class=""exp-image"">
                        <div class=""question-area"">
                            <p style=""font-size: 20px; font-weight: bold; margin: 0;"">Is there a person in this image?</p>
                        </div>
                    </div>","0","main_causal_task","6","saving_a_cat_causal","","","",""
"","","","","","html-keyboard-response","104","301577","0.0-104.0","0AB21AEFF33F4BF3BB25E684E467A78A","019ce7a6-d98d-7e42-be4f-dc7f58e24dcc","019ce7a0-0965-7aa7-a556-174d32a8e773","","null","
                    <div class=""stimulus-container"">
                        <img src=""images/causal_sequence/saving_a_cat_causal/saving_a_cat_causal_7.png"" class=""exp-image"">
                        <div class=""question-area""></div> 
                    </div>","null","","","","","","",""
"","","","","","html-button-response","105","302943","0.0-105.0","0AB21AEFF33F4BF3BB25E684E467A78A","019ce7a6-d98d-7e42-be4f-dc7f58e24dcc","019ce7a0-0965-7aa7-a556-174d32a8e773","","1365","
                    <div class=""stimulus-container"">
                        <img src=""images/causal_sequence/saving_a_cat_causal/saving_a_cat_causal_7.png"" class=""exp-image"">
                        <div class=""question-area"">
                            <p style=""font-size: 20px; font-weight: bold; margin: 0;"">Is there a person in this image?</p>
                        </div>
                    </div>","0","main_causal_task","7","saving_a_cat_causal","","","",""
"","","","","","html-keyboard-response","106","307945","0.0-106.0","0AB21AEFF33F4BF3BB25E684E467A78A","019ce7a6-d98d-7e42-be4f-dc7f58e24dcc","019ce7a0-0965-7aa7-a556-174d32a8e773","","null","
                    <div class=""stimulus-container"">
                        <img src=""images/causal_sequence/saving_a_cat_causal/saving_a_cat_causal_8.png"" class=""exp-image"">
                        <div class=""question-area""></div> 
                    </div>","null","","","","","","",""
"","","","","","html-button-response","107","308387","0.0-107.0","0AB21AEFF33F4BF3BB25E684E467A78A","019ce7a6-d98d-7e42-be4f-dc7f58e24dcc","019ce7a0-0965-7aa7-a556-174d32a8e773","","441","
                    <div class=""stimulus-container"">
                        <img src=""images/causal_sequence/saving_a_cat_causal/saving_a_cat_causal_8.png"" class=""exp-image"">
                        <div class=""question-area"">
                            <p style=""font-size: 20px; font-weight: bold; margin: 0;"">Is there a person in this image?</p>
                        </div>
                    </div>","0","main_causal_task","8","saving_a_cat_causal","","","",""
"","","","","","html-keyboard-response","108","313390","0.0-108.0","0AB21AEFF33F4BF3BB25E684E467A78A","019ce7a6-d98d-7e42-be4f-dc7f58e24dcc","019ce7a0-0965-7aa7-a556-174d32a8e773","","null","
                    <div class=""stimulus-container"">
                        <img src=""images/causal_sequence/saving_a_cat_causal/saving_a_cat_causal_9.png"" class=""exp-image"">
                        <div class=""question-area""></div> 
                    </div>","null","","","","","","",""
"","","","","","html-button-response","109","313819","0.0-109.0","0AB21AEFF33F4BF3BB25E684E467A78A","019ce7a6-d98d-7e42-be4f-dc7f58e24dcc","019ce7a0-0965-7aa7-a556-174d32a8e773","","427","
                    <div class=""stimulus-container"">
                        <img src=""images/causal_sequence/saving_a_cat_causal/saving_a_cat_causal_9.png"" class=""exp-image"">
                        <div class=""question-area"">
                            <p style=""font-size: 20px; font-weight: bold; margin: 0;"">Is there a person in this image?</p>
                        </div>
                    </div>","0","main_causal_task","9","saving_a_cat_causal","","","",""
"","","","","","html-keyboard-response","110","314822","0.0-110.0","0AB21AEFF33F4BF3BB25E684E467A78A","019ce7a6-d98d-7e42-be4f-dc7f58e24dcc","019ce7a0-0965-7aa7-a556-174d32a8e773","","null","<div style=""background-color: gray; width: 100vw; height: 100vh;""></div>","null","","","","","","",""
"","","","","","html-keyboard-response","111","319824","0.0-111.0","0AB21AEFF33F4BF3BB25E684E467A78A","019ce7a6-d98d-7e42-be4f-dc7f58e24dcc","019ce7a0-0965-7aa7-a556-174d32a8e773","","null","
                    <div class=""stimulus-container"">
                        <img src=""images/causal_sequence/museum_causal/museum_causal_1.png"" class=""exp-image"">
                        <div class=""question-area""></div> 
                    </div>","null","","","","","","",""
"","","","","","html-button-response","112","320275","0.0-112.0","0AB21AEFF33F4BF3BB25E684E467A78A","019ce7a6-d98d-7e42-be4f-dc7f58e24dcc","019ce7a0-0965-7aa7-a556-174d32a8e773","","450","
                    <div class=""stimulus-container"">
                        <img src=""images/causal_sequence/museum_causal/museum_causal_1.png"" class=""exp-image"">
                        <div class=""question-area"">
                            <p style=""font-size: 20px; font-weight: bold; margin: 0;"">Is there a person in this image?</p>
                        </div>
                    </div>","0","main_causal_task","1","museum_causal","","","",""
"","","","","","html-keyboard-response","113","325278","0.0-113.0","0AB21AEFF33F4BF3BB25E684E467A78A","019ce7a6-d98d-7e42-be4f-dc7f58e24dcc","019ce7a0-0965-7aa7-a556-174d32a8e773","","null","
                    <div class=""stimulus-container"">
                        <img src=""images/causal_sequence/museum_causal/museum_causal_2.png"" class=""exp-image"">
                        <div class=""question-area""></div> 
                    </div>","null","","","","","","",""
"","","","","","html-button-response","114","325780","0.0-114.0","0AB21AEFF33F4BF3BB25E684E467A78A","019ce7a6-d98d-7e42-be4f-dc7f58e24dcc","019ce7a0-0965-7aa7-a556-174d32a8e773","","501","
                    <div class=""stimulus-container"">
                        <img src=""images/causal_sequence/museum_causal/museum_causal_2.png"" class=""exp-image"">
                        <div class=""question-area"">
                            <p style=""font-size: 20px; font-weight: bold; margin: 0;"">Is there a person in this image?</p>
                        </div>
                    </div>","1","main_causal_task","2","museum_causal","","","",""
"","","","","","html-keyboard-response","115","330782","0.0-115.0","0AB21AEFF33F4BF3BB25E684E467A78A","019ce7a6-d98d-7e42-be4f-dc7f58e24dcc","019ce7a0-0965-7aa7-a556-174d32a8e773","","null","
                    <div class=""stimulus-container"">
                        <img src=""images/causal_sequence/museum_causal/museum_causal_3.png"" class=""exp-image"">
                        <div class=""question-area""></div> 
                    </div>","null","","","","","","",""
"","","","","","html-button-response","116","331273","0.0-116.0","0AB21AEFF33F4BF3BB25E684E467A78A","019ce7a6-d98d-7e42-be4f-dc7f58e24dcc","019ce7a0-0965-7aa7-a556-174d32a8e773","","489","
                    <div class=""stimulus-container"">
                        <img src=""images/causal_sequence/museum_causal/museum_causal_3.png"" class=""exp-image"">
                        <div class=""question-area"">
                            <p style=""font-size: 20px; font-weight: bold; margin: 0;"">Is there a person in this image?</p>
                        </div>
                    </div>","0","main_causal_task","3","museum_causal","","","",""
"","","","","","html-keyboard-response","117","336275","0.0-117.0","0AB21AEFF33F4BF3BB25E684E467A78A","019ce7a6-d98d-7e42-be4f-dc7f58e24dcc","019ce7a0-0965-7aa7-a556-174d32a8e773","","null","
                    <div class=""stimulus-container"">
                        <img src=""images/causal_sequence/museum_causal/museum_causal_4.png"" class=""exp-image"">
                        <div class=""question-area""></div> 
                    </div>","null","","","","","","",""
"","","","","","html-button-response","118","336918","0.0-118.0","0AB21AEFF33F4BF3BB25E684E467A78A","019ce7a6-d98d-7e42-be4f-dc7f58e24dcc","019ce7a0-0965-7aa7-a556-174d32a8e773","","642","
                    <div class=""stimulus-container"">
                        <img src=""images/causal_sequence/museum_causal/museum_causal_4.png"" class=""exp-image"">
                        <div class=""question-area"">
                            <p style=""font-size: 20px; font-weight: bold; margin: 0;"">Is there a person in this image?</p>
                        </div>
                    </div>","1","main_causal_task","4","museum_causal","","","",""
"","","","","","html-keyboard-response","119","341921","0.0-119.0","0AB21AEFF33F4BF3BB25E684E467A78A","019ce7a6-d98d-7e42-be4f-dc7f58e24dcc","019ce7a0-0965-7aa7-a556-174d32a8e773","","null","
                    <div class=""stimulus-container"">
                        <img src=""images/causal_sequence/museum_causal/museum_causal_5.png"" class=""exp-image"">
                        <div class=""question-area""></div> 
                    </div>","null","","","","","","",""
"","","","","","html-button-response","120","342526","0.0-120.0","0AB21AEFF33F4BF3BB25E684E467A78A","019ce7a6-d98d-7e42-be4f-dc7f58e24dcc","019ce7a0-0965-7aa7-a556-174d32a8e773","","603","
                    <div class=""stimulus-container"">
                        <img src=""images/causal_sequence/museum_causal/museum_causal_5.png"" class=""exp-image"">
                        <div class=""question-area"">
                            <p style=""font-size: 20px; font-weight: bold; margin: 0;"">Is there a person in this image?</p>
                        </div>
                    </div>","0","main_causal_task","5","museum_causal","","","",""
"","","","","","html-keyboard-response","121","347528","0.0-121.0","0AB21AEFF33F4BF3BB25E684E467A78A","019ce7a6-d98d-7e42-be4f-dc7f58e24dcc","019ce7a0-0965-7aa7-a556-174d32a8e773","","null","
                    <div class=""stimulus-container"">
                        <img src=""images/causal_sequence/museum_causal/museum_causal_6.png"" class=""exp-image"">
                        <div class=""question-area""></div> 
                    </div>","null","","","","","","",""
"","","","","","html-button-response","122","347940","0.0-122.0","0AB21AEFF33F4BF3BB25E684E467A78A","019ce7a6-d98d-7e42-be4f-dc7f58e24dcc","019ce7a0-0965-7aa7-a556-174d32a8e773","","410","
                    <div class=""stimulus-container"">
                        <img src=""images/causal_sequence/museum_causal/museum_causal_6.png"" class=""exp-image"">
                        <div class=""question-area"">
                            <p style=""font-size: 20px; font-weight: bold; margin: 0;"">Is there a person in this image?</p>
                        </div>
                    </div>","0","main_causal_task","6","museum_causal","","","",""
"","","","","","html-keyboard-response","123","352943","0.0-123.0","0AB21AEFF33F4BF3BB25E684E467A78A","019ce7a6-d98d-7e42-be4f-dc7f58e24dcc","019ce7a0-0965-7aa7-a556-174d32a8e773","","null","
                    <div class=""stimulus-container"">
                        <img src=""images/causal_sequence/museum_causal/museum_causal_7.png"" class=""exp-image"">
                        <div class=""question-area""></div> 
                    </div>","null","","","","","","",""
"","","","","","html-button-response","124","353622","0.0-124.0","0AB21AEFF33F4BF3BB25E684E467A78A","019ce7a6-d98d-7e42-be4f-dc7f58e24dcc","019ce7a0-0965-7aa7-a556-174d32a8e773","","678","
                    <div class=""stimulus-container"">
                        <img src=""images/causal_sequence/museum_causal/museum_causal_7.png"" class=""exp-image"">
                        <div class=""question-area"">
                            <p style=""font-size: 20px; font-weight: bold; margin: 0;"">Is there a person in this image?</p>
                        </div>
                    </div>","1","main_causal_task","7","museum_causal","","","",""
"","","","","","html-keyboard-response","125","358625","0.0-125.0","0AB21AEFF33F4BF3BB25E684E467A78A","019ce7a6-d98d-7e42-be4f-dc7f58e24dcc","019ce7a0-0965-7aa7-a556-174d32a8e773","","null","
                    <div class=""stimulus-container"">
                        <img src=""images/causal_sequence/museum_causal/museum_causal_8.png"" class=""exp-image"">
                        <div class=""question-area""></div> 
                    </div>","null","","","","","","",""
"","","","","","html-button-response","126","359280","0.0-126.0","0AB21AEFF33F4BF3BB25E684E467A78A","019ce7a6-d98d-7e42-be4f-dc7f58e24dcc","019ce7a0-0965-7aa7-a556-174d32a8e773","","654","
                    <div class=""stimulus-container"">
                        <img src=""images/causal_sequence/museum_causal/museum_causal_8.png"" class=""exp-image"">
                        <div class=""question-area"">
                            <p style=""font-size: 20px; font-weight: bold; margin: 0;"">Is there a person in this image?</p>
                        </div>
                    </div>","0","main_causal_task","8","museum_causal","","","",""
"","","","","","html-keyboard-response","127","364283","0.0-127.0","0AB21AEFF33F4BF3BB25E684E467A78A","019ce7a6-d98d-7e42-be4f-dc7f58e24dcc","019ce7a0-0965-7aa7-a556-174d32a8e773","","null","
                    <div class=""stimulus-container"">
                        <img src=""images/causal_sequence/museum_causal/museum_causal_9.png"" class=""exp-image"">
                        <div class=""question-area""></div> 
                    </div>","null","","","","","","",""
"","","","","","html-button-response","128","365004","0.0-128.0","0AB21AEFF33F4BF3BB25E684E467A78A","019ce7a6-d98d-7e42-be4f-dc7f58e24dcc","019ce7a0-0965-7aa7-a556-174d32a8e773","","719","
                    <div class=""stimulus-container"">
                        <img src=""images/causal_sequence/museum_causal/museum_causal_9.png"" class=""exp-image"">
                        <div class=""question-area"">
                            <p style=""font-size: 20px; font-weight: bold; margin: 0;"">Is there a person in this image?</p>
                        </div>
                    </div>","1","main_causal_task","9","museum_causal","","","",""
"","","","","","instructions","129","366574","0.0-129.0","0AB21AEFF33F4BF3BB25E684E467A78A","019ce7a6-d98d-7e42-be4f-dc7f58e24dcc","019ce7a0-0965-7aa7-a556-174d32a8e773","[{""page_index"":0,""viewing_time"":1569}]","1570","","","","","","","","",""
"","","","","","instructions","130","371316","0.0-130.0","0AB21AEFF33F4BF3BB25E684E467A78A","019ce7a6-d98d-7e42-be4f-dc7f58e24dcc","019ce7a0-0965-7aa7-a556-174d32a8e773","[{""page_index"":0,""viewing_time"":4741}]","4741","","","","","","","","",""
"","","","","","html-keyboard-response","131","372319","0.0-131.0","0AB21AEFF33F4BF3BB25E684E467A78A","019ce7a6-d98d-7e42-be4f-dc7f58e24dcc","019ce7a0-0965-7aa7-a556-174d32a8e773","","null","
        <div class=""stimulus-container"" style=""display: flex; align-items: center; justify-content: center; gap: 30px;"">
            <img src=""images/instructions/movie_1.png"" class=""exp-image"">
            <div style=""font-size: 40px; font-weight: bold; color: green; border: 5px solid green; padding: 25px; border-radius: 15px; background-color: #f0fff0;"">
                WORTH<br>$1
            </div>
        </div>
        <div class=""question-area""></div>","null","","","","","","",""
"","","","","","html-button-response","132","373378","0.0-132.0","0AB21AEFF33F4BF3BB25E684E467A78A","019ce7a6-d98d-7e42-be4f-dc7f58e24dcc","019ce7a0-0965-7aa7-a556-174d32a8e773","","1057","
        <div class=""stimulus-container"" style=""display: flex; align-items: center; justify-content: center; gap: 30px;"">
            <img src=""images/instructions/movie_1.png"" class=""exp-image"">
            <div style=""font-size: 40px; font-weight: bold; color: green; border: 5px solid green; padding: 25px; border-radius: 15px; background-color: #f0fff0;"">
                WORTH<br>$1
            </div>
        </div>
        <div class=""question-area"">
            <p style=""font-size: 20px; font-weight: bold; margin: 0;"">Was there a person in this image?</p>
        </div>","0","","","","","","",""
"","","","","","instructions","133","376445","0.0-133.0","0AB21AEFF33F4BF3BB25E684E467A78A","019ce7a6-d98d-7e42-be4f-dc7f58e24dcc","019ce7a0-0965-7aa7-a556-174d32a8e773","[{""page_index"":0,""viewing_time"":3066}]","3067","","","","","","","","",""
"","","","","","html-keyboard-response","134","386447","0.0-134.0","0AB21AEFF33F4BF3BB25E684E467A78A","019ce7a6-d98d-7e42-be4f-dc7f58e24dcc","019ce7a0-0965-7aa7-a556-174d32a8e773","","null","
            <div class=""stimulus-container"" style=""display: flex; align-items: center; justify-content: center; gap: 30px;"">
                <img src=""images/causal_sequence/the_performance_causal/the_performance_causal_7.png"" class=""exp-image"">
                <div style=""font-size: 40px; font-weight: bold; color: green; border: 5px solid green; padding: 25px; border-radius: 15px; background-color: #f0fff0;"">
                    WORTH<br>$1
                </div>
            </div>
            <div class=""question-area""></div>","null","","","","","","",""
"","","","","","html-button-response","135","388244","0.0-135.0","0AB21AEFF33F4BF3BB25E684E467A78A","019ce7a6-d98d-7e42-be4f-dc7f58e24dcc","019ce7a0-0965-7aa7-a556-174d32a8e773","","1796","
            <div class=""stimulus-container"" style=""display: flex; align-items: center; justify-content: center; gap: 30px;"">
                <img src=""images/causal_sequence/the_performance_causal/the_performance_causal_7.png"" class=""exp-image"">
                <div style=""font-size: 40px; font-weight: bold; color: green; border: 5px solid green; padding: 25px; border-radius: 15px; background-color: #f0fff0;"">
                    WORTH<br>$1
                </div>
            </div>
            <div class=""question-area"">
                <p style=""font-size: 20px; font-weight: bold; margin: 0;"">Was there a person in this image?</p>
            </div>","0","part2_value_learning","","the_performance_causal","7","","",""
"","","","","","html-keyboard-response","136","398247","0.0-136.0","0AB21AEFF33F4BF3BB25E684E467A78A","019ce7a6-d98d-7e42-be4f-dc7f58e24dcc","019ce7a0-0965-7aa7-a556-174d32a8e773","","null","
            <div class=""stimulus-container"" style=""display: flex; align-items: center; justify-content: center; gap: 30px;"">
                <img src=""images/causal_sequence/dog_causal/dog_causal_6.png"" class=""exp-image"">
                <div style=""font-size: 40px; font-weight: bold; color: green; border: 5px solid green; padding: 25px; border-radius: 15px; background-color: #f0fff0;"">
                    WORTH<br>$1
                </div>
            </div>
            <div class=""question-area""></div>","null","","","","","","",""
"","","","","","html-button-response","137","399078","0.0-137.0","0AB21AEFF33F4BF3BB25E684E467A78A","019ce7a6-d98d-7e42-be4f-dc7f58e24dcc","019ce7a0-0965-7aa7-a556-174d32a8e773","","831","
            <div class=""stimulus-container"" style=""display: flex; align-items: center; justify-content: center; gap: 30px;"">
                <img src=""images/causal_sequence/dog_causal/dog_causal_6.png"" class=""exp-image"">
                <div style=""font-size: 40px; font-weight: bold; color: green; border: 5px solid green; padding: 25px; border-radius: 15px; background-color: #f0fff0;"">
                    WORTH<br>$1
                </div>
            </div>
            <div class=""question-area"">
                <p style=""font-size: 20px; font-weight: bold; margin: 0;"">Was there a person in this image?</p>
            </div>","0","part2_value_learning","","dog_causal","6","","",""
"","","","","","html-keyboard-response","138","409081","0.0-138.0","0AB21AEFF33F4BF3BB25E684E467A78A","019ce7a6-d98d-7e42-be4f-dc7f58e24dcc","019ce7a0-0965-7aa7-a556-174d32a8e773","","null","
            <div class=""stimulus-container"" style=""display: flex; align-items: center; justify-content: center; gap: 30px;"">
                <img src=""images/causal_sequence/coin_causal/coin_causal_4.png"" class=""exp-image"">
                <div style=""font-size: 40px; font-weight: bold; color: green; border: 5px solid green; padding: 25px; border-radius: 15px; background-color: #f0fff0;"">
                    WORTH<br>$1
                </div>
            </div>
            <div class=""question-area""></div>","null","","","","","","",""
"","","","","","html-button-response","139","409969","0.0-139.0","0AB21AEFF33F4BF3BB25E684E467A78A","019ce7a6-d98d-7e42-be4f-dc7f58e24dcc","019ce7a0-0965-7aa7-a556-174d32a8e773","","886","
            <div class=""stimulus-container"" style=""display: flex; align-items: center; justify-content: center; gap: 30px;"">
                <img src=""images/causal_sequence/coin_causal/coin_causal_4.png"" class=""exp-image"">
                <div style=""font-size: 40px; font-weight: bold; color: green; border: 5px solid green; padding: 25px; border-radius: 15px; background-color: #f0fff0;"">
                    WORTH<br>$1
                </div>
            </div>
            <div class=""question-area"">
                <p style=""font-size: 20px; font-weight: bold; margin: 0;"">Was there a person in this image?</p>
            </div>","1","part2_value_learning","","coin_causal","4","","",""
"","","","","","html-keyboard-response","140","419972","0.0-140.0","0AB21AEFF33F4BF3BB25E684E467A78A","019ce7a6-d98d-7e42-be4f-dc7f58e24dcc","019ce7a0-0965-7aa7-a556-174d32a8e773","","null","
            <div class=""stimulus-container"" style=""display: flex; align-items: center; justify-content: center; gap: 30px;"">
                <img src=""images/causal_sequence/museum_causal/museum_causal_3.png"" class=""exp-image"">
                <div style=""font-size: 40px; font-weight: bold; color: green; border: 5px solid green; padding: 25px; border-radius: 15px; background-color: #f0fff0;"">
                    WORTH<br>$1
                </div>
            </div>
            <div class=""question-area""></div>","null","","","","","","",""
"","","","","","html-button-response","141","420818","0.0-141.0","0AB21AEFF33F4BF3BB25E684E467A78A","019ce7a6-d98d-7e42-be4f-dc7f58e24dcc","019ce7a0-0965-7aa7-a556-174d32a8e773","","844","
            <div class=""stimulus-container"" style=""display: flex; align-items: center; justify-content: center; gap: 30px;"">
                <img src=""images/causal_sequence/museum_causal/museum_causal_3.png"" class=""exp-image"">
                <div style=""font-size: 40px; font-weight: bold; color: green; border: 5px solid green; padding: 25px; border-radius: 15px; background-color: #f0fff0;"">
                    WORTH<br>$1
                </div>
            </div>
            <div class=""question-area"">
                <p style=""font-size: 20px; font-weight: bold; margin: 0;"">Was there a person in this image?</p>
            </div>","0","part2_value_learning","","museum_causal","3","","",""
"","","","","","html-keyboard-response","142","430821","0.0-142.0","0AB21AEFF33F4BF3BB25E684E467A78A","019ce7a6-d98d-7e42-be4f-dc7f58e24dcc","019ce7a0-0965-7aa7-a556-174d32a8e773","","null","
            <div class=""stimulus-container"" style=""display: flex; align-items: center; justify-content: center; gap: 30px;"">
                <img src=""images/causal_sequence/package_causal/package_causal_7.png"" class=""exp-image"">
                <div style=""font-size: 40px; font-weight: bold; color: green; border: 5px solid green; padding: 25px; border-radius: 15px; background-color: #f0fff0;"">
                    WORTH<br>$1
                </div>
            </div>
            <div class=""question-area""></div>","null","","","","","","",""
"","","","","","html-button-response","143","431588","0.0-143.0","0AB21AEFF33F4BF3BB25E684E467A78A","019ce7a6-d98d-7e42-be4f-dc7f58e24dcc","019ce7a0-0965-7aa7-a556-174d32a8e773","","765","
            <div class=""stimulus-container"" style=""display: flex; align-items: center; justify-content: center; gap: 30px;"">
                <img src=""images/causal_sequence/package_causal/package_causal_7.png"" class=""exp-image"">
                <div style=""font-size: 40px; font-weight: bold; color: green; border: 5px solid green; padding: 25px; border-radius: 15px; background-color: #f0fff0;"">
                    WORTH<br>$1
                </div>
            </div>
            <div class=""question-area"">
                <p style=""font-size: 20px; font-weight: bold; margin: 0;"">Was there a person in this image?</p>
            </div>","0","part2_value_learning","","package_causal","7","","",""
"","","","","","html-keyboard-response","144","441591","0.0-144.0","0AB21AEFF33F4BF3BB25E684E467A78A","019ce7a6-d98d-7e42-be4f-dc7f58e24dcc","019ce7a0-0965-7aa7-a556-174d32a8e773","","null","
            <div class=""stimulus-container"" style=""display: flex; align-items: center; justify-content: center; gap: 30px;"">
                <img src=""images/causal_sequence/saving_a_cat_causal/saving_a_cat_causal_7.png"" class=""exp-image"">
                <div style=""font-size: 40px; font-weight: bold; color: green; border: 5px solid green; padding: 25px; border-radius: 15px; background-color: #f0fff0;"">
                    WORTH<br>$1
                </div>
            </div>
            <div class=""question-area""></div>","null","","","","","","",""
"","","","","","html-button-response","145","442451","0.0-145.0","0AB21AEFF33F4BF3BB25E684E467A78A","019ce7a6-d98d-7e42-be4f-dc7f58e24dcc","019ce7a0-0965-7aa7-a556-174d32a8e773","","858","
            <div class=""stimulus-container"" style=""display: flex; align-items: center; justify-content: center; gap: 30px;"">
                <img src=""images/causal_sequence/saving_a_cat_causal/saving_a_cat_causal_7.png"" class=""exp-image"">
                <div style=""font-size: 40px; font-weight: bold; color: green; border: 5px solid green; padding: 25px; border-radius: 15px; background-color: #f0fff0;"">
                    WORTH<br>$1
                </div>
            </div>
            <div class=""question-area"">
                <p style=""font-size: 20px; font-weight: bold; margin: 0;"">Was there a person in this image?</p>
            </div>","0","part2_value_learning","","saving_a_cat_causal","7","","",""
"","","","","","instructions","146","443812","0.0-146.0","0AB21AEFF33F4BF3BB25E684E467A78A","019ce7a6-d98d-7e42-be4f-dc7f58e24dcc","019ce7a0-0965-7aa7-a556-174d32a8e773","[{""page_index"":0,""viewing_time"":1360}]","1361","","","","","","","","",""
"","","","","","instructions","147","445048","0.0-147.0","0AB21AEFF33F4BF3BB25E684E467A78A","019ce7a6-d98d-7e42-be4f-dc7f58e24dcc","019ce7a0-0965-7aa7-a556-174d32a8e773","[{""page_index"":0,""viewing_time"":1235}]","1236","","","","","","","","",""
"","","","","","html-keyboard-response","148","455051","0.0-148.0-0.0","0AB21AEFF33F4BF3BB25E684E467A78A","019ce7a6-d98d-7e42-be4f-dc7f58e24dcc","019ce7a0-0965-7aa7-a556-174d32a8e773","","null","
                        <div style=""font-family: Arial; margin-bottom: 20px;""><h3>Which image is more valuable?</h3></div>
                        <div class=""stimulus-container"" style=""display: flex; width: 1100px; justify-content: center; gap: 50px;"">
                            <img src=""images/causal_sequence/coin_causal/coin_causal_6.png"" class=""exp-image"">
                            <img src=""images/causal_sequence/coin_causal/coin_causal_2.png"" class=""exp-image"">
                        </div>","null","","","","","","",""
"","","","","","html-button-response","149","457069","0.0-148.0-1.0","0AB21AEFF33F4BF3BB25E684E467A78A","019ce7a6-d98d-7e42-be4f-dc7f58e24dcc","019ce7a0-0965-7aa7-a556-174d32a8e773","","2016","
                        <div style=""font-family: Arial; margin-bottom: 20px;""><h3>Which image is more valuable?</h3></div>
                        <div class=""stimulus-container"" style=""display: flex; width: 1100px; justify-content: center; gap: 50px;"">
                            <img src=""images/causal_sequence/coin_causal/coin_causal_6.png"" class=""exp-image"">
                            <img src=""images/causal_sequence/coin_causal/coin_causal_2.png"" class=""exp-image"">
                        </div>","1","part3_final_choice","","coin_causal","","4","2","-2"
"","","","","","html-keyboard-response","150","467073","0.0-149.0-0.0","0AB21AEFF33F4BF3BB25E684E467A78A","019ce7a6-d98d-7e42-be4f-dc7f58e24dcc","019ce7a0-0965-7aa7-a556-174d32a8e773","","null","
                        <div style=""font-family: Arial; margin-bottom: 20px;""><h3>Which image is more valuable?</h3></div>
                        <div class=""stimulus-container"" style=""display: flex; width: 1100px; justify-content: center; gap: 50px;"">
                            <img src=""images/causal_sequence/saving_a_cat_causal/saving_a_cat_causal_9.png"" class=""exp-image"">
                            <img src=""images/causal_sequence/saving_a_cat_causal/saving_a_cat_causal_5.png"" class=""exp-image"">
                        </div>","null","","","","","","",""
"","","","","","html-button-response","151","468028","0.0-149.0-1.0","0AB21AEFF33F4BF3BB25E684E467A78A","019ce7a6-d98d-7e42-be4f-dc7f58e24dcc","019ce7a0-0965-7aa7-a556-174d32a8e773","","954","
                        <div style=""font-family: Arial; margin-bottom: 20px;""><h3>Which image is more valuable?</h3></div>
                        <div class=""stimulus-container"" style=""display: flex; width: 1100px; justify-content: center; gap: 50px;"">
                            <img src=""images/causal_sequence/saving_a_cat_causal/saving_a_cat_causal_9.png"" class=""exp-image"">
                            <img src=""images/causal_sequence/saving_a_cat_causal/saving_a_cat_causal_5.png"" class=""exp-image"">
                        </div>","1","part3_final_choice","","saving_a_cat_causal","","7","5","-2"
"","","","","","html-keyboard-response","152","478041","0.0-150.0-0.0","0AB21AEFF33F4BF3BB25E684E467A78A","019ce7a6-d98d-7e42-be4f-dc7f58e24dcc","019ce7a0-0965-7aa7-a556-174d32a8e773","","null","
                        <div style=""font-family: Arial; margin-bottom: 20px;""><h3>Which image is more valuable?</h3></div>
                        <div class=""stimulus-container"" style=""display: flex; width: 1100px; justify-content: center; gap: 50px;"">
                            <img src=""images/causal_sequence/dog_causal/dog_causal_4.png"" class=""exp-image"">
                            <img src=""images/causal_sequence/dog_causal/dog_causal_8.png"" class=""exp-image"">
                        </div>","null","","","","","","",""
"","","","","","html-button-response","153","480154","0.0-150.0-1.0","0AB21AEFF33F4BF3BB25E684E467A78A","019ce7a6-d98d-7e42-be4f-dc7f58e24dcc","019ce7a0-0965-7aa7-a556-174d32a8e773","","2107","
                        <div style=""font-family: Arial; margin-bottom: 20px;""><h3>Which image is more valuable?</h3></div>
                        <div class=""stimulus-container"" style=""display: flex; width: 1100px; justify-content: center; gap: 50px;"">
                            <img src=""images/causal_sequence/dog_causal/dog_causal_4.png"" class=""exp-image"">
                            <img src=""images/causal_sequence/dog_causal/dog_causal_8.png"" class=""exp-image"">
                        </div>","0","part3_final_choice","","dog_causal","","6","4","-2"
"","","","","","html-keyboard-response","154","490156","0.0-151.0-0.0","0AB21AEFF33F4BF3BB25E684E467A78A","019ce7a6-d98d-7e42-be4f-dc7f58e24dcc","019ce7a0-0965-7aa7-a556-174d32a8e773","","null","
                        <div style=""font-family: Arial; margin-bottom: 20px;""><h3>Which image is more valuable?</h3></div>
                        <div class=""stimulus-container"" style=""display: flex; width: 1100px; justify-content: center; gap: 50px;"">
                            <img src=""images/causal_sequence/museum_causal/museum_causal_5.png"" class=""exp-image"">
                            <img src=""images/causal_sequence/museum_causal/museum_causal_1.png"" class=""exp-image"">
                        </div>","null","","","","","","",""
"","","","","","html-button-response","155","490960","0.0-151.0-1.0","0AB21AEFF33F4BF3BB25E684E467A78A","019ce7a6-d98d-7e42-be4f-dc7f58e24dcc","019ce7a0-0965-7aa7-a556-174d32a8e773","","802","
                        <div style=""font-family: Arial; margin-bottom: 20px;""><h3>Which image is more valuable?</h3></div>
                        <div class=""stimulus-container"" style=""display: flex; width: 1100px; justify-content: center; gap: 50px;"">
                            <img src=""images/causal_sequence/museum_causal/museum_causal_5.png"" class=""exp-image"">
                            <img src=""images/causal_sequence/museum_causal/museum_causal_1.png"" class=""exp-image"">
                        </div>","1","part3_final_choice","","museum_causal","","3","1","-2"
"","","","","","html-keyboard-response","156","500963","0.0-152.0-0.0","0AB21AEFF33F4BF3BB25E684E467A78A","019ce7a6-d98d-7e42-be4f-dc7f58e24dcc","019ce7a0-0965-7aa7-a556-174d32a8e773","","null","
                        <div style=""font-family: Arial; margin-bottom: 20px;""><h3>Which image is more valuable?</h3></div>
                        <div class=""stimulus-container"" style=""display: flex; width: 1100px; justify-content: center; gap: 50px;"">
                            <img src=""images/causal_sequence/package_causal/package_causal_5.png"" class=""exp-image"">
                            <img src=""images/causal_sequence/package_causal/package_causal_9.png"" class=""exp-image"">
                        </div>","null","","","","","","",""
"","","","","","html-button-response","157","501767","0.0-152.0-1.0","0AB21AEFF33F4BF3BB25E684E467A78A","019ce7a6-d98d-7e42-be4f-dc7f58e24dcc","019ce7a0-0965-7aa7-a556-174d32a8e773","","803","
                        <div style=""font-family: Arial; margin-bottom: 20px;""><h3>Which image is more valuable?</h3></div>
                        <div class=""stimulus-container"" style=""display: flex; width: 1100px; justify-content: center; gap: 50px;"">
                            <img src=""images/causal_sequence/package_causal/package_causal_5.png"" class=""exp-image"">
                            <img src=""images/causal_sequence/package_causal/package_causal_9.png"" class=""exp-image"">
                        </div>","1","part3_final_choice","","package_causal","","7","9","2"
"","","","","","html-keyboard-response","158","511770","0.0-153.0-0.0","0AB21AEFF33F4BF3BB25E684E467A78A","019ce7a6-d98d-7e42-be4f-dc7f58e24dcc","019ce7a0-0965-7aa7-a556-174d32a8e773","","null","
                        <div style=""font-family: Arial; margin-bottom: 20px;""><h3>Which image is more valuable?</h3></div>
                        <div class=""stimulus-container"" style=""display: flex; width: 1100px; justify-content: center; gap: 50px;"">
                            <img src=""images/causal_sequence/the_performance_causal/the_performance_causal_5.png"" class=""exp-image"">
                            <img src=""images/causal_sequence/the_performance_causal/the_performance_causal_9.png"" class=""exp-image"">
                        </div>","null","","","","","","",""
"","","","","","html-button-response","159","512419","0.0-153.0-1.0","0AB21AEFF33F4BF3BB25E684E467A78A","019ce7a6-d98d-7e42-be4f-dc7f58e24dcc","019ce7a0-0965-7aa7-a556-174d32a8e773","","648","
                        <div style=""font-family: Arial; margin-bottom: 20px;""><h3>Which image is more valuable?</h3></div>
                        <div class=""stimulus-container"" style=""display: flex; width: 1100px; justify-content: center; gap: 50px;"">
                            <img src=""images/causal_sequence/the_performance_causal/the_performance_causal_5.png"" class=""exp-image"">
                            <img src=""images/causal_sequence/the_performance_causal/the_performance_causal_9.png"" class=""exp-image"">
                        </div>","0","part3_final_choice","","the_performance_causal","","7","5","-2"
"","","","","","survey-text","160","529791","0.0-154.0","0AB21AEFF33F4BF3BB25E684E467A78A","019ce7a6-d98d-7e42-be4f-dc7f58e24dcc","019ce7a0-0965-7aa7-a556-174d32a8e773","","17365","","{""gender"":""MALE"",""age"":""27"",""decision_strategy"":""How pretty the image was."",""consistency_check"":""Same logic.""}","demographics_and_strategy","","","","","",""
"","","","","","instructions","161","533184","0.0-155.0","0AB21AEFF33F4BF3BB25E684E467A78A","019ce7a6-d98d-7e42-be4f-dc7f58e24dcc","019ce7a0-0965-7aa7-a556-174d32a8e773","[{""page_index"":0,""viewing_time"":3393}]","3393","","","","","","","","",""
