"success","timeout","failed_images","failed_audio","failed_video","trial_type","trial_index","time_elapsed","internal_node_id","subject_id","study_id","session_id","view_history","rt","stimulus","response","task","image_index","folder","sequence_type","presentation_order","valuable_image_index","reward_type","target_X","l_dist","r_dist","chosen_image_index","selected_after_X","correct_choice"
"true","false","[]","[]","[]","preload","0","6385","0.0-0.0","845B57C90A934B43B5D8BB36F755CDF9","019d6649-9fc1-77c5-b4de-454b1db2ddb6","019d6630-2071-75cb-8026-6699844a2719","","","","","","","","","","","","","","","","",""
"","","","","","instructions","1","8723","0.0-1.0","845B57C90A934B43B5D8BB36F755CDF9","019d6649-9fc1-77c5-b4de-454b1db2ddb6","019d6630-2071-75cb-8026-6699844a2719","[{""page_index"":0,""viewing_time"":2336}]","2336","","","","","","","","","","","","","","",""
"","","","","","instructions","2","13422","0.0-2.0","845B57C90A934B43B5D8BB36F755CDF9","019d6649-9fc1-77c5-b4de-454b1db2ddb6","019d6630-2071-75cb-8026-6699844a2719","[{""page_index"":0,""viewing_time"":4699}]","4699","","","","","","","","","","","","","","",""
"true","","","","","fullscreen","3","24910","0.0-3.0","845B57C90A934B43B5D8BB36F755CDF9","019d6649-9fc1-77c5-b4de-454b1db2ddb6","019d6630-2071-75cb-8026-6699844a2719","","10475","","","","","","","","","","","","","","",""
"","","","","","instructions","4","52997","0.0-4.0","845B57C90A934B43B5D8BB36F755CDF9","019d6649-9fc1-77c5-b4de-454b1db2ddb6","019d6630-2071-75cb-8026-6699844a2719","[{""page_index"":0,""viewing_time"":28086}]","28086","","","","","","","","","","","","","","",""
"","","","","","instructions","5","71048","0.0-5.0","845B57C90A934B43B5D8BB36F755CDF9","019d6649-9fc1-77c5-b4de-454b1db2ddb6","019d6630-2071-75cb-8026-6699844a2719","[{""page_index"":0,""viewing_time"":18049}]","18050","","","","","","","","","","","","","","",""
"","","","","","html-keyboard-response","6","75050","0.0-6.0","845B57C90A934B43B5D8BB36F755CDF9","019d6649-9fc1-77c5-b4de-454b1db2ddb6","019d6630-2071-75cb-8026-6699844a2719","","null","
                <div class=""stimulus-container"">
                    <img src=""images/instructions/movie_1.png"" class=""exp-image"">
                    <div class=""question-area""></div> 
                </div>","null","","","","","","","","","","","","",""
"","","","","","html-button-response","7","76105","0.0-7.0","845B57C90A934B43B5D8BB36F755CDF9","019d6649-9fc1-77c5-b4de-454b1db2ddb6","019d6630-2071-75cb-8026-6699844a2719","","1052","
                <div class=""stimulus-container"">
                    <img src=""images/instructions/movie_1.png"" class=""exp-image"">
                    <div class=""question-area"">
                        <p style=""font-size: 20px; font-weight: bold; margin: 0;"">Was there a person in this image?</p>
                    </div>
                </div>","0","example_question","1","","","","","","","","","","",""
"","","","","","html-keyboard-response","8","80107","0.0-8.0","845B57C90A934B43B5D8BB36F755CDF9","019d6649-9fc1-77c5-b4de-454b1db2ddb6","019d6630-2071-75cb-8026-6699844a2719","","null","
                <div class=""stimulus-container"">
                    <img src=""images/instructions/movie_2.png"" class=""exp-image"">
                    <div class=""question-area""></div> 
                </div>","null","","","","","","","","","","","","",""
"","","","","","html-button-response","9","81330","0.0-9.0","845B57C90A934B43B5D8BB36F755CDF9","019d6649-9fc1-77c5-b4de-454b1db2ddb6","019d6630-2071-75cb-8026-6699844a2719","","1222","
                <div class=""stimulus-container"">
                    <img src=""images/instructions/movie_2.png"" class=""exp-image"">
                    <div class=""question-area"">
                        <p style=""font-size: 20px; font-weight: bold; margin: 0;"">Was there a person in this image?</p>
                    </div>
                </div>","0","example_question","2","","","","","","","","","","",""
"","","","","","html-keyboard-response","10","85331","0.0-10.0","845B57C90A934B43B5D8BB36F755CDF9","019d6649-9fc1-77c5-b4de-454b1db2ddb6","019d6630-2071-75cb-8026-6699844a2719","","null","
                <div class=""stimulus-container"">
                    <img src=""images/instructions/movie_3.png"" class=""exp-image"">
                    <div class=""question-area""></div> 
                </div>","null","","","","","","","","","","","","",""
"","","","","","html-button-response","11","85877","0.0-11.0","845B57C90A934B43B5D8BB36F755CDF9","019d6649-9fc1-77c5-b4de-454b1db2ddb6","019d6630-2071-75cb-8026-6699844a2719","","545","
                <div class=""stimulus-container"">
                    <img src=""images/instructions/movie_3.png"" class=""exp-image"">
                    <div class=""question-area"">
                        <p style=""font-size: 20px; font-weight: bold; margin: 0;"">Was there a person in this image?</p>
                    </div>
                </div>","0","example_question","3","","","","","","","","","","",""
"","","","","","html-keyboard-response","12","89880","0.0-12.0","845B57C90A934B43B5D8BB36F755CDF9","019d6649-9fc1-77c5-b4de-454b1db2ddb6","019d6630-2071-75cb-8026-6699844a2719","","null","
                <div class=""stimulus-container"">
                    <img src=""images/instructions/movie_4.png"" class=""exp-image"">
                    <div class=""question-area""></div> 
                </div>","null","","","","","","","","","","","","",""
"","","","","","html-button-response","13","90206","0.0-13.0","845B57C90A934B43B5D8BB36F755CDF9","019d6649-9fc1-77c5-b4de-454b1db2ddb6","019d6630-2071-75cb-8026-6699844a2719","","326","
                <div class=""stimulus-container"">
                    <img src=""images/instructions/movie_4.png"" class=""exp-image"">
                    <div class=""question-area"">
                        <p style=""font-size: 20px; font-weight: bold; margin: 0;"">Was there a person in this image?</p>
                    </div>
                </div>","0","example_question","4","","","","","","","","","","",""
"","","","","","instructions","14","94114","0.0-14.0","845B57C90A934B43B5D8BB36F755CDF9","019d6649-9fc1-77c5-b4de-454b1db2ddb6","019d6630-2071-75cb-8026-6699844a2719","[{""page_index"":0,""viewing_time"":3907}]","3907","","","","","","","","","","","","","","",""
"","","","","","instructions","15","106525","0.0-15.0","845B57C90A934B43B5D8BB36F755CDF9","019d6649-9fc1-77c5-b4de-454b1db2ddb6","019d6630-2071-75cb-8026-6699844a2719","[{""page_index"":0,""viewing_time"":12411}]","12411","","","","","","","","","","","","","","",""
"","","","","","html-keyboard-response","16","111526","0.0-16.0","845B57C90A934B43B5D8BB36F755CDF9","019d6649-9fc1-77c5-b4de-454b1db2ddb6","019d6630-2071-75cb-8026-6699844a2719","","null","<div style=""background-color: white; width: 100vw; height: 100vh;""></div>","null","","","","","","","","","","","","",""
"","","","","","html-keyboard-response","17","116528","0.0-17.0","845B57C90A934B43B5D8BB36F755CDF9","019d6649-9fc1-77c5-b4de-454b1db2ddb6","019d6630-2071-75cb-8026-6699844a2719","","null","
                <div class=""stimulus-container"">
                    <img src=""images/semantic_sequence/physical_activity_semantic/physical_activity_semantic_1.png"" class=""exp-image"">
                    <div class=""question-area""></div> 
                </div>","null","","","","","","","","","","","","",""
"","","","","","html-button-response","18","117243","0.0-18.0","845B57C90A934B43B5D8BB36F755CDF9","019d6649-9fc1-77c5-b4de-454b1db2ddb6","019d6630-2071-75cb-8026-6699844a2719","","713","
                <div class=""stimulus-container"">
                    <img src=""images/semantic_sequence/physical_activity_semantic/physical_activity_semantic_1.png"" class=""exp-image"">
                    <div class=""question-area"">
                        <p style=""font-size: 20px; font-weight: bold; margin: 0;"">Is there a person in this image?</p>
                    </div>
                </div>","0","main_experiment_trial","1","physical_activity_semantic","semantic_sequence","chronological","","","","","","","",""
"","","","","","html-keyboard-response","19","122244","0.0-19.0","845B57C90A934B43B5D8BB36F755CDF9","019d6649-9fc1-77c5-b4de-454b1db2ddb6","019d6630-2071-75cb-8026-6699844a2719","","null","
                <div class=""stimulus-container"">
                    <img src=""images/semantic_sequence/physical_activity_semantic/physical_activity_semantic_2.png"" class=""exp-image"">
                    <div class=""question-area""></div> 
                </div>","null","","","","","","","","","","","","",""
"","","","","","html-button-response","20","123148","0.0-20.0","845B57C90A934B43B5D8BB36F755CDF9","019d6649-9fc1-77c5-b4de-454b1db2ddb6","019d6630-2071-75cb-8026-6699844a2719","","901","
                <div class=""stimulus-container"">
                    <img src=""images/semantic_sequence/physical_activity_semantic/physical_activity_semantic_2.png"" class=""exp-image"">
                    <div class=""question-area"">
                        <p style=""font-size: 20px; font-weight: bold; margin: 0;"">Is there a person in this image?</p>
                    </div>
                </div>","0","main_experiment_trial","2","physical_activity_semantic","semantic_sequence","chronological","","","","","","","",""
"","","","","","html-keyboard-response","21","128150","0.0-21.0","845B57C90A934B43B5D8BB36F755CDF9","019d6649-9fc1-77c5-b4de-454b1db2ddb6","019d6630-2071-75cb-8026-6699844a2719","","null","
                <div class=""stimulus-container"">
                    <img src=""images/semantic_sequence/physical_activity_semantic/physical_activity_semantic_3.png"" class=""exp-image"">
                    <div class=""question-area""></div> 
                </div>","null","","","","","","","","","","","","",""
"","","","","","html-button-response","22","128761","0.0-22.0","845B57C90A934B43B5D8BB36F755CDF9","019d6649-9fc1-77c5-b4de-454b1db2ddb6","019d6630-2071-75cb-8026-6699844a2719","","611","
                <div class=""stimulus-container"">
                    <img src=""images/semantic_sequence/physical_activity_semantic/physical_activity_semantic_3.png"" class=""exp-image"">
                    <div class=""question-area"">
                        <p style=""font-size: 20px; font-weight: bold; margin: 0;"">Is there a person in this image?</p>
                    </div>
                </div>","0","main_experiment_trial","3","physical_activity_semantic","semantic_sequence","chronological","","","","","","","",""
"","","","","","html-keyboard-response","23","133763","0.0-23.0","845B57C90A934B43B5D8BB36F755CDF9","019d6649-9fc1-77c5-b4de-454b1db2ddb6","019d6630-2071-75cb-8026-6699844a2719","","null","
                <div class=""stimulus-container"">
                    <img src=""images/semantic_sequence/physical_activity_semantic/physical_activity_semantic_4.png"" class=""exp-image"">
                    <div class=""question-area""></div> 
                </div>","null","","","","","","","","","","","","",""
"","","","","","html-button-response","24","134318","0.0-24.0","845B57C90A934B43B5D8BB36F755CDF9","019d6649-9fc1-77c5-b4de-454b1db2ddb6","019d6630-2071-75cb-8026-6699844a2719","","554","
                <div class=""stimulus-container"">
                    <img src=""images/semantic_sequence/physical_activity_semantic/physical_activity_semantic_4.png"" class=""exp-image"">
                    <div class=""question-area"">
                        <p style=""font-size: 20px; font-weight: bold; margin: 0;"">Is there a person in this image?</p>
                    </div>
                </div>","0","main_experiment_trial","4","physical_activity_semantic","semantic_sequence","chronological","","","","","","","",""
"","","","","","html-keyboard-response","25","139320","0.0-25.0","845B57C90A934B43B5D8BB36F755CDF9","019d6649-9fc1-77c5-b4de-454b1db2ddb6","019d6630-2071-75cb-8026-6699844a2719","","null","
                <div class=""stimulus-container"">
                    <img src=""images/semantic_sequence/physical_activity_semantic/physical_activity_semantic_5.png"" class=""exp-image"">
                    <div class=""question-area""></div> 
                </div>","null","","","","","","","","","","","","",""
"","","","","","html-button-response","26","140004","0.0-26.0","845B57C90A934B43B5D8BB36F755CDF9","019d6649-9fc1-77c5-b4de-454b1db2ddb6","019d6630-2071-75cb-8026-6699844a2719","","683","
                <div class=""stimulus-container"">
                    <img src=""images/semantic_sequence/physical_activity_semantic/physical_activity_semantic_5.png"" class=""exp-image"">
                    <div class=""question-area"">
                        <p style=""font-size: 20px; font-weight: bold; margin: 0;"">Is there a person in this image?</p>
                    </div>
                </div>","0","main_experiment_trial","5","physical_activity_semantic","semantic_sequence","chronological","","","","","","","",""
"","","","","","html-keyboard-response","27","145005","0.0-27.0","845B57C90A934B43B5D8BB36F755CDF9","019d6649-9fc1-77c5-b4de-454b1db2ddb6","019d6630-2071-75cb-8026-6699844a2719","","null","
                <div class=""stimulus-container"">
                    <img src=""images/semantic_sequence/physical_activity_semantic/physical_activity_semantic_6.png"" class=""exp-image"">
                    <div class=""question-area""></div> 
                </div>","null","","","","","","","","","","","","",""
"","","","","","html-button-response","28","146183","0.0-28.0","845B57C90A934B43B5D8BB36F755CDF9","019d6649-9fc1-77c5-b4de-454b1db2ddb6","019d6630-2071-75cb-8026-6699844a2719","","1177","
                <div class=""stimulus-container"">
                    <img src=""images/semantic_sequence/physical_activity_semantic/physical_activity_semantic_6.png"" class=""exp-image"">
                    <div class=""question-area"">
                        <p style=""font-size: 20px; font-weight: bold; margin: 0;"">Is there a person in this image?</p>
                    </div>
                </div>","0","main_experiment_trial","6","physical_activity_semantic","semantic_sequence","chronological","","","","","","","",""
"","","","","","html-keyboard-response","29","151186","0.0-29.0","845B57C90A934B43B5D8BB36F755CDF9","019d6649-9fc1-77c5-b4de-454b1db2ddb6","019d6630-2071-75cb-8026-6699844a2719","","null","
                <div class=""stimulus-container"">
                    <img src=""images/semantic_sequence/physical_activity_semantic/physical_activity_semantic_7.png"" class=""exp-image"">
                    <div class=""question-area""></div> 
                </div>","null","","","","","","","","","","","","",""
"","","","","","html-button-response","30","151923","0.0-30.0","845B57C90A934B43B5D8BB36F755CDF9","019d6649-9fc1-77c5-b4de-454b1db2ddb6","019d6630-2071-75cb-8026-6699844a2719","","737","
                <div class=""stimulus-container"">
                    <img src=""images/semantic_sequence/physical_activity_semantic/physical_activity_semantic_7.png"" class=""exp-image"">
                    <div class=""question-area"">
                        <p style=""font-size: 20px; font-weight: bold; margin: 0;"">Is there a person in this image?</p>
                    </div>
                </div>","0","main_experiment_trial","7","physical_activity_semantic","semantic_sequence","chronological","","","","","","","",""
"","","","","","html-keyboard-response","31","156925","0.0-31.0","845B57C90A934B43B5D8BB36F755CDF9","019d6649-9fc1-77c5-b4de-454b1db2ddb6","019d6630-2071-75cb-8026-6699844a2719","","null","
                <div class=""stimulus-container"">
                    <img src=""images/semantic_sequence/physical_activity_semantic/physical_activity_semantic_8.png"" class=""exp-image"">
                    <div class=""question-area""></div> 
                </div>","null","","","","","","","","","","","","",""
"","","","","","html-button-response","32","157810","0.0-32.0","845B57C90A934B43B5D8BB36F755CDF9","019d6649-9fc1-77c5-b4de-454b1db2ddb6","019d6630-2071-75cb-8026-6699844a2719","","884","
                <div class=""stimulus-container"">
                    <img src=""images/semantic_sequence/physical_activity_semantic/physical_activity_semantic_8.png"" class=""exp-image"">
                    <div class=""question-area"">
                        <p style=""font-size: 20px; font-weight: bold; margin: 0;"">Is there a person in this image?</p>
                    </div>
                </div>","0","main_experiment_trial","8","physical_activity_semantic","semantic_sequence","chronological","","","","","","","",""
"","","","","","html-keyboard-response","33","162813","0.0-33.0","845B57C90A934B43B5D8BB36F755CDF9","019d6649-9fc1-77c5-b4de-454b1db2ddb6","019d6630-2071-75cb-8026-6699844a2719","","null","
                <div class=""stimulus-container"">
                    <img src=""images/semantic_sequence/physical_activity_semantic/physical_activity_semantic_9.png"" class=""exp-image"">
                    <div class=""question-area""></div> 
                </div>","null","","","","","","","","","","","","",""
"","","","","","html-button-response","34","163936","0.0-34.0","845B57C90A934B43B5D8BB36F755CDF9","019d6649-9fc1-77c5-b4de-454b1db2ddb6","019d6630-2071-75cb-8026-6699844a2719","","1122","
                <div class=""stimulus-container"">
                    <img src=""images/semantic_sequence/physical_activity_semantic/physical_activity_semantic_9.png"" class=""exp-image"">
                    <div class=""question-area"">
                        <p style=""font-size: 20px; font-weight: bold; margin: 0;"">Is there a person in this image?</p>
                    </div>
                </div>","0","main_experiment_trial","9","physical_activity_semantic","semantic_sequence","chronological","","","","","","","",""
"","","","","","html-keyboard-response","35","168937","0.0-35.0","845B57C90A934B43B5D8BB36F755CDF9","019d6649-9fc1-77c5-b4de-454b1db2ddb6","019d6630-2071-75cb-8026-6699844a2719","","null","
                <div class=""stimulus-container"">
                    <img src=""images/semantic_sequence/physical_activity_semantic/physical_activity_semantic_ten.png"" class=""exp-image"">
                    <div class=""question-area""></div> 
                </div>","null","","","","","","","","","","","","",""
"","","","","","html-button-response","36","169824","0.0-36.0","845B57C90A934B43B5D8BB36F755CDF9","019d6649-9fc1-77c5-b4de-454b1db2ddb6","019d6630-2071-75cb-8026-6699844a2719","","886","
                <div class=""stimulus-container"">
                    <img src=""images/semantic_sequence/physical_activity_semantic/physical_activity_semantic_ten.png"" class=""exp-image"">
                    <div class=""question-area"">
                        <p style=""font-size: 20px; font-weight: bold; margin: 0;"">Is there a person in this image?</p>
                    </div>
                </div>","0","main_experiment_trial","ten","physical_activity_semantic","semantic_sequence","chronological","","","","","","","",""
"","","","","","html-keyboard-response","37","174826","0.0-37.0","845B57C90A934B43B5D8BB36F755CDF9","019d6649-9fc1-77c5-b4de-454b1db2ddb6","019d6630-2071-75cb-8026-6699844a2719","","null","<div style=""background-color: white; width: 100vw; height: 100vh;""></div>","null","","","","","","","","","","","","",""
"","","","","","html-keyboard-response","38","179828","0.0-38.0","845B57C90A934B43B5D8BB36F755CDF9","019d6649-9fc1-77c5-b4de-454b1db2ddb6","019d6630-2071-75cb-8026-6699844a2719","","null","
                <div class=""stimulus-container"">
                    <img src=""images/schematic_sequence/dinner_party_scheme/dinner_party_scheme_1.png"" class=""exp-image"">
                    <div class=""question-area""></div> 
                </div>","null","","","","","","","","","","","","",""
"","","","","","html-button-response","39","180731","0.0-39.0","845B57C90A934B43B5D8BB36F755CDF9","019d6649-9fc1-77c5-b4de-454b1db2ddb6","019d6630-2071-75cb-8026-6699844a2719","","901","
                <div class=""stimulus-container"">
                    <img src=""images/schematic_sequence/dinner_party_scheme/dinner_party_scheme_1.png"" class=""exp-image"">
                    <div class=""question-area"">
                        <p style=""font-size: 20px; font-weight: bold; margin: 0;"">Is there a person in this image?</p>
                    </div>
                </div>","0","main_experiment_trial","1","dinner_party_scheme","schematic_sequence","chronological","","","","","","","",""
"","","","","","html-keyboard-response","40","185732","0.0-40.0","845B57C90A934B43B5D8BB36F755CDF9","019d6649-9fc1-77c5-b4de-454b1db2ddb6","019d6630-2071-75cb-8026-6699844a2719","","null","
                <div class=""stimulus-container"">
                    <img src=""images/schematic_sequence/dinner_party_scheme/dinner_party_scheme_2.png"" class=""exp-image"">
                    <div class=""question-area""></div> 
                </div>","null","","","","","","","","","","","","",""
"","","","","","html-button-response","41","186347","0.0-41.0","845B57C90A934B43B5D8BB36F755CDF9","019d6649-9fc1-77c5-b4de-454b1db2ddb6","019d6630-2071-75cb-8026-6699844a2719","","614","
                <div class=""stimulus-container"">
                    <img src=""images/schematic_sequence/dinner_party_scheme/dinner_party_scheme_2.png"" class=""exp-image"">
                    <div class=""question-area"">
                        <p style=""font-size: 20px; font-weight: bold; margin: 0;"">Is there a person in this image?</p>
                    </div>
                </div>","0","main_experiment_trial","2","dinner_party_scheme","schematic_sequence","chronological","","","","","","","",""
"","","","","","html-keyboard-response","42","191349","0.0-42.0","845B57C90A934B43B5D8BB36F755CDF9","019d6649-9fc1-77c5-b4de-454b1db2ddb6","019d6630-2071-75cb-8026-6699844a2719","","null","
                <div class=""stimulus-container"">
                    <img src=""images/schematic_sequence/dinner_party_scheme/dinner_party_scheme_3.png"" class=""exp-image"">
                    <div class=""question-area""></div> 
                </div>","null","","","","","","","","","","","","",""
"","","","","","html-button-response","43","191983","0.0-43.0","845B57C90A934B43B5D8BB36F755CDF9","019d6649-9fc1-77c5-b4de-454b1db2ddb6","019d6630-2071-75cb-8026-6699844a2719","","633","
                <div class=""stimulus-container"">
                    <img src=""images/schematic_sequence/dinner_party_scheme/dinner_party_scheme_3.png"" class=""exp-image"">
                    <div class=""question-area"">
                        <p style=""font-size: 20px; font-weight: bold; margin: 0;"">Is there a person in this image?</p>
                    </div>
                </div>","0","main_experiment_trial","3","dinner_party_scheme","schematic_sequence","chronological","","","","","","","",""
"","","","","","html-keyboard-response","44","196985","0.0-44.0","845B57C90A934B43B5D8BB36F755CDF9","019d6649-9fc1-77c5-b4de-454b1db2ddb6","019d6630-2071-75cb-8026-6699844a2719","","null","
                <div class=""stimulus-container"">
                    <img src=""images/schematic_sequence/dinner_party_scheme/dinner_party_scheme_4.png"" class=""exp-image"">
                    <div class=""question-area""></div> 
                </div>","null","","","","","","","","","","","","",""
"","","","","","html-button-response","45","197632","0.0-45.0","845B57C90A934B43B5D8BB36F755CDF9","019d6649-9fc1-77c5-b4de-454b1db2ddb6","019d6630-2071-75cb-8026-6699844a2719","","645","
                <div class=""stimulus-container"">
                    <img src=""images/schematic_sequence/dinner_party_scheme/dinner_party_scheme_4.png"" class=""exp-image"">
                    <div class=""question-area"">
                        <p style=""font-size: 20px; font-weight: bold; margin: 0;"">Is there a person in this image?</p>
                    </div>
                </div>","0","main_experiment_trial","4","dinner_party_scheme","schematic_sequence","chronological","","","","","","","",""
"","","","","","html-keyboard-response","46","202634","0.0-46.0","845B57C90A934B43B5D8BB36F755CDF9","019d6649-9fc1-77c5-b4de-454b1db2ddb6","019d6630-2071-75cb-8026-6699844a2719","","null","
                <div class=""stimulus-container"">
                    <img src=""images/schematic_sequence/dinner_party_scheme/dinner_party_scheme_5.png"" class=""exp-image"">
                    <div class=""question-area""></div> 
                </div>","null","","","","","","","","","","","","",""
"","","","","","html-button-response","47","203074","0.0-47.0","845B57C90A934B43B5D8BB36F755CDF9","019d6649-9fc1-77c5-b4de-454b1db2ddb6","019d6630-2071-75cb-8026-6699844a2719","","438","
                <div class=""stimulus-container"">
                    <img src=""images/schematic_sequence/dinner_party_scheme/dinner_party_scheme_5.png"" class=""exp-image"">
                    <div class=""question-area"">
                        <p style=""font-size: 20px; font-weight: bold; margin: 0;"">Is there a person in this image?</p>
                    </div>
                </div>","0","main_experiment_trial","5","dinner_party_scheme","schematic_sequence","chronological","","","","","","","",""
"","","","","","html-keyboard-response","48","208076","0.0-48.0","845B57C90A934B43B5D8BB36F755CDF9","019d6649-9fc1-77c5-b4de-454b1db2ddb6","019d6630-2071-75cb-8026-6699844a2719","","null","
                <div class=""stimulus-container"">
                    <img src=""images/schematic_sequence/dinner_party_scheme/dinner_party_scheme_6.png"" class=""exp-image"">
                    <div class=""question-area""></div> 
                </div>","null","","","","","","","","","","","","",""
"","","","","","html-button-response","49","208461","0.0-49.0","845B57C90A934B43B5D8BB36F755CDF9","019d6649-9fc1-77c5-b4de-454b1db2ddb6","019d6630-2071-75cb-8026-6699844a2719","","384","
                <div class=""stimulus-container"">
                    <img src=""images/schematic_sequence/dinner_party_scheme/dinner_party_scheme_6.png"" class=""exp-image"">
                    <div class=""question-area"">
                        <p style=""font-size: 20px; font-weight: bold; margin: 0;"">Is there a person in this image?</p>
                    </div>
                </div>","0","main_experiment_trial","6","dinner_party_scheme","schematic_sequence","chronological","","","","","","","",""
"","","","","","html-keyboard-response","50","213463","0.0-50.0","845B57C90A934B43B5D8BB36F755CDF9","019d6649-9fc1-77c5-b4de-454b1db2ddb6","019d6630-2071-75cb-8026-6699844a2719","","null","
                <div class=""stimulus-container"">
                    <img src=""images/schematic_sequence/dinner_party_scheme/dinner_party_scheme_7.png"" class=""exp-image"">
                    <div class=""question-area""></div> 
                </div>","null","","","","","","","","","","","","",""
"","","","","","html-button-response","51","213853","0.0-51.0","845B57C90A934B43B5D8BB36F755CDF9","019d6649-9fc1-77c5-b4de-454b1db2ddb6","019d6630-2071-75cb-8026-6699844a2719","","389","
                <div class=""stimulus-container"">
                    <img src=""images/schematic_sequence/dinner_party_scheme/dinner_party_scheme_7.png"" class=""exp-image"">
                    <div class=""question-area"">
                        <p style=""font-size: 20px; font-weight: bold; margin: 0;"">Is there a person in this image?</p>
                    </div>
                </div>","0","main_experiment_trial","7","dinner_party_scheme","schematic_sequence","chronological","","","","","","","",""
"","","","","","html-keyboard-response","52","218854","0.0-52.0","845B57C90A934B43B5D8BB36F755CDF9","019d6649-9fc1-77c5-b4de-454b1db2ddb6","019d6630-2071-75cb-8026-6699844a2719","","null","
                <div class=""stimulus-container"">
                    <img src=""images/schematic_sequence/dinner_party_scheme/dinner_party_scheme_8.png"" class=""exp-image"">
                    <div class=""question-area""></div> 
                </div>","null","","","","","","","","","","","","",""
"","","","","","html-button-response","53","219245","0.0-53.0","845B57C90A934B43B5D8BB36F755CDF9","019d6649-9fc1-77c5-b4de-454b1db2ddb6","019d6630-2071-75cb-8026-6699844a2719","","390","
                <div class=""stimulus-container"">
                    <img src=""images/schematic_sequence/dinner_party_scheme/dinner_party_scheme_8.png"" class=""exp-image"">
                    <div class=""question-area"">
                        <p style=""font-size: 20px; font-weight: bold; margin: 0;"">Is there a person in this image?</p>
                    </div>
                </div>","0","main_experiment_trial","8","dinner_party_scheme","schematic_sequence","chronological","","","","","","","",""
"","","","","","html-keyboard-response","54","224247","0.0-54.0","845B57C90A934B43B5D8BB36F755CDF9","019d6649-9fc1-77c5-b4de-454b1db2ddb6","019d6630-2071-75cb-8026-6699844a2719","","null","
                <div class=""stimulus-container"">
                    <img src=""images/schematic_sequence/dinner_party_scheme/dinner_party_scheme_9.png"" class=""exp-image"">
                    <div class=""question-area""></div> 
                </div>","null","","","","","","","","","","","","",""
"","","","","","html-button-response","55","224671","0.0-55.0","845B57C90A934B43B5D8BB36F755CDF9","019d6649-9fc1-77c5-b4de-454b1db2ddb6","019d6630-2071-75cb-8026-6699844a2719","","423","
                <div class=""stimulus-container"">
                    <img src=""images/schematic_sequence/dinner_party_scheme/dinner_party_scheme_9.png"" class=""exp-image"">
                    <div class=""question-area"">
                        <p style=""font-size: 20px; font-weight: bold; margin: 0;"">Is there a person in this image?</p>
                    </div>
                </div>","0","main_experiment_trial","9","dinner_party_scheme","schematic_sequence","chronological","","","","","","","",""
"","","","","","html-keyboard-response","56","229673","0.0-56.0","845B57C90A934B43B5D8BB36F755CDF9","019d6649-9fc1-77c5-b4de-454b1db2ddb6","019d6630-2071-75cb-8026-6699844a2719","","null","
                <div class=""stimulus-container"">
                    <img src=""images/schematic_sequence/dinner_party_scheme/dinner_party_scheme_ten.png"" class=""exp-image"">
                    <div class=""question-area""></div> 
                </div>","null","","","","","","","","","","","","",""
"","","","","","html-button-response","57","230236","0.0-57.0","845B57C90A934B43B5D8BB36F755CDF9","019d6649-9fc1-77c5-b4de-454b1db2ddb6","019d6630-2071-75cb-8026-6699844a2719","","562","
                <div class=""stimulus-container"">
                    <img src=""images/schematic_sequence/dinner_party_scheme/dinner_party_scheme_ten.png"" class=""exp-image"">
                    <div class=""question-area"">
                        <p style=""font-size: 20px; font-weight: bold; margin: 0;"">Is there a person in this image?</p>
                    </div>
                </div>","0","main_experiment_trial","ten","dinner_party_scheme","schematic_sequence","chronological","","","","","","","",""
"","","","","","html-keyboard-response","58","235237","0.0-58.0","845B57C90A934B43B5D8BB36F755CDF9","019d6649-9fc1-77c5-b4de-454b1db2ddb6","019d6630-2071-75cb-8026-6699844a2719","","null","<div style=""background-color: white; width: 100vw; height: 100vh;""></div>","null","","","","","","","","","","","","",""
"","","","","","html-keyboard-response","59","240239","0.0-59.0","845B57C90A934B43B5D8BB36F755CDF9","019d6649-9fc1-77c5-b4de-454b1db2ddb6","019d6630-2071-75cb-8026-6699844a2719","","null","
                <div class=""stimulus-container"">
                    <img src=""images/causal_sequence/saving_a_cat_causal/saving_a_cat_causal_1.png"" class=""exp-image"">
                    <div class=""question-area""></div> 
                </div>","null","","","","","","","","","","","","",""
"","","","","","html-button-response","60","240846","0.0-60.0","845B57C90A934B43B5D8BB36F755CDF9","019d6649-9fc1-77c5-b4de-454b1db2ddb6","019d6630-2071-75cb-8026-6699844a2719","","606","
                <div class=""stimulus-container"">
                    <img src=""images/causal_sequence/saving_a_cat_causal/saving_a_cat_causal_1.png"" class=""exp-image"">
                    <div class=""question-area"">
                        <p style=""font-size: 20px; font-weight: bold; margin: 0;"">Is there a person in this image?</p>
                    </div>
                </div>","0","main_experiment_trial","1","saving_a_cat_causal","causal_sequence","chronological","","","","","","","",""
"","","","","","html-keyboard-response","61","245848","0.0-61.0","845B57C90A934B43B5D8BB36F755CDF9","019d6649-9fc1-77c5-b4de-454b1db2ddb6","019d6630-2071-75cb-8026-6699844a2719","","null","
                <div class=""stimulus-container"">
                    <img src=""images/causal_sequence/saving_a_cat_causal/saving_a_cat_causal_2.png"" class=""exp-image"">
                    <div class=""question-area""></div> 
                </div>","null","","","","","","","","","","","","",""
"","","","","","html-button-response","62","246998","0.0-62.0","845B57C90A934B43B5D8BB36F755CDF9","019d6649-9fc1-77c5-b4de-454b1db2ddb6","019d6630-2071-75cb-8026-6699844a2719","","1150","
                <div class=""stimulus-container"">
                    <img src=""images/causal_sequence/saving_a_cat_causal/saving_a_cat_causal_2.png"" class=""exp-image"">
                    <div class=""question-area"">
                        <p style=""font-size: 20px; font-weight: bold; margin: 0;"">Is there a person in this image?</p>
                    </div>
                </div>","1","main_experiment_trial","2","saving_a_cat_causal","causal_sequence","chronological","","","","","","","",""
"","","","","","html-keyboard-response","63","252001","0.0-63.0","845B57C90A934B43B5D8BB36F755CDF9","019d6649-9fc1-77c5-b4de-454b1db2ddb6","019d6630-2071-75cb-8026-6699844a2719","","null","
                <div class=""stimulus-container"">
                    <img src=""images/causal_sequence/saving_a_cat_causal/saving_a_cat_causal_3.png"" class=""exp-image"">
                    <div class=""question-area""></div> 
                </div>","null","","","","","","","","","","","","",""
"","","","","","html-button-response","64","252646","0.0-64.0","845B57C90A934B43B5D8BB36F755CDF9","019d6649-9fc1-77c5-b4de-454b1db2ddb6","019d6630-2071-75cb-8026-6699844a2719","","644","
                <div class=""stimulus-container"">
                    <img src=""images/causal_sequence/saving_a_cat_causal/saving_a_cat_causal_3.png"" class=""exp-image"">
                    <div class=""question-area"">
                        <p style=""font-size: 20px; font-weight: bold; margin: 0;"">Is there a person in this image?</p>
                    </div>
                </div>","1","main_experiment_trial","3","saving_a_cat_causal","causal_sequence","chronological","","","","","","","",""
"","","","","","html-keyboard-response","65","257648","0.0-65.0","845B57C90A934B43B5D8BB36F755CDF9","019d6649-9fc1-77c5-b4de-454b1db2ddb6","019d6630-2071-75cb-8026-6699844a2719","","null","
                <div class=""stimulus-container"">
                    <img src=""images/causal_sequence/saving_a_cat_causal/saving_a_cat_causal_4.png"" class=""exp-image"">
                    <div class=""question-area""></div> 
                </div>","null","","","","","","","","","","","","",""
"","","","","","html-button-response","66","258260","0.0-66.0","845B57C90A934B43B5D8BB36F755CDF9","019d6649-9fc1-77c5-b4de-454b1db2ddb6","019d6630-2071-75cb-8026-6699844a2719","","611","
                <div class=""stimulus-container"">
                    <img src=""images/causal_sequence/saving_a_cat_causal/saving_a_cat_causal_4.png"" class=""exp-image"">
                    <div class=""question-area"">
                        <p style=""font-size: 20px; font-weight: bold; margin: 0;"">Is there a person in this image?</p>
                    </div>
                </div>","0","main_experiment_trial","4","saving_a_cat_causal","causal_sequence","chronological","","","","","","","",""
"","","","","","html-keyboard-response","67","263261","0.0-67.0","845B57C90A934B43B5D8BB36F755CDF9","019d6649-9fc1-77c5-b4de-454b1db2ddb6","019d6630-2071-75cb-8026-6699844a2719","","null","
                <div class=""stimulus-container"">
                    <img src=""images/causal_sequence/saving_a_cat_causal/saving_a_cat_causal_5.png"" class=""exp-image"">
                    <div class=""question-area""></div> 
                </div>","null","","","","","","","","","","","","",""
"","","","","","html-button-response","68","263977","0.0-68.0","845B57C90A934B43B5D8BB36F755CDF9","019d6649-9fc1-77c5-b4de-454b1db2ddb6","019d6630-2071-75cb-8026-6699844a2719","","716","
                <div class=""stimulus-container"">
                    <img src=""images/causal_sequence/saving_a_cat_causal/saving_a_cat_causal_5.png"" class=""exp-image"">
                    <div class=""question-area"">
                        <p style=""font-size: 20px; font-weight: bold; margin: 0;"">Is there a person in this image?</p>
                    </div>
                </div>","0","main_experiment_trial","5","saving_a_cat_causal","causal_sequence","chronological","","","","","","","",""
"","","","","","html-keyboard-response","69","268979","0.0-69.0","845B57C90A934B43B5D8BB36F755CDF9","019d6649-9fc1-77c5-b4de-454b1db2ddb6","019d6630-2071-75cb-8026-6699844a2719","","null","
                <div class=""stimulus-container"">
                    <img src=""images/causal_sequence/saving_a_cat_causal/saving_a_cat_causal_6.png"" class=""exp-image"">
                    <div class=""question-area""></div> 
                </div>","null","","","","","","","","","","","","",""
"","","","","","html-button-response","70","269351","0.0-70.0","845B57C90A934B43B5D8BB36F755CDF9","019d6649-9fc1-77c5-b4de-454b1db2ddb6","019d6630-2071-75cb-8026-6699844a2719","","371","
                <div class=""stimulus-container"">
                    <img src=""images/causal_sequence/saving_a_cat_causal/saving_a_cat_causal_6.png"" class=""exp-image"">
                    <div class=""question-area"">
                        <p style=""font-size: 20px; font-weight: bold; margin: 0;"">Is there a person in this image?</p>
                    </div>
                </div>","0","main_experiment_trial","6","saving_a_cat_causal","causal_sequence","chronological","","","","","","","",""
"","","","","","html-keyboard-response","71","274352","0.0-71.0","845B57C90A934B43B5D8BB36F755CDF9","019d6649-9fc1-77c5-b4de-454b1db2ddb6","019d6630-2071-75cb-8026-6699844a2719","","null","
                <div class=""stimulus-container"">
                    <img src=""images/causal_sequence/saving_a_cat_causal/saving_a_cat_causal_7.png"" class=""exp-image"">
                    <div class=""question-area""></div> 
                </div>","null","","","","","","","","","","","","",""
"","","","","","html-button-response","72","274799","0.0-72.0","845B57C90A934B43B5D8BB36F755CDF9","019d6649-9fc1-77c5-b4de-454b1db2ddb6","019d6630-2071-75cb-8026-6699844a2719","","446","
                <div class=""stimulus-container"">
                    <img src=""images/causal_sequence/saving_a_cat_causal/saving_a_cat_causal_7.png"" class=""exp-image"">
                    <div class=""question-area"">
                        <p style=""font-size: 20px; font-weight: bold; margin: 0;"">Is there a person in this image?</p>
                    </div>
                </div>","0","main_experiment_trial","7","saving_a_cat_causal","causal_sequence","chronological","","","","","","","",""
"","","","","","html-keyboard-response","73","279801","0.0-73.0","845B57C90A934B43B5D8BB36F755CDF9","019d6649-9fc1-77c5-b4de-454b1db2ddb6","019d6630-2071-75cb-8026-6699844a2719","","null","
                <div class=""stimulus-container"">
                    <img src=""images/causal_sequence/saving_a_cat_causal/saving_a_cat_causal_8.png"" class=""exp-image"">
                    <div class=""question-area""></div> 
                </div>","null","","","","","","","","","","","","",""
"","","","","","html-button-response","74","280335","0.0-74.0","845B57C90A934B43B5D8BB36F755CDF9","019d6649-9fc1-77c5-b4de-454b1db2ddb6","019d6630-2071-75cb-8026-6699844a2719","","533","
                <div class=""stimulus-container"">
                    <img src=""images/causal_sequence/saving_a_cat_causal/saving_a_cat_causal_8.png"" class=""exp-image"">
                    <div class=""question-area"">
                        <p style=""font-size: 20px; font-weight: bold; margin: 0;"">Is there a person in this image?</p>
                    </div>
                </div>","0","main_experiment_trial","8","saving_a_cat_causal","causal_sequence","chronological","","","","","","","",""
"","","","","","html-keyboard-response","75","285337","0.0-75.0","845B57C90A934B43B5D8BB36F755CDF9","019d6649-9fc1-77c5-b4de-454b1db2ddb6","019d6630-2071-75cb-8026-6699844a2719","","null","
                <div class=""stimulus-container"">
                    <img src=""images/causal_sequence/saving_a_cat_causal/saving_a_cat_causal_9.png"" class=""exp-image"">
                    <div class=""question-area""></div> 
                </div>","null","","","","","","","","","","","","",""
"","","","","","html-button-response","76","285881","0.0-76.0","845B57C90A934B43B5D8BB36F755CDF9","019d6649-9fc1-77c5-b4de-454b1db2ddb6","019d6630-2071-75cb-8026-6699844a2719","","543","
                <div class=""stimulus-container"">
                    <img src=""images/causal_sequence/saving_a_cat_causal/saving_a_cat_causal_9.png"" class=""exp-image"">
                    <div class=""question-area"">
                        <p style=""font-size: 20px; font-weight: bold; margin: 0;"">Is there a person in this image?</p>
                    </div>
                </div>","0","main_experiment_trial","9","saving_a_cat_causal","causal_sequence","chronological","","","","","","","",""
"","","","","","html-keyboard-response","77","290882","0.0-77.0","845B57C90A934B43B5D8BB36F755CDF9","019d6649-9fc1-77c5-b4de-454b1db2ddb6","019d6630-2071-75cb-8026-6699844a2719","","null","
                <div class=""stimulus-container"">
                    <img src=""images/causal_sequence/saving_a_cat_causal/saving_a_cat_causal_ten.png"" class=""exp-image"">
                    <div class=""question-area""></div> 
                </div>","null","","","","","","","","","","","","",""
"","","","","","html-button-response","78","291302","0.0-78.0","845B57C90A934B43B5D8BB36F755CDF9","019d6649-9fc1-77c5-b4de-454b1db2ddb6","019d6630-2071-75cb-8026-6699844a2719","","419","
                <div class=""stimulus-container"">
                    <img src=""images/causal_sequence/saving_a_cat_causal/saving_a_cat_causal_ten.png"" class=""exp-image"">
                    <div class=""question-area"">
                        <p style=""font-size: 20px; font-weight: bold; margin: 0;"">Is there a person in this image?</p>
                    </div>
                </div>","0","main_experiment_trial","ten","saving_a_cat_causal","causal_sequence","chronological","","","","","","","",""
"","","","","","html-keyboard-response","79","296303","0.0-79.0","845B57C90A934B43B5D8BB36F755CDF9","019d6649-9fc1-77c5-b4de-454b1db2ddb6","019d6630-2071-75cb-8026-6699844a2719","","null","<div style=""background-color: white; width: 100vw; height: 100vh;""></div>","null","","","","","","","","","","","","",""
"","","","","","html-keyboard-response","80","301304","0.0-80.0","845B57C90A934B43B5D8BB36F755CDF9","019d6649-9fc1-77c5-b4de-454b1db2ddb6","019d6630-2071-75cb-8026-6699844a2719","","null","
                <div class=""stimulus-container"">
                    <img src=""images/schematic_sequence/interview_scheme/interview_scheme_1.png"" class=""exp-image"">
                    <div class=""question-area""></div> 
                </div>","null","","","","","","","","","","","","",""
"","","","","","html-button-response","81","302373","0.0-81.0","845B57C90A934B43B5D8BB36F755CDF9","019d6649-9fc1-77c5-b4de-454b1db2ddb6","019d6630-2071-75cb-8026-6699844a2719","","1068","
                <div class=""stimulus-container"">
                    <img src=""images/schematic_sequence/interview_scheme/interview_scheme_1.png"" class=""exp-image"">
                    <div class=""question-area"">
                        <p style=""font-size: 20px; font-weight: bold; margin: 0;"">Is there a person in this image?</p>
                    </div>
                </div>","1","main_experiment_trial","1","interview_scheme","schematic_sequence","chronological","","","","","","","",""
"","","","","","html-keyboard-response","82","307374","0.0-82.0","845B57C90A934B43B5D8BB36F755CDF9","019d6649-9fc1-77c5-b4de-454b1db2ddb6","019d6630-2071-75cb-8026-6699844a2719","","null","
                <div class=""stimulus-container"">
                    <img src=""images/schematic_sequence/interview_scheme/interview_scheme_2.png"" class=""exp-image"">
                    <div class=""question-area""></div> 
                </div>","null","","","","","","","","","","","","",""
"","","","","","html-button-response","83","308042","0.0-83.0","845B57C90A934B43B5D8BB36F755CDF9","019d6649-9fc1-77c5-b4de-454b1db2ddb6","019d6630-2071-75cb-8026-6699844a2719","","666","
                <div class=""stimulus-container"">
                    <img src=""images/schematic_sequence/interview_scheme/interview_scheme_2.png"" class=""exp-image"">
                    <div class=""question-area"">
                        <p style=""font-size: 20px; font-weight: bold; margin: 0;"">Is there a person in this image?</p>
                    </div>
                </div>","0","main_experiment_trial","2","interview_scheme","schematic_sequence","chronological","","","","","","","",""
"","","","","","html-keyboard-response","84","313043","0.0-84.0","845B57C90A934B43B5D8BB36F755CDF9","019d6649-9fc1-77c5-b4de-454b1db2ddb6","019d6630-2071-75cb-8026-6699844a2719","","null","
                <div class=""stimulus-container"">
                    <img src=""images/schematic_sequence/interview_scheme/interview_scheme_3.png"" class=""exp-image"">
                    <div class=""question-area""></div> 
                </div>","null","","","","","","","","","","","","",""
"","","","","","html-button-response","85","313750","0.0-85.0","845B57C90A934B43B5D8BB36F755CDF9","019d6649-9fc1-77c5-b4de-454b1db2ddb6","019d6630-2071-75cb-8026-6699844a2719","","706","
                <div class=""stimulus-container"">
                    <img src=""images/schematic_sequence/interview_scheme/interview_scheme_3.png"" class=""exp-image"">
                    <div class=""question-area"">
                        <p style=""font-size: 20px; font-weight: bold; margin: 0;"">Is there a person in this image?</p>
                    </div>
                </div>","1","main_experiment_trial","3","interview_scheme","schematic_sequence","chronological","","","","","","","",""
"","","","","","html-keyboard-response","86","318757","0.0-86.0","845B57C90A934B43B5D8BB36F755CDF9","019d6649-9fc1-77c5-b4de-454b1db2ddb6","019d6630-2071-75cb-8026-6699844a2719","","null","
                <div class=""stimulus-container"">
                    <img src=""images/schematic_sequence/interview_scheme/interview_scheme_4.png"" class=""exp-image"">
                    <div class=""question-area""></div> 
                </div>","null","","","","","","","","","","","","",""
"","","","","","html-button-response","87","319156","0.0-87.0","845B57C90A934B43B5D8BB36F755CDF9","019d6649-9fc1-77c5-b4de-454b1db2ddb6","019d6630-2071-75cb-8026-6699844a2719","","397","
                <div class=""stimulus-container"">
                    <img src=""images/schematic_sequence/interview_scheme/interview_scheme_4.png"" class=""exp-image"">
                    <div class=""question-area"">
                        <p style=""font-size: 20px; font-weight: bold; margin: 0;"">Is there a person in this image?</p>
                    </div>
                </div>","1","main_experiment_trial","4","interview_scheme","schematic_sequence","chronological","","","","","","","",""
"","","","","","html-keyboard-response","88","324157","0.0-88.0","845B57C90A934B43B5D8BB36F755CDF9","019d6649-9fc1-77c5-b4de-454b1db2ddb6","019d6630-2071-75cb-8026-6699844a2719","","null","
                <div class=""stimulus-container"">
                    <img src=""images/schematic_sequence/interview_scheme/interview_scheme_5.png"" class=""exp-image"">
                    <div class=""question-area""></div> 
                </div>","null","","","","","","","","","","","","",""
"","","","","","html-button-response","89","324629","0.0-89.0","845B57C90A934B43B5D8BB36F755CDF9","019d6649-9fc1-77c5-b4de-454b1db2ddb6","019d6630-2071-75cb-8026-6699844a2719","","470","
                <div class=""stimulus-container"">
                    <img src=""images/schematic_sequence/interview_scheme/interview_scheme_5.png"" class=""exp-image"">
                    <div class=""question-area"">
                        <p style=""font-size: 20px; font-weight: bold; margin: 0;"">Is there a person in this image?</p>
                    </div>
                </div>","0","main_experiment_trial","5","interview_scheme","schematic_sequence","chronological","","","","","","","",""
"","","","","","html-keyboard-response","90","329630","0.0-90.0","845B57C90A934B43B5D8BB36F755CDF9","019d6649-9fc1-77c5-b4de-454b1db2ddb6","019d6630-2071-75cb-8026-6699844a2719","","null","
                <div class=""stimulus-container"">
                    <img src=""images/schematic_sequence/interview_scheme/interview_scheme_6.png"" class=""exp-image"">
                    <div class=""question-area""></div> 
                </div>","null","","","","","","","","","","","","",""
"","","","","","html-button-response","91","330100","0.0-91.0","845B57C90A934B43B5D8BB36F755CDF9","019d6649-9fc1-77c5-b4de-454b1db2ddb6","019d6630-2071-75cb-8026-6699844a2719","","469","
                <div class=""stimulus-container"">
                    <img src=""images/schematic_sequence/interview_scheme/interview_scheme_6.png"" class=""exp-image"">
                    <div class=""question-area"">
                        <p style=""font-size: 20px; font-weight: bold; margin: 0;"">Is there a person in this image?</p>
                    </div>
                </div>","0","main_experiment_trial","6","interview_scheme","schematic_sequence","chronological","","","","","","","",""
"","","","","","html-keyboard-response","92","335102","0.0-92.0","845B57C90A934B43B5D8BB36F755CDF9","019d6649-9fc1-77c5-b4de-454b1db2ddb6","019d6630-2071-75cb-8026-6699844a2719","","null","
                <div class=""stimulus-container"">
                    <img src=""images/schematic_sequence/interview_scheme/interview_scheme_7.png"" class=""exp-image"">
                    <div class=""question-area""></div> 
                </div>","null","","","","","","","","","","","","",""
"","","","","","html-button-response","93","335641","0.0-93.0","845B57C90A934B43B5D8BB36F755CDF9","019d6649-9fc1-77c5-b4de-454b1db2ddb6","019d6630-2071-75cb-8026-6699844a2719","","538","
                <div class=""stimulus-container"">
                    <img src=""images/schematic_sequence/interview_scheme/interview_scheme_7.png"" class=""exp-image"">
                    <div class=""question-area"">
                        <p style=""font-size: 20px; font-weight: bold; margin: 0;"">Is there a person in this image?</p>
                    </div>
                </div>","0","main_experiment_trial","7","interview_scheme","schematic_sequence","chronological","","","","","","","",""
"","","","","","html-keyboard-response","94","340642","0.0-94.0","845B57C90A934B43B5D8BB36F755CDF9","019d6649-9fc1-77c5-b4de-454b1db2ddb6","019d6630-2071-75cb-8026-6699844a2719","","null","
                <div class=""stimulus-container"">
                    <img src=""images/schematic_sequence/interview_scheme/interview_scheme_8.png"" class=""exp-image"">
                    <div class=""question-area""></div> 
                </div>","null","","","","","","","","","","","","",""
"","","","","","html-button-response","95","341046","0.0-95.0","845B57C90A934B43B5D8BB36F755CDF9","019d6649-9fc1-77c5-b4de-454b1db2ddb6","019d6630-2071-75cb-8026-6699844a2719","","403","
                <div class=""stimulus-container"">
                    <img src=""images/schematic_sequence/interview_scheme/interview_scheme_8.png"" class=""exp-image"">
                    <div class=""question-area"">
                        <p style=""font-size: 20px; font-weight: bold; margin: 0;"">Is there a person in this image?</p>
                    </div>
                </div>","0","main_experiment_trial","8","interview_scheme","schematic_sequence","chronological","","","","","","","",""
"","","","","","html-keyboard-response","96","346048","0.0-96.0","845B57C90A934B43B5D8BB36F755CDF9","019d6649-9fc1-77c5-b4de-454b1db2ddb6","019d6630-2071-75cb-8026-6699844a2719","","null","
                <div class=""stimulus-container"">
                    <img src=""images/schematic_sequence/interview_scheme/interview_scheme_9.png"" class=""exp-image"">
                    <div class=""question-area""></div> 
                </div>","null","","","","","","","","","","","","",""
"","","","","","html-button-response","97","346818","0.0-97.0","845B57C90A934B43B5D8BB36F755CDF9","019d6649-9fc1-77c5-b4de-454b1db2ddb6","019d6630-2071-75cb-8026-6699844a2719","","769","
                <div class=""stimulus-container"">
                    <img src=""images/schematic_sequence/interview_scheme/interview_scheme_9.png"" class=""exp-image"">
                    <div class=""question-area"">
                        <p style=""font-size: 20px; font-weight: bold; margin: 0;"">Is there a person in this image?</p>
                    </div>
                </div>","0","main_experiment_trial","9","interview_scheme","schematic_sequence","chronological","","","","","","","",""
"","","","","","html-keyboard-response","98","351819","0.0-98.0","845B57C90A934B43B5D8BB36F755CDF9","019d6649-9fc1-77c5-b4de-454b1db2ddb6","019d6630-2071-75cb-8026-6699844a2719","","null","
                <div class=""stimulus-container"">
                    <img src=""images/schematic_sequence/interview_scheme/interview_scheme_ten.png"" class=""exp-image"">
                    <div class=""question-area""></div> 
                </div>","null","","","","","","","","","","","","",""
"","","","","","html-button-response","99","352243","0.0-99.0","845B57C90A934B43B5D8BB36F755CDF9","019d6649-9fc1-77c5-b4de-454b1db2ddb6","019d6630-2071-75cb-8026-6699844a2719","","423","
                <div class=""stimulus-container"">
                    <img src=""images/schematic_sequence/interview_scheme/interview_scheme_ten.png"" class=""exp-image"">
                    <div class=""question-area"">
                        <p style=""font-size: 20px; font-weight: bold; margin: 0;"">Is there a person in this image?</p>
                    </div>
                </div>","0","main_experiment_trial","ten","interview_scheme","schematic_sequence","chronological","","","","","","","",""
"","","","","","html-keyboard-response","100","357244","0.0-100.0","845B57C90A934B43B5D8BB36F755CDF9","019d6649-9fc1-77c5-b4de-454b1db2ddb6","019d6630-2071-75cb-8026-6699844a2719","","null","<div style=""background-color: white; width: 100vw; height: 100vh;""></div>","null","","","","","","","","","","","","",""
"","","","","","html-keyboard-response","101","362246","0.0-101.0","845B57C90A934B43B5D8BB36F755CDF9","019d6649-9fc1-77c5-b4de-454b1db2ddb6","019d6630-2071-75cb-8026-6699844a2719","","null","
                <div class=""stimulus-container"">
                    <img src=""images/schematic_sequence/supermarket_scheme/supermarket_scheme_1.png"" class=""exp-image"">
                    <div class=""question-area""></div> 
                </div>","null","","","","","","","","","","","","",""
"","","","","","html-button-response","102","362676","0.0-102.0","845B57C90A934B43B5D8BB36F755CDF9","019d6649-9fc1-77c5-b4de-454b1db2ddb6","019d6630-2071-75cb-8026-6699844a2719","","430","
                <div class=""stimulus-container"">
                    <img src=""images/schematic_sequence/supermarket_scheme/supermarket_scheme_1.png"" class=""exp-image"">
                    <div class=""question-area"">
                        <p style=""font-size: 20px; font-weight: bold; margin: 0;"">Is there a person in this image?</p>
                    </div>
                </div>","1","main_experiment_trial","1","supermarket_scheme","schematic_sequence","chronological","","","","","","","",""
"","","","","","html-keyboard-response","103","367678","0.0-103.0","845B57C90A934B43B5D8BB36F755CDF9","019d6649-9fc1-77c5-b4de-454b1db2ddb6","019d6630-2071-75cb-8026-6699844a2719","","null","
                <div class=""stimulus-container"">
                    <img src=""images/schematic_sequence/supermarket_scheme/supermarket_scheme_2.png"" class=""exp-image"">
                    <div class=""question-area""></div> 
                </div>","null","","","","","","","","","","","","",""
"","","","","","html-button-response","104","368123","0.0-104.0","845B57C90A934B43B5D8BB36F755CDF9","019d6649-9fc1-77c5-b4de-454b1db2ddb6","019d6630-2071-75cb-8026-6699844a2719","","444","
                <div class=""stimulus-container"">
                    <img src=""images/schematic_sequence/supermarket_scheme/supermarket_scheme_2.png"" class=""exp-image"">
                    <div class=""question-area"">
                        <p style=""font-size: 20px; font-weight: bold; margin: 0;"">Is there a person in this image?</p>
                    </div>
                </div>","1","main_experiment_trial","2","supermarket_scheme","schematic_sequence","chronological","","","","","","","",""
"","","","","","html-keyboard-response","105","373139","0.0-105.0","845B57C90A934B43B5D8BB36F755CDF9","019d6649-9fc1-77c5-b4de-454b1db2ddb6","019d6630-2071-75cb-8026-6699844a2719","","null","
                <div class=""stimulus-container"">
                    <img src=""images/schematic_sequence/supermarket_scheme/supermarket_scheme_3.png"" class=""exp-image"">
                    <div class=""question-area""></div> 
                </div>","null","","","","","","","","","","","","",""
"","","","","","html-button-response","106","373871","0.0-106.0","845B57C90A934B43B5D8BB36F755CDF9","019d6649-9fc1-77c5-b4de-454b1db2ddb6","019d6630-2071-75cb-8026-6699844a2719","","731","
                <div class=""stimulus-container"">
                    <img src=""images/schematic_sequence/supermarket_scheme/supermarket_scheme_3.png"" class=""exp-image"">
                    <div class=""question-area"">
                        <p style=""font-size: 20px; font-weight: bold; margin: 0;"">Is there a person in this image?</p>
                    </div>
                </div>","1","main_experiment_trial","3","supermarket_scheme","schematic_sequence","chronological","","","","","","","",""
"","","","","","html-keyboard-response","107","378873","0.0-107.0","845B57C90A934B43B5D8BB36F755CDF9","019d6649-9fc1-77c5-b4de-454b1db2ddb6","019d6630-2071-75cb-8026-6699844a2719","","null","
                <div class=""stimulus-container"">
                    <img src=""images/schematic_sequence/supermarket_scheme/supermarket_scheme_4.png"" class=""exp-image"">
                    <div class=""question-area""></div> 
                </div>","null","","","","","","","","","","","","",""
"","","","","","html-button-response","108","379678","0.0-108.0","845B57C90A934B43B5D8BB36F755CDF9","019d6649-9fc1-77c5-b4de-454b1db2ddb6","019d6630-2071-75cb-8026-6699844a2719","","805","
                <div class=""stimulus-container"">
                    <img src=""images/schematic_sequence/supermarket_scheme/supermarket_scheme_4.png"" class=""exp-image"">
                    <div class=""question-area"">
                        <p style=""font-size: 20px; font-weight: bold; margin: 0;"">Is there a person in this image?</p>
                    </div>
                </div>","0","main_experiment_trial","4","supermarket_scheme","schematic_sequence","chronological","","","","","","","",""
"","","","","","html-keyboard-response","109","384681","0.0-109.0","845B57C90A934B43B5D8BB36F755CDF9","019d6649-9fc1-77c5-b4de-454b1db2ddb6","019d6630-2071-75cb-8026-6699844a2719","","null","
                <div class=""stimulus-container"">
                    <img src=""images/schematic_sequence/supermarket_scheme/supermarket_scheme_5.png"" class=""exp-image"">
                    <div class=""question-area""></div> 
                </div>","null","","","","","","","","","","","","",""
"","","","","","html-button-response","110","385154","0.0-110.0","845B57C90A934B43B5D8BB36F755CDF9","019d6649-9fc1-77c5-b4de-454b1db2ddb6","019d6630-2071-75cb-8026-6699844a2719","","472","
                <div class=""stimulus-container"">
                    <img src=""images/schematic_sequence/supermarket_scheme/supermarket_scheme_5.png"" class=""exp-image"">
                    <div class=""question-area"">
                        <p style=""font-size: 20px; font-weight: bold; margin: 0;"">Is there a person in this image?</p>
                    </div>
                </div>","1","main_experiment_trial","5","supermarket_scheme","schematic_sequence","chronological","","","","","","","",""
"","","","","","html-keyboard-response","111","390155","0.0-111.0","845B57C90A934B43B5D8BB36F755CDF9","019d6649-9fc1-77c5-b4de-454b1db2ddb6","019d6630-2071-75cb-8026-6699844a2719","","null","
                <div class=""stimulus-container"">
                    <img src=""images/schematic_sequence/supermarket_scheme/supermarket_scheme_6.png"" class=""exp-image"">
                    <div class=""question-area""></div> 
                </div>","null","","","","","","","","","","","","",""
"","","","","","html-button-response","112","390908","0.0-112.0","845B57C90A934B43B5D8BB36F755CDF9","019d6649-9fc1-77c5-b4de-454b1db2ddb6","019d6630-2071-75cb-8026-6699844a2719","","752","
                <div class=""stimulus-container"">
                    <img src=""images/schematic_sequence/supermarket_scheme/supermarket_scheme_6.png"" class=""exp-image"">
                    <div class=""question-area"">
                        <p style=""font-size: 20px; font-weight: bold; margin: 0;"">Is there a person in this image?</p>
                    </div>
                </div>","0","main_experiment_trial","6","supermarket_scheme","schematic_sequence","chronological","","","","","","","",""
"","","","","","html-keyboard-response","113","395910","0.0-113.0","845B57C90A934B43B5D8BB36F755CDF9","019d6649-9fc1-77c5-b4de-454b1db2ddb6","019d6630-2071-75cb-8026-6699844a2719","","null","
                <div class=""stimulus-container"">
                    <img src=""images/schematic_sequence/supermarket_scheme/supermarket_scheme_7.png"" class=""exp-image"">
                    <div class=""question-area""></div> 
                </div>","null","","","","","","","","","","","","",""
"","","","","","html-button-response","114","396327","0.0-114.0","845B57C90A934B43B5D8BB36F755CDF9","019d6649-9fc1-77c5-b4de-454b1db2ddb6","019d6630-2071-75cb-8026-6699844a2719","","416","
                <div class=""stimulus-container"">
                    <img src=""images/schematic_sequence/supermarket_scheme/supermarket_scheme_7.png"" class=""exp-image"">
                    <div class=""question-area"">
                        <p style=""font-size: 20px; font-weight: bold; margin: 0;"">Is there a person in this image?</p>
                    </div>
                </div>","0","main_experiment_trial","7","supermarket_scheme","schematic_sequence","chronological","","","","","","","",""
"","","","","","html-keyboard-response","115","401335","0.0-115.0","845B57C90A934B43B5D8BB36F755CDF9","019d6649-9fc1-77c5-b4de-454b1db2ddb6","019d6630-2071-75cb-8026-6699844a2719","","null","
                <div class=""stimulus-container"">
                    <img src=""images/schematic_sequence/supermarket_scheme/supermarket_scheme_8.png"" class=""exp-image"">
                    <div class=""question-area""></div> 
                </div>","null","","","","","","","","","","","","",""
"","","","","","html-button-response","116","401772","0.0-116.0","845B57C90A934B43B5D8BB36F755CDF9","019d6649-9fc1-77c5-b4de-454b1db2ddb6","019d6630-2071-75cb-8026-6699844a2719","","436","
                <div class=""stimulus-container"">
                    <img src=""images/schematic_sequence/supermarket_scheme/supermarket_scheme_8.png"" class=""exp-image"">
                    <div class=""question-area"">
                        <p style=""font-size: 20px; font-weight: bold; margin: 0;"">Is there a person in this image?</p>
                    </div>
                </div>","0","main_experiment_trial","8","supermarket_scheme","schematic_sequence","chronological","","","","","","","",""
"","","","","","html-keyboard-response","117","406773","0.0-117.0","845B57C90A934B43B5D8BB36F755CDF9","019d6649-9fc1-77c5-b4de-454b1db2ddb6","019d6630-2071-75cb-8026-6699844a2719","","null","
                <div class=""stimulus-container"">
                    <img src=""images/schematic_sequence/supermarket_scheme/supermarket_scheme_9.png"" class=""exp-image"">
                    <div class=""question-area""></div> 
                </div>","null","","","","","","","","","","","","",""
"","","","","","html-button-response","118","407380","0.0-118.0","845B57C90A934B43B5D8BB36F755CDF9","019d6649-9fc1-77c5-b4de-454b1db2ddb6","019d6630-2071-75cb-8026-6699844a2719","","606","
                <div class=""stimulus-container"">
                    <img src=""images/schematic_sequence/supermarket_scheme/supermarket_scheme_9.png"" class=""exp-image"">
                    <div class=""question-area"">
                        <p style=""font-size: 20px; font-weight: bold; margin: 0;"">Is there a person in this image?</p>
                    </div>
                </div>","0","main_experiment_trial","9","supermarket_scheme","schematic_sequence","chronological","","","","","","","",""
"","","","","","html-keyboard-response","119","412381","0.0-119.0","845B57C90A934B43B5D8BB36F755CDF9","019d6649-9fc1-77c5-b4de-454b1db2ddb6","019d6630-2071-75cb-8026-6699844a2719","","null","
                <div class=""stimulus-container"">
                    <img src=""images/schematic_sequence/supermarket_scheme/supermarket_scheme_ten.png"" class=""exp-image"">
                    <div class=""question-area""></div> 
                </div>","null","","","","","","","","","","","","",""
"","","","","","html-button-response","120","413282","0.0-120.0","845B57C90A934B43B5D8BB36F755CDF9","019d6649-9fc1-77c5-b4de-454b1db2ddb6","019d6630-2071-75cb-8026-6699844a2719","","900","
                <div class=""stimulus-container"">
                    <img src=""images/schematic_sequence/supermarket_scheme/supermarket_scheme_ten.png"" class=""exp-image"">
                    <div class=""question-area"">
                        <p style=""font-size: 20px; font-weight: bold; margin: 0;"">Is there a person in this image?</p>
                    </div>
                </div>","1","main_experiment_trial","ten","supermarket_scheme","schematic_sequence","chronological","","","","","","","",""
"","","","","","html-keyboard-response","121","418284","0.0-121.0","845B57C90A934B43B5D8BB36F755CDF9","019d6649-9fc1-77c5-b4de-454b1db2ddb6","019d6630-2071-75cb-8026-6699844a2719","","null","<div style=""background-color: white; width: 100vw; height: 100vh;""></div>","null","","","","","","","","","","","","",""
"","","","","","html-keyboard-response","122","423286","0.0-122.0","845B57C90A934B43B5D8BB36F755CDF9","019d6649-9fc1-77c5-b4de-454b1db2ddb6","019d6630-2071-75cb-8026-6699844a2719","","null","
                <div class=""stimulus-container"">
                    <img src=""images/causal_sequence/dog_causal/dog_causal_1.png"" class=""exp-image"">
                    <div class=""question-area""></div> 
                </div>","null","","","","","","","","","","","","",""
"","","","","","html-button-response","123","423853","0.0-123.0","845B57C90A934B43B5D8BB36F755CDF9","019d6649-9fc1-77c5-b4de-454b1db2ddb6","019d6630-2071-75cb-8026-6699844a2719","","567","
                <div class=""stimulus-container"">
                    <img src=""images/causal_sequence/dog_causal/dog_causal_1.png"" class=""exp-image"">
                    <div class=""question-area"">
                        <p style=""font-size: 20px; font-weight: bold; margin: 0;"">Is there a person in this image?</p>
                    </div>
                </div>","0","main_experiment_trial","1","dog_causal","causal_sequence","chronological","","","","","","","",""
"","","","","","html-keyboard-response","124","428855","0.0-124.0","845B57C90A934B43B5D8BB36F755CDF9","019d6649-9fc1-77c5-b4de-454b1db2ddb6","019d6630-2071-75cb-8026-6699844a2719","","null","
                <div class=""stimulus-container"">
                    <img src=""images/causal_sequence/dog_causal/dog_causal_2.png"" class=""exp-image"">
                    <div class=""question-area""></div> 
                </div>","null","","","","","","","","","","","","",""
"","","","","","html-button-response","125","429325","0.0-125.0","845B57C90A934B43B5D8BB36F755CDF9","019d6649-9fc1-77c5-b4de-454b1db2ddb6","019d6630-2071-75cb-8026-6699844a2719","","468","
                <div class=""stimulus-container"">
                    <img src=""images/causal_sequence/dog_causal/dog_causal_2.png"" class=""exp-image"">
                    <div class=""question-area"">
                        <p style=""font-size: 20px; font-weight: bold; margin: 0;"">Is there a person in this image?</p>
                    </div>
                </div>","0","main_experiment_trial","2","dog_causal","causal_sequence","chronological","","","","","","","",""
"","","","","","html-keyboard-response","126","434326","0.0-126.0","845B57C90A934B43B5D8BB36F755CDF9","019d6649-9fc1-77c5-b4de-454b1db2ddb6","019d6630-2071-75cb-8026-6699844a2719","","null","
                <div class=""stimulus-container"">
                    <img src=""images/causal_sequence/dog_causal/dog_causal_3.png"" class=""exp-image"">
                    <div class=""question-area""></div> 
                </div>","null","","","","","","","","","","","","",""
"","","","","","html-button-response","127","434693","0.0-127.0","845B57C90A934B43B5D8BB36F755CDF9","019d6649-9fc1-77c5-b4de-454b1db2ddb6","019d6630-2071-75cb-8026-6699844a2719","","366","
                <div class=""stimulus-container"">
                    <img src=""images/causal_sequence/dog_causal/dog_causal_3.png"" class=""exp-image"">
                    <div class=""question-area"">
                        <p style=""font-size: 20px; font-weight: bold; margin: 0;"">Is there a person in this image?</p>
                    </div>
                </div>","0","main_experiment_trial","3","dog_causal","causal_sequence","chronological","","","","","","","",""
"","","","","","html-keyboard-response","128","439700","0.0-128.0","845B57C90A934B43B5D8BB36F755CDF9","019d6649-9fc1-77c5-b4de-454b1db2ddb6","019d6630-2071-75cb-8026-6699844a2719","","null","
                <div class=""stimulus-container"">
                    <img src=""images/causal_sequence/dog_causal/dog_causal_4.png"" class=""exp-image"">
                    <div class=""question-area""></div> 
                </div>","null","","","","","","","","","","","","",""
"","","","","","html-button-response","129","440183","0.0-129.0","845B57C90A934B43B5D8BB36F755CDF9","019d6649-9fc1-77c5-b4de-454b1db2ddb6","019d6630-2071-75cb-8026-6699844a2719","","482","
                <div class=""stimulus-container"">
                    <img src=""images/causal_sequence/dog_causal/dog_causal_4.png"" class=""exp-image"">
                    <div class=""question-area"">
                        <p style=""font-size: 20px; font-weight: bold; margin: 0;"">Is there a person in this image?</p>
                    </div>
                </div>","0","main_experiment_trial","4","dog_causal","causal_sequence","chronological","","","","","","","",""
"","","","","","html-keyboard-response","130","445185","0.0-130.0","845B57C90A934B43B5D8BB36F755CDF9","019d6649-9fc1-77c5-b4de-454b1db2ddb6","019d6630-2071-75cb-8026-6699844a2719","","null","
                <div class=""stimulus-container"">
                    <img src=""images/causal_sequence/dog_causal/dog_causal_5.png"" class=""exp-image"">
                    <div class=""question-area""></div> 
                </div>","null","","","","","","","","","","","","",""
"","","","","","html-button-response","131","445593","0.0-131.0","845B57C90A934B43B5D8BB36F755CDF9","019d6649-9fc1-77c5-b4de-454b1db2ddb6","019d6630-2071-75cb-8026-6699844a2719","","407","
                <div class=""stimulus-container"">
                    <img src=""images/causal_sequence/dog_causal/dog_causal_5.png"" class=""exp-image"">
                    <div class=""question-area"">
                        <p style=""font-size: 20px; font-weight: bold; margin: 0;"">Is there a person in this image?</p>
                    </div>
                </div>","0","main_experiment_trial","5","dog_causal","causal_sequence","chronological","","","","","","","",""
"","","","","","html-keyboard-response","132","450594","0.0-132.0","845B57C90A934B43B5D8BB36F755CDF9","019d6649-9fc1-77c5-b4de-454b1db2ddb6","019d6630-2071-75cb-8026-6699844a2719","","null","
                <div class=""stimulus-container"">
                    <img src=""images/causal_sequence/dog_causal/dog_causal_6.png"" class=""exp-image"">
                    <div class=""question-area""></div> 
                </div>","null","","","","","","","","","","","","",""
"","","","","","html-button-response","133","451031","0.0-133.0","845B57C90A934B43B5D8BB36F755CDF9","019d6649-9fc1-77c5-b4de-454b1db2ddb6","019d6630-2071-75cb-8026-6699844a2719","","435","
                <div class=""stimulus-container"">
                    <img src=""images/causal_sequence/dog_causal/dog_causal_6.png"" class=""exp-image"">
                    <div class=""question-area"">
                        <p style=""font-size: 20px; font-weight: bold; margin: 0;"">Is there a person in this image?</p>
                    </div>
                </div>","0","main_experiment_trial","6","dog_causal","causal_sequence","chronological","","","","","","","",""
"","","","","","html-keyboard-response","134","456032","0.0-134.0","845B57C90A934B43B5D8BB36F755CDF9","019d6649-9fc1-77c5-b4de-454b1db2ddb6","019d6630-2071-75cb-8026-6699844a2719","","null","
                <div class=""stimulus-container"">
                    <img src=""images/causal_sequence/dog_causal/dog_causal_7.png"" class=""exp-image"">
                    <div class=""question-area""></div> 
                </div>","null","","","","","","","","","","","","",""
"","","","","","html-button-response","135","456823","0.0-135.0","845B57C90A934B43B5D8BB36F755CDF9","019d6649-9fc1-77c5-b4de-454b1db2ddb6","019d6630-2071-75cb-8026-6699844a2719","","791","
                <div class=""stimulus-container"">
                    <img src=""images/causal_sequence/dog_causal/dog_causal_7.png"" class=""exp-image"">
                    <div class=""question-area"">
                        <p style=""font-size: 20px; font-weight: bold; margin: 0;"">Is there a person in this image?</p>
                    </div>
                </div>","0","main_experiment_trial","7","dog_causal","causal_sequence","chronological","","","","","","","",""
"","","","","","html-keyboard-response","136","461825","0.0-136.0","845B57C90A934B43B5D8BB36F755CDF9","019d6649-9fc1-77c5-b4de-454b1db2ddb6","019d6630-2071-75cb-8026-6699844a2719","","null","
                <div class=""stimulus-container"">
                    <img src=""images/causal_sequence/dog_causal/dog_causal_8.png"" class=""exp-image"">
                    <div class=""question-area""></div> 
                </div>","null","","","","","","","","","","","","",""
"","","","","","html-button-response","137","462397","0.0-137.0","845B57C90A934B43B5D8BB36F755CDF9","019d6649-9fc1-77c5-b4de-454b1db2ddb6","019d6630-2071-75cb-8026-6699844a2719","","571","
                <div class=""stimulus-container"">
                    <img src=""images/causal_sequence/dog_causal/dog_causal_8.png"" class=""exp-image"">
                    <div class=""question-area"">
                        <p style=""font-size: 20px; font-weight: bold; margin: 0;"">Is there a person in this image?</p>
                    </div>
                </div>","0","main_experiment_trial","8","dog_causal","causal_sequence","chronological","","","","","","","",""
"","","","","","html-keyboard-response","138","467399","0.0-138.0","845B57C90A934B43B5D8BB36F755CDF9","019d6649-9fc1-77c5-b4de-454b1db2ddb6","019d6630-2071-75cb-8026-6699844a2719","","null","
                <div class=""stimulus-container"">
                    <img src=""images/causal_sequence/dog_causal/dog_causal_9.png"" class=""exp-image"">
                    <div class=""question-area""></div> 
                </div>","null","","","","","","","","","","","","",""
"","","","","","html-button-response","139","468012","0.0-139.0","845B57C90A934B43B5D8BB36F755CDF9","019d6649-9fc1-77c5-b4de-454b1db2ddb6","019d6630-2071-75cb-8026-6699844a2719","","612","
                <div class=""stimulus-container"">
                    <img src=""images/causal_sequence/dog_causal/dog_causal_9.png"" class=""exp-image"">
                    <div class=""question-area"">
                        <p style=""font-size: 20px; font-weight: bold; margin: 0;"">Is there a person in this image?</p>
                    </div>
                </div>","0","main_experiment_trial","9","dog_causal","causal_sequence","chronological","","","","","","","",""
"","","","","","html-keyboard-response","140","473014","0.0-140.0","845B57C90A934B43B5D8BB36F755CDF9","019d6649-9fc1-77c5-b4de-454b1db2ddb6","019d6630-2071-75cb-8026-6699844a2719","","null","
                <div class=""stimulus-container"">
                    <img src=""images/causal_sequence/dog_causal/dog_causal_ten.png"" class=""exp-image"">
                    <div class=""question-area""></div> 
                </div>","null","","","","","","","","","","","","",""
"","","","","","html-button-response","141","473684","0.0-141.0","845B57C90A934B43B5D8BB36F755CDF9","019d6649-9fc1-77c5-b4de-454b1db2ddb6","019d6630-2071-75cb-8026-6699844a2719","","668","
                <div class=""stimulus-container"">
                    <img src=""images/causal_sequence/dog_causal/dog_causal_ten.png"" class=""exp-image"">
                    <div class=""question-area"">
                        <p style=""font-size: 20px; font-weight: bold; margin: 0;"">Is there a person in this image?</p>
                    </div>
                </div>","0","main_experiment_trial","ten","dog_causal","causal_sequence","chronological","","","","","","","",""
"","","","","","html-keyboard-response","142","478685","0.0-142.0","845B57C90A934B43B5D8BB36F755CDF9","019d6649-9fc1-77c5-b4de-454b1db2ddb6","019d6630-2071-75cb-8026-6699844a2719","","null","<div style=""background-color: white; width: 100vw; height: 100vh;""></div>","null","","","","","","","","","","","","",""
"","","","","","html-keyboard-response","143","483686","0.0-143.0","845B57C90A934B43B5D8BB36F755CDF9","019d6649-9fc1-77c5-b4de-454b1db2ddb6","019d6630-2071-75cb-8026-6699844a2719","","null","
                <div class=""stimulus-container"">
                    <img src=""images/schematic_sequence/hotel_scheme/hotel_scheme_1.png"" class=""exp-image"">
                    <div class=""question-area""></div> 
                </div>","null","","","","","","","","","","","","",""
"","","","","","html-button-response","144","484458","0.0-144.0","845B57C90A934B43B5D8BB36F755CDF9","019d6649-9fc1-77c5-b4de-454b1db2ddb6","019d6630-2071-75cb-8026-6699844a2719","","771","
                <div class=""stimulus-container"">
                    <img src=""images/schematic_sequence/hotel_scheme/hotel_scheme_1.png"" class=""exp-image"">
                    <div class=""question-area"">
                        <p style=""font-size: 20px; font-weight: bold; margin: 0;"">Is there a person in this image?</p>
                    </div>
                </div>","1","main_experiment_trial","1","hotel_scheme","schematic_sequence","chronological","","","","","","","",""
"","","","","","html-keyboard-response","145","489468","0.0-145.0","845B57C90A934B43B5D8BB36F755CDF9","019d6649-9fc1-77c5-b4de-454b1db2ddb6","019d6630-2071-75cb-8026-6699844a2719","","null","
                <div class=""stimulus-container"">
                    <img src=""images/schematic_sequence/hotel_scheme/hotel_scheme_2.png"" class=""exp-image"">
                    <div class=""question-area""></div> 
                </div>","null","","","","","","","","","","","","",""
"","","","","","html-button-response","146","490112","0.0-146.0","845B57C90A934B43B5D8BB36F755CDF9","019d6649-9fc1-77c5-b4de-454b1db2ddb6","019d6630-2071-75cb-8026-6699844a2719","","643","
                <div class=""stimulus-container"">
                    <img src=""images/schematic_sequence/hotel_scheme/hotel_scheme_2.png"" class=""exp-image"">
                    <div class=""question-area"">
                        <p style=""font-size: 20px; font-weight: bold; margin: 0;"">Is there a person in this image?</p>
                    </div>
                </div>","0","main_experiment_trial","2","hotel_scheme","schematic_sequence","chronological","","","","","","","",""
"","","","","","html-keyboard-response","147","495113","0.0-147.0","845B57C90A934B43B5D8BB36F755CDF9","019d6649-9fc1-77c5-b4de-454b1db2ddb6","019d6630-2071-75cb-8026-6699844a2719","","null","
                <div class=""stimulus-container"">
                    <img src=""images/schematic_sequence/hotel_scheme/hotel_scheme_3.png"" class=""exp-image"">
                    <div class=""question-area""></div> 
                </div>","null","","","","","","","","","","","","",""
"","","","","","html-button-response","148","495531","0.0-148.0","845B57C90A934B43B5D8BB36F755CDF9","019d6649-9fc1-77c5-b4de-454b1db2ddb6","019d6630-2071-75cb-8026-6699844a2719","","416","
                <div class=""stimulus-container"">
                    <img src=""images/schematic_sequence/hotel_scheme/hotel_scheme_3.png"" class=""exp-image"">
                    <div class=""question-area"">
                        <p style=""font-size: 20px; font-weight: bold; margin: 0;"">Is there a person in this image?</p>
                    </div>
                </div>","0","main_experiment_trial","3","hotel_scheme","schematic_sequence","chronological","","","","","","","",""
"","","","","","html-keyboard-response","149","500533","0.0-149.0","845B57C90A934B43B5D8BB36F755CDF9","019d6649-9fc1-77c5-b4de-454b1db2ddb6","019d6630-2071-75cb-8026-6699844a2719","","null","
                <div class=""stimulus-container"">
                    <img src=""images/schematic_sequence/hotel_scheme/hotel_scheme_4.png"" class=""exp-image"">
                    <div class=""question-area""></div> 
                </div>","null","","","","","","","","","","","","",""
"","","","","","html-button-response","150","501271","0.0-150.0","845B57C90A934B43B5D8BB36F755CDF9","019d6649-9fc1-77c5-b4de-454b1db2ddb6","019d6630-2071-75cb-8026-6699844a2719","","736","
                <div class=""stimulus-container"">
                    <img src=""images/schematic_sequence/hotel_scheme/hotel_scheme_4.png"" class=""exp-image"">
                    <div class=""question-area"">
                        <p style=""font-size: 20px; font-weight: bold; margin: 0;"">Is there a person in this image?</p>
                    </div>
                </div>","1","main_experiment_trial","4","hotel_scheme","schematic_sequence","chronological","","","","","","","",""
"","","","","","html-keyboard-response","151","506273","0.0-151.0","845B57C90A934B43B5D8BB36F755CDF9","019d6649-9fc1-77c5-b4de-454b1db2ddb6","019d6630-2071-75cb-8026-6699844a2719","","null","
                <div class=""stimulus-container"">
                    <img src=""images/schematic_sequence/hotel_scheme/hotel_scheme_5.png"" class=""exp-image"">
                    <div class=""question-area""></div> 
                </div>","null","","","","","","","","","","","","",""
"","","","","","html-button-response","152","507881","0.0-152.0","845B57C90A934B43B5D8BB36F755CDF9","019d6649-9fc1-77c5-b4de-454b1db2ddb6","019d6630-2071-75cb-8026-6699844a2719","","1606","
                <div class=""stimulus-container"">
                    <img src=""images/schematic_sequence/hotel_scheme/hotel_scheme_5.png"" class=""exp-image"">
                    <div class=""question-area"">
                        <p style=""font-size: 20px; font-weight: bold; margin: 0;"">Is there a person in this image?</p>
                    </div>
                </div>","0","main_experiment_trial","5","hotel_scheme","schematic_sequence","chronological","","","","","","","",""
"","","","","","html-keyboard-response","153","512883","0.0-153.0","845B57C90A934B43B5D8BB36F755CDF9","019d6649-9fc1-77c5-b4de-454b1db2ddb6","019d6630-2071-75cb-8026-6699844a2719","","null","
                <div class=""stimulus-container"">
                    <img src=""images/schematic_sequence/hotel_scheme/hotel_scheme_6.png"" class=""exp-image"">
                    <div class=""question-area""></div> 
                </div>","null","","","","","","","","","","","","",""
"","","","","","html-button-response","154","513361","0.0-154.0","845B57C90A934B43B5D8BB36F755CDF9","019d6649-9fc1-77c5-b4de-454b1db2ddb6","019d6630-2071-75cb-8026-6699844a2719","","477","
                <div class=""stimulus-container"">
                    <img src=""images/schematic_sequence/hotel_scheme/hotel_scheme_6.png"" class=""exp-image"">
                    <div class=""question-area"">
                        <p style=""font-size: 20px; font-weight: bold; margin: 0;"">Is there a person in this image?</p>
                    </div>
                </div>","0","main_experiment_trial","6","hotel_scheme","schematic_sequence","chronological","","","","","","","",""
"","","","","","html-keyboard-response","155","518363","0.0-155.0","845B57C90A934B43B5D8BB36F755CDF9","019d6649-9fc1-77c5-b4de-454b1db2ddb6","019d6630-2071-75cb-8026-6699844a2719","","null","
                <div class=""stimulus-container"">
                    <img src=""images/schematic_sequence/hotel_scheme/hotel_scheme_7.png"" class=""exp-image"">
                    <div class=""question-area""></div> 
                </div>","null","","","","","","","","","","","","",""
"","","","","","html-button-response","156","518771","0.0-156.0","845B57C90A934B43B5D8BB36F755CDF9","019d6649-9fc1-77c5-b4de-454b1db2ddb6","019d6630-2071-75cb-8026-6699844a2719","","407","
                <div class=""stimulus-container"">
                    <img src=""images/schematic_sequence/hotel_scheme/hotel_scheme_7.png"" class=""exp-image"">
                    <div class=""question-area"">
                        <p style=""font-size: 20px; font-weight: bold; margin: 0;"">Is there a person in this image?</p>
                    </div>
                </div>","0","main_experiment_trial","7","hotel_scheme","schematic_sequence","chronological","","","","","","","",""
"","","","","","html-keyboard-response","157","523773","0.0-157.0","845B57C90A934B43B5D8BB36F755CDF9","019d6649-9fc1-77c5-b4de-454b1db2ddb6","019d6630-2071-75cb-8026-6699844a2719","","null","
                <div class=""stimulus-container"">
                    <img src=""images/schematic_sequence/hotel_scheme/hotel_scheme_8.png"" class=""exp-image"">
                    <div class=""question-area""></div> 
                </div>","null","","","","","","","","","","","","",""
"","","","","","html-button-response","158","524197","0.0-158.0","845B57C90A934B43B5D8BB36F755CDF9","019d6649-9fc1-77c5-b4de-454b1db2ddb6","019d6630-2071-75cb-8026-6699844a2719","","423","
                <div class=""stimulus-container"">
                    <img src=""images/schematic_sequence/hotel_scheme/hotel_scheme_8.png"" class=""exp-image"">
                    <div class=""question-area"">
                        <p style=""font-size: 20px; font-weight: bold; margin: 0;"">Is there a person in this image?</p>
                    </div>
                </div>","0","main_experiment_trial","8","hotel_scheme","schematic_sequence","chronological","","","","","","","",""
"","","","","","html-keyboard-response","159","529198","0.0-159.0","845B57C90A934B43B5D8BB36F755CDF9","019d6649-9fc1-77c5-b4de-454b1db2ddb6","019d6630-2071-75cb-8026-6699844a2719","","null","
                <div class=""stimulus-container"">
                    <img src=""images/schematic_sequence/hotel_scheme/hotel_scheme_9.png"" class=""exp-image"">
                    <div class=""question-area""></div> 
                </div>","null","","","","","","","","","","","","",""
"","","","","","html-button-response","160","529875","0.0-160.0","845B57C90A934B43B5D8BB36F755CDF9","019d6649-9fc1-77c5-b4de-454b1db2ddb6","019d6630-2071-75cb-8026-6699844a2719","","676","
                <div class=""stimulus-container"">
                    <img src=""images/schematic_sequence/hotel_scheme/hotel_scheme_9.png"" class=""exp-image"">
                    <div class=""question-area"">
                        <p style=""font-size: 20px; font-weight: bold; margin: 0;"">Is there a person in this image?</p>
                    </div>
                </div>","0","main_experiment_trial","9","hotel_scheme","schematic_sequence","chronological","","","","","","","",""
"","","","","","html-keyboard-response","161","534876","0.0-161.0","845B57C90A934B43B5D8BB36F755CDF9","019d6649-9fc1-77c5-b4de-454b1db2ddb6","019d6630-2071-75cb-8026-6699844a2719","","null","
                <div class=""stimulus-container"">
                    <img src=""images/schematic_sequence/hotel_scheme/hotel_scheme_ten.png"" class=""exp-image"">
                    <div class=""question-area""></div> 
                </div>","null","","","","","","","","","","","","",""
"","","","","","html-button-response","162","535610","0.0-162.0","845B57C90A934B43B5D8BB36F755CDF9","019d6649-9fc1-77c5-b4de-454b1db2ddb6","019d6630-2071-75cb-8026-6699844a2719","","733","
                <div class=""stimulus-container"">
                    <img src=""images/schematic_sequence/hotel_scheme/hotel_scheme_ten.png"" class=""exp-image"">
                    <div class=""question-area"">
                        <p style=""font-size: 20px; font-weight: bold; margin: 0;"">Is there a person in this image?</p>
                    </div>
                </div>","0","main_experiment_trial","ten","hotel_scheme","schematic_sequence","chronological","","","","","","","",""
"","","","","","html-keyboard-response","163","540611","0.0-163.0","845B57C90A934B43B5D8BB36F755CDF9","019d6649-9fc1-77c5-b4de-454b1db2ddb6","019d6630-2071-75cb-8026-6699844a2719","","null","<div style=""background-color: white; width: 100vw; height: 100vh;""></div>","null","","","","","","","","","","","","",""
"","","","","","html-keyboard-response","164","545613","0.0-164.0","845B57C90A934B43B5D8BB36F755CDF9","019d6649-9fc1-77c5-b4de-454b1db2ddb6","019d6630-2071-75cb-8026-6699844a2719","","null","
                <div class=""stimulus-container"">
                    <img src=""images/causal_sequence/the_performance_causal/the_performance_causal_1.png"" class=""exp-image"">
                    <div class=""question-area""></div> 
                </div>","null","","","","","","","","","","","","",""
"","","","","","html-button-response","165","546039","0.0-165.0","845B57C90A934B43B5D8BB36F755CDF9","019d6649-9fc1-77c5-b4de-454b1db2ddb6","019d6630-2071-75cb-8026-6699844a2719","","425","
                <div class=""stimulus-container"">
                    <img src=""images/causal_sequence/the_performance_causal/the_performance_causal_1.png"" class=""exp-image"">
                    <div class=""question-area"">
                        <p style=""font-size: 20px; font-weight: bold; margin: 0;"">Is there a person in this image?</p>
                    </div>
                </div>","0","main_experiment_trial","1","the_performance_causal","causal_sequence","chronological","","","","","","","",""
"","","","","","html-keyboard-response","166","551041","0.0-166.0","845B57C90A934B43B5D8BB36F755CDF9","019d6649-9fc1-77c5-b4de-454b1db2ddb6","019d6630-2071-75cb-8026-6699844a2719","","null","
                <div class=""stimulus-container"">
                    <img src=""images/causal_sequence/the_performance_causal/the_performance_causal_2.png"" class=""exp-image"">
                    <div class=""question-area""></div> 
                </div>","null","","","","","","","","","","","","",""
"","","","","","html-button-response","167","551610","0.0-167.0","845B57C90A934B43B5D8BB36F755CDF9","019d6649-9fc1-77c5-b4de-454b1db2ddb6","019d6630-2071-75cb-8026-6699844a2719","","567","
                <div class=""stimulus-container"">
                    <img src=""images/causal_sequence/the_performance_causal/the_performance_causal_2.png"" class=""exp-image"">
                    <div class=""question-area"">
                        <p style=""font-size: 20px; font-weight: bold; margin: 0;"">Is there a person in this image?</p>
                    </div>
                </div>","0","main_experiment_trial","2","the_performance_causal","causal_sequence","chronological","","","","","","","",""
"","","","","","html-keyboard-response","168","556611","0.0-168.0","845B57C90A934B43B5D8BB36F755CDF9","019d6649-9fc1-77c5-b4de-454b1db2ddb6","019d6630-2071-75cb-8026-6699844a2719","","null","
                <div class=""stimulus-container"">
                    <img src=""images/causal_sequence/the_performance_causal/the_performance_causal_3.png"" class=""exp-image"">
                    <div class=""question-area""></div> 
                </div>","null","","","","","","","","","","","","",""
"","","","","","html-button-response","169","556934","0.0-169.0","845B57C90A934B43B5D8BB36F755CDF9","019d6649-9fc1-77c5-b4de-454b1db2ddb6","019d6630-2071-75cb-8026-6699844a2719","","321","
                <div class=""stimulus-container"">
                    <img src=""images/causal_sequence/the_performance_causal/the_performance_causal_3.png"" class=""exp-image"">
                    <div class=""question-area"">
                        <p style=""font-size: 20px; font-weight: bold; margin: 0;"">Is there a person in this image?</p>
                    </div>
                </div>","0","main_experiment_trial","3","the_performance_causal","causal_sequence","chronological","","","","","","","",""
"","","","","","html-keyboard-response","170","561936","0.0-170.0","845B57C90A934B43B5D8BB36F755CDF9","019d6649-9fc1-77c5-b4de-454b1db2ddb6","019d6630-2071-75cb-8026-6699844a2719","","null","
                <div class=""stimulus-container"">
                    <img src=""images/causal_sequence/the_performance_causal/the_performance_causal_4.png"" class=""exp-image"">
                    <div class=""question-area""></div> 
                </div>","null","","","","","","","","","","","","",""
"","","","","","html-button-response","171","562364","0.0-171.0","845B57C90A934B43B5D8BB36F755CDF9","019d6649-9fc1-77c5-b4de-454b1db2ddb6","019d6630-2071-75cb-8026-6699844a2719","","427","
                <div class=""stimulus-container"">
                    <img src=""images/causal_sequence/the_performance_causal/the_performance_causal_4.png"" class=""exp-image"">
                    <div class=""question-area"">
                        <p style=""font-size: 20px; font-weight: bold; margin: 0;"">Is there a person in this image?</p>
                    </div>
                </div>","0","main_experiment_trial","4","the_performance_causal","causal_sequence","chronological","","","","","","","",""
"","","","","","html-keyboard-response","172","567365","0.0-172.0","845B57C90A934B43B5D8BB36F755CDF9","019d6649-9fc1-77c5-b4de-454b1db2ddb6","019d6630-2071-75cb-8026-6699844a2719","","null","
                <div class=""stimulus-container"">
                    <img src=""images/causal_sequence/the_performance_causal/the_performance_causal_5.png"" class=""exp-image"">
                    <div class=""question-area""></div> 
                </div>","null","","","","","","","","","","","","",""
"","","","","","html-button-response","173","567760","0.0-173.0","845B57C90A934B43B5D8BB36F755CDF9","019d6649-9fc1-77c5-b4de-454b1db2ddb6","019d6630-2071-75cb-8026-6699844a2719","","394","
                <div class=""stimulus-container"">
                    <img src=""images/causal_sequence/the_performance_causal/the_performance_causal_5.png"" class=""exp-image"">
                    <div class=""question-area"">
                        <p style=""font-size: 20px; font-weight: bold; margin: 0;"">Is there a person in this image?</p>
                    </div>
                </div>","0","main_experiment_trial","5","the_performance_causal","causal_sequence","chronological","","","","","","","",""
"","","","","","html-keyboard-response","174","572761","0.0-174.0","845B57C90A934B43B5D8BB36F755CDF9","019d6649-9fc1-77c5-b4de-454b1db2ddb6","019d6630-2071-75cb-8026-6699844a2719","","null","
                <div class=""stimulus-container"">
                    <img src=""images/causal_sequence/the_performance_causal/the_performance_causal_6.png"" class=""exp-image"">
                    <div class=""question-area""></div> 
                </div>","null","","","","","","","","","","","","",""
"","","","","","html-button-response","175","573358","0.0-175.0","845B57C90A934B43B5D8BB36F755CDF9","019d6649-9fc1-77c5-b4de-454b1db2ddb6","019d6630-2071-75cb-8026-6699844a2719","","596","
                <div class=""stimulus-container"">
                    <img src=""images/causal_sequence/the_performance_causal/the_performance_causal_6.png"" class=""exp-image"">
                    <div class=""question-area"">
                        <p style=""font-size: 20px; font-weight: bold; margin: 0;"">Is there a person in this image?</p>
                    </div>
                </div>","0","main_experiment_trial","6","the_performance_causal","causal_sequence","chronological","","","","","","","",""
"","","","","","html-keyboard-response","176","578360","0.0-176.0","845B57C90A934B43B5D8BB36F755CDF9","019d6649-9fc1-77c5-b4de-454b1db2ddb6","019d6630-2071-75cb-8026-6699844a2719","","null","
                <div class=""stimulus-container"">
                    <img src=""images/causal_sequence/the_performance_causal/the_performance_causal_7.png"" class=""exp-image"">
                    <div class=""question-area""></div> 
