"success","timeout","failed_images","failed_audio","failed_video","trial_type","trial_index","time_elapsed","internal_node_id","subject_id","study_id","session_id","view_history","rt","stimulus","response","task","image_index","folder","sequence_type","presentation_order","valuable_image_index","reward_type","distance_from_x","target_X","chosen_image_index","is_x_plus_dist","correct_choice"
"true","false","[]","[]","[]","preload","0","4224","0.0-0.0","46C36D77E4B247AE95721BC9779FE422","019cfa3b-1cff-7060-8c54-b2c8d56c123e","019cfa3a-388e-72ab-ad58-bdeb258f96cd","","","","","","","","","","","","","","","",""
"","","","","","instructions","1","6712","0.0-1.0","46C36D77E4B247AE95721BC9779FE422","019cfa3b-1cff-7060-8c54-b2c8d56c123e","019cfa3a-388e-72ab-ad58-bdeb258f96cd","[{""page_index"":0,""viewing_time"":2486}]","2486","","","","","","","","","","","","","",""
"","","","","","instructions","2","8850","0.0-2.0","46C36D77E4B247AE95721BC9779FE422","019cfa3b-1cff-7060-8c54-b2c8d56c123e","019cfa3a-388e-72ab-ad58-bdeb258f96cd","[{""page_index"":0,""viewing_time"":2138}]","2138","","","","","","","","","","","","","",""
"true","","","","","fullscreen","3","10913","0.0-3.0","46C36D77E4B247AE95721BC9779FE422","019cfa3b-1cff-7060-8c54-b2c8d56c123e","019cfa3a-388e-72ab-ad58-bdeb258f96cd","","1030","","","","","","","","","","","","","",""
"","","","","","instructions","4","19221","0.0-4.0","46C36D77E4B247AE95721BC9779FE422","019cfa3b-1cff-7060-8c54-b2c8d56c123e","019cfa3a-388e-72ab-ad58-bdeb258f96cd","[{""page_index"":0,""viewing_time"":8308}]","8308","","","","","","","","","","","","","",""
"","","","","","instructions","5","29295","0.0-5.0","46C36D77E4B247AE95721BC9779FE422","019cfa3b-1cff-7060-8c54-b2c8d56c123e","019cfa3a-388e-72ab-ad58-bdeb258f96cd","[{""page_index"":0,""viewing_time"":10073}]","10073","","","","","","","","","","","","","",""
"","","","","","html-keyboard-response","6","33297","0.0-6.0","46C36D77E4B247AE95721BC9779FE422","019cfa3b-1cff-7060-8c54-b2c8d56c123e","019cfa3a-388e-72ab-ad58-bdeb258f96cd","","null","
                <div class=""stimulus-container"">
                    <img src=""images/instructions/movie_1.png"" class=""exp-image"">
                    <div class=""question-area""></div> 
                </div>","null","","","","","","","","","","","",""
"","","","","","html-button-response","7","34282","0.0-7.0","46C36D77E4B247AE95721BC9779FE422","019cfa3b-1cff-7060-8c54-b2c8d56c123e","019cfa3a-388e-72ab-ad58-bdeb258f96cd","","984","
                <div class=""stimulus-container"">
                    <img src=""images/instructions/movie_1.png"" class=""exp-image"">
                    <div class=""question-area"">
                        <p style=""font-size: 20px; font-weight: bold; margin: 0;"">Was there a person in this image?</p>
                    </div>
                </div>","0","example_question","1","","","","","","","","","",""
"","","","","","html-keyboard-response","8","38289","0.0-8.0","46C36D77E4B247AE95721BC9779FE422","019cfa3b-1cff-7060-8c54-b2c8d56c123e","019cfa3a-388e-72ab-ad58-bdeb258f96cd","","null","
                <div class=""stimulus-container"">
                    <img src=""images/instructions/movie_2.png"" class=""exp-image"">
                    <div class=""question-area""></div> 
                </div>","null","","","","","","","","","","","",""
"","","","","","html-button-response","9","38909","0.0-9.0","46C36D77E4B247AE95721BC9779FE422","019cfa3b-1cff-7060-8c54-b2c8d56c123e","019cfa3a-388e-72ab-ad58-bdeb258f96cd","","620","
                <div class=""stimulus-container"">
                    <img src=""images/instructions/movie_2.png"" class=""exp-image"">
                    <div class=""question-area"">
                        <p style=""font-size: 20px; font-weight: bold; margin: 0;"">Was there a person in this image?</p>
                    </div>
                </div>","0","example_question","2","","","","","","","","","",""
"","","","","","html-keyboard-response","10","42917","0.0-10.0","46C36D77E4B247AE95721BC9779FE422","019cfa3b-1cff-7060-8c54-b2c8d56c123e","019cfa3a-388e-72ab-ad58-bdeb258f96cd","","null","
                <div class=""stimulus-container"">
                    <img src=""images/instructions/movie_3.png"" class=""exp-image"">
                    <div class=""question-area""></div> 
                </div>","null","","","","","","","","","","","",""
"","","","","","html-button-response","11","43569","0.0-11.0","46C36D77E4B247AE95721BC9779FE422","019cfa3b-1cff-7060-8c54-b2c8d56c123e","019cfa3a-388e-72ab-ad58-bdeb258f96cd","","651","
                <div class=""stimulus-container"">
                    <img src=""images/instructions/movie_3.png"" class=""exp-image"">
                    <div class=""question-area"">
                        <p style=""font-size: 20px; font-weight: bold; margin: 0;"">Was there a person in this image?</p>
                    </div>
                </div>","0","example_question","3","","","","","","","","","",""
"","","","","","html-keyboard-response","12","47570","0.0-12.0","46C36D77E4B247AE95721BC9779FE422","019cfa3b-1cff-7060-8c54-b2c8d56c123e","019cfa3a-388e-72ab-ad58-bdeb258f96cd","","null","
                <div class=""stimulus-container"">
                    <img src=""images/instructions/movie_4.png"" class=""exp-image"">
                    <div class=""question-area""></div> 
                </div>","null","","","","","","","","","","","",""
"","","","","","html-button-response","13","48137","0.0-13.0","46C36D77E4B247AE95721BC9779FE422","019cfa3b-1cff-7060-8c54-b2c8d56c123e","019cfa3a-388e-72ab-ad58-bdeb258f96cd","","567","
                <div class=""stimulus-container"">
                    <img src=""images/instructions/movie_4.png"" class=""exp-image"">
                    <div class=""question-area"">
                        <p style=""font-size: 20px; font-weight: bold; margin: 0;"">Was there a person in this image?</p>
                    </div>
                </div>","0","example_question","4","","","","","","","","","",""
"","","","","","instructions","14","49582","0.0-14.0","46C36D77E4B247AE95721BC9779FE422","019cfa3b-1cff-7060-8c54-b2c8d56c123e","019cfa3a-388e-72ab-ad58-bdeb258f96cd","[{""page_index"":0,""viewing_time"":1444}]","1445","","","","","","","","","","","","","",""
"","","","","","instructions","15","55064","0.0-15.0","46C36D77E4B247AE95721BC9779FE422","019cfa3b-1cff-7060-8c54-b2c8d56c123e","019cfa3a-388e-72ab-ad58-bdeb258f96cd","[{""page_index"":0,""viewing_time"":5481}]","5482","","","","","","","","","","","","","",""
"","","","","","html-keyboard-response","16","60066","0.0-16.0","46C36D77E4B247AE95721BC9779FE422","019cfa3b-1cff-7060-8c54-b2c8d56c123e","019cfa3a-388e-72ab-ad58-bdeb258f96cd","","null","<div style=""background-color: white; width: 100vw; height: 100vh;""></div>","null","","","","","","","","","","","",""
"","","","","","html-keyboard-response","17","61070","0.0-17.0","46C36D77E4B247AE95721BC9779FE422","019cfa3b-1cff-7060-8c54-b2c8d56c123e","019cfa3a-388e-72ab-ad58-bdeb258f96cd","","null","
                <div class=""stimulus-container"">
                    <img src=""images/causal_sequence/dog_causal/dog_causal_1.png"" class=""exp-image"">
                    <div class=""question-area""></div> 
                </div>","null","","","","","","","","","","","",""
"","","","","","html-button-response","18","62339","0.0-18.0","46C36D77E4B247AE95721BC9779FE422","019cfa3b-1cff-7060-8c54-b2c8d56c123e","019cfa3a-388e-72ab-ad58-bdeb258f96cd","","1268","
                <div class=""stimulus-container"">
                    <img src=""images/causal_sequence/dog_causal/dog_causal_1.png"" class=""exp-image"">
                    <div class=""question-area"">
                        <p style=""font-size: 20px; font-weight: bold; margin: 0;"">Is there a person in this image?</p>
                    </div>
                </div>","0","main_experiment_trial","1","dog_causal","causal_sequence","chronological","","","","","","",""
"","","","","","html-keyboard-response","19","63355","0.0-19.0","46C36D77E4B247AE95721BC9779FE422","019cfa3b-1cff-7060-8c54-b2c8d56c123e","019cfa3a-388e-72ab-ad58-bdeb258f96cd","","null","
                <div class=""stimulus-container"">
                    <img src=""images/causal_sequence/dog_causal/dog_causal_2.png"" class=""exp-image"">
                    <div class=""question-area""></div> 
                </div>","null","","","","","","","","","","","",""
"","","","","","html-button-response","20","63899","0.0-20.0","46C36D77E4B247AE95721BC9779FE422","019cfa3b-1cff-7060-8c54-b2c8d56c123e","019cfa3a-388e-72ab-ad58-bdeb258f96cd","","544","
                <div class=""stimulus-container"">
                    <img src=""images/causal_sequence/dog_causal/dog_causal_2.png"" class=""exp-image"">
                    <div class=""question-area"">
                        <p style=""font-size: 20px; font-weight: bold; margin: 0;"">Is there a person in this image?</p>
                    </div>
                </div>","0","main_experiment_trial","2","dog_causal","causal_sequence","chronological","","","","","","",""
"","","","","","html-keyboard-response","21","64901","0.0-21.0","46C36D77E4B247AE95721BC9779FE422","019cfa3b-1cff-7060-8c54-b2c8d56c123e","019cfa3a-388e-72ab-ad58-bdeb258f96cd","","null","
                <div class=""stimulus-container"">
                    <img src=""images/causal_sequence/dog_causal/dog_causal_3.png"" class=""exp-image"">
                    <div class=""question-area""></div> 
                </div>","null","","","","","","","","","","","",""
"","","","","","html-button-response","22","65416","0.0-22.0","46C36D77E4B247AE95721BC9779FE422","019cfa3b-1cff-7060-8c54-b2c8d56c123e","019cfa3a-388e-72ab-ad58-bdeb258f96cd","","514","
                <div class=""stimulus-container"">
                    <img src=""images/causal_sequence/dog_causal/dog_causal_3.png"" class=""exp-image"">
                    <div class=""question-area"">
                        <p style=""font-size: 20px; font-weight: bold; margin: 0;"">Is there a person in this image?</p>
                    </div>
                </div>","0","main_experiment_trial","3","dog_causal","causal_sequence","chronological","","","","","","",""
"","","","","","html-keyboard-response","23","66425","0.0-23.0","46C36D77E4B247AE95721BC9779FE422","019cfa3b-1cff-7060-8c54-b2c8d56c123e","019cfa3a-388e-72ab-ad58-bdeb258f96cd","","null","
                <div class=""stimulus-container"">
                    <img src=""images/causal_sequence/dog_causal/dog_causal_4.png"" class=""exp-image"">
                    <div class=""question-area""></div> 
                </div>","null","","","","","","","","","","","",""
"","","","","","html-button-response","24","67244","0.0-24.0","46C36D77E4B247AE95721BC9779FE422","019cfa3b-1cff-7060-8c54-b2c8d56c123e","019cfa3a-388e-72ab-ad58-bdeb258f96cd","","818","
                <div class=""stimulus-container"">
                    <img src=""images/causal_sequence/dog_causal/dog_causal_4.png"" class=""exp-image"">
                    <div class=""question-area"">
                        <p style=""font-size: 20px; font-weight: bold; margin: 0;"">Is there a person in this image?</p>
                    </div>
                </div>","0","main_experiment_trial","4","dog_causal","causal_sequence","chronological","","","","","","",""
"","","","","","html-keyboard-response","25","68257","0.0-25.0","46C36D77E4B247AE95721BC9779FE422","019cfa3b-1cff-7060-8c54-b2c8d56c123e","019cfa3a-388e-72ab-ad58-bdeb258f96cd","","null","
                <div class=""stimulus-container"">
                    <img src=""images/causal_sequence/dog_causal/dog_causal_5.png"" class=""exp-image"">
                    <div class=""question-area""></div> 
                </div>","null","","","","","","","","","","","",""
"","","","","","html-button-response","26","68887","0.0-26.0","46C36D77E4B247AE95721BC9779FE422","019cfa3b-1cff-7060-8c54-b2c8d56c123e","019cfa3a-388e-72ab-ad58-bdeb258f96cd","","629","
                <div class=""stimulus-container"">
                    <img src=""images/causal_sequence/dog_causal/dog_causal_5.png"" class=""exp-image"">
                    <div class=""question-area"">
                        <p style=""font-size: 20px; font-weight: bold; margin: 0;"">Is there a person in this image?</p>
                    </div>
                </div>","0","main_experiment_trial","5","dog_causal","causal_sequence","chronological","","","","","","",""
"","","","","","html-keyboard-response","27","69895","0.0-27.0","46C36D77E4B247AE95721BC9779FE422","019cfa3b-1cff-7060-8c54-b2c8d56c123e","019cfa3a-388e-72ab-ad58-bdeb258f96cd","","null","
                <div class=""stimulus-container"">
                    <img src=""images/causal_sequence/dog_causal/dog_causal_6.png"" class=""exp-image"">
                    <div class=""question-area""></div> 
                </div>","null","","","","","","","","","","","",""
"","","","","","html-button-response","28","70634","0.0-28.0","46C36D77E4B247AE95721BC9779FE422","019cfa3b-1cff-7060-8c54-b2c8d56c123e","019cfa3a-388e-72ab-ad58-bdeb258f96cd","","738","
                <div class=""stimulus-container"">
                    <img src=""images/causal_sequence/dog_causal/dog_causal_6.png"" class=""exp-image"">
                    <div class=""question-area"">
                        <p style=""font-size: 20px; font-weight: bold; margin: 0;"">Is there a person in this image?</p>
                    </div>
                </div>","0","main_experiment_trial","6","dog_causal","causal_sequence","chronological","","","","","","",""
"","","","","","html-keyboard-response","29","71644","0.0-29.0","46C36D77E4B247AE95721BC9779FE422","019cfa3b-1cff-7060-8c54-b2c8d56c123e","019cfa3a-388e-72ab-ad58-bdeb258f96cd","","null","
                <div class=""stimulus-container"">
                    <img src=""images/causal_sequence/dog_causal/dog_causal_7.png"" class=""exp-image"">
                    <div class=""question-area""></div> 
                </div>","null","","","","","","","","","","","",""
"","","","","","html-button-response","30","73072","0.0-30.0","46C36D77E4B247AE95721BC9779FE422","019cfa3b-1cff-7060-8c54-b2c8d56c123e","019cfa3a-388e-72ab-ad58-bdeb258f96cd","","1427","
                <div class=""stimulus-container"">
                    <img src=""images/causal_sequence/dog_causal/dog_causal_7.png"" class=""exp-image"">
                    <div class=""question-area"">
                        <p style=""font-size: 20px; font-weight: bold; margin: 0;"">Is there a person in this image?</p>
                    </div>
                </div>","0","main_experiment_trial","7","dog_causal","causal_sequence","chronological","","","","","","",""
"","","","","","html-keyboard-response","31","74075","0.0-31.0","46C36D77E4B247AE95721BC9779FE422","019cfa3b-1cff-7060-8c54-b2c8d56c123e","019cfa3a-388e-72ab-ad58-bdeb258f96cd","","null","
                <div class=""stimulus-container"">
                    <img src=""images/causal_sequence/dog_causal/dog_causal_8.png"" class=""exp-image"">
                    <div class=""question-area""></div> 
                </div>","null","","","","","","","","","","","",""
"","","","","","html-button-response","32","75584","0.0-32.0","46C36D77E4B247AE95721BC9779FE422","019cfa3b-1cff-7060-8c54-b2c8d56c123e","019cfa3a-388e-72ab-ad58-bdeb258f96cd","","1509","
                <div class=""stimulus-container"">
                    <img src=""images/causal_sequence/dog_causal/dog_causal_8.png"" class=""exp-image"">
                    <div class=""question-area"">
                        <p style=""font-size: 20px; font-weight: bold; margin: 0;"">Is there a person in this image?</p>
                    </div>
                </div>","0","main_experiment_trial","8","dog_causal","causal_sequence","chronological","","","","","","",""
"","","","","","html-keyboard-response","33","76597","0.0-33.0","46C36D77E4B247AE95721BC9779FE422","019cfa3b-1cff-7060-8c54-b2c8d56c123e","019cfa3a-388e-72ab-ad58-bdeb258f96cd","","null","
                <div class=""stimulus-container"">
                    <img src=""images/causal_sequence/dog_causal/dog_causal_9.png"" class=""exp-image"">
                    <div class=""question-area""></div> 
                </div>","null","","","","","","","","","","","",""
"","","","","","html-button-response","34","77077","0.0-34.0","46C36D77E4B247AE95721BC9779FE422","019cfa3b-1cff-7060-8c54-b2c8d56c123e","019cfa3a-388e-72ab-ad58-bdeb258f96cd","","479","
                <div class=""stimulus-container"">
                    <img src=""images/causal_sequence/dog_causal/dog_causal_9.png"" class=""exp-image"">
                    <div class=""question-area"">
                        <p style=""font-size: 20px; font-weight: bold; margin: 0;"">Is there a person in this image?</p>
                    </div>
                </div>","0","main_experiment_trial","9","dog_causal","causal_sequence","chronological","","","","","","",""
"","","","","","html-keyboard-response","35","78087","0.0-35.0","46C36D77E4B247AE95721BC9779FE422","019cfa3b-1cff-7060-8c54-b2c8d56c123e","019cfa3a-388e-72ab-ad58-bdeb258f96cd","","null","
                <div class=""stimulus-container"">
                    <img src=""images/causal_sequence/dog_causal/dog_causal_ten.png"" class=""exp-image"">
                    <div class=""question-area""></div> 
                </div>","null","","","","","","","","","","","",""
"","","","","","html-button-response","36","78532","0.0-36.0","46C36D77E4B247AE95721BC9779FE422","019cfa3b-1cff-7060-8c54-b2c8d56c123e","019cfa3a-388e-72ab-ad58-bdeb258f96cd","","444","
                <div class=""stimulus-container"">
                    <img src=""images/causal_sequence/dog_causal/dog_causal_ten.png"" class=""exp-image"">
                    <div class=""question-area"">
                        <p style=""font-size: 20px; font-weight: bold; margin: 0;"">Is there a person in this image?</p>
                    </div>
                </div>","0","main_experiment_trial","ten","dog_causal","causal_sequence","chronological","","","","","","",""
"","","","","","html-keyboard-response","37","83541","0.0-37.0","46C36D77E4B247AE95721BC9779FE422","019cfa3b-1cff-7060-8c54-b2c8d56c123e","019cfa3a-388e-72ab-ad58-bdeb258f96cd","","null","<div style=""background-color: white; width: 100vw; height: 100vh;""></div>","null","","","","","","","","","","","",""
"","","","","","html-keyboard-response","38","84553","0.0-38.0","46C36D77E4B247AE95721BC9779FE422","019cfa3b-1cff-7060-8c54-b2c8d56c123e","019cfa3a-388e-72ab-ad58-bdeb258f96cd","","null","
                <div class=""stimulus-container"">
                    <img src=""images/causal_sequence/coin_causal/coin_causal_1.png"" class=""exp-image"">
                    <div class=""question-area""></div> 
                </div>","null","","","","","","","","","","","",""
"","","","","","html-button-response","39","87254","0.0-39.0","46C36D77E4B247AE95721BC9779FE422","019cfa3b-1cff-7060-8c54-b2c8d56c123e","019cfa3a-388e-72ab-ad58-bdeb258f96cd","","2700","
                <div class=""stimulus-container"">
                    <img src=""images/causal_sequence/coin_causal/coin_causal_1.png"" class=""exp-image"">
                    <div class=""question-area"">
                        <p style=""font-size: 20px; font-weight: bold; margin: 0;"">Is there a person in this image?</p>
                    </div>
                </div>","0","main_experiment_trial","1","coin_causal","causal_sequence","chronological","","","","","","",""
"","","","","","html-keyboard-response","40","88266","0.0-40.0","46C36D77E4B247AE95721BC9779FE422","019cfa3b-1cff-7060-8c54-b2c8d56c123e","019cfa3a-388e-72ab-ad58-bdeb258f96cd","","null","
                <div class=""stimulus-container"">
                    <img src=""images/causal_sequence/coin_causal/coin_causal_2.png"" class=""exp-image"">
                    <div class=""question-area""></div> 
                </div>","null","","","","","","","","","","","",""
"","","","","","html-button-response","41","89445","0.0-41.0","46C36D77E4B247AE95721BC9779FE422","019cfa3b-1cff-7060-8c54-b2c8d56c123e","019cfa3a-388e-72ab-ad58-bdeb258f96cd","","1178","
                <div class=""stimulus-container"">
                    <img src=""images/causal_sequence/coin_causal/coin_causal_2.png"" class=""exp-image"">
                    <div class=""question-area"">
                        <p style=""font-size: 20px; font-weight: bold; margin: 0;"">Is there a person in this image?</p>
                    </div>
                </div>","0","main_experiment_trial","2","coin_causal","causal_sequence","chronological","","","","","","",""
"","","","","","html-keyboard-response","42","90451","0.0-42.0","46C36D77E4B247AE95721BC9779FE422","019cfa3b-1cff-7060-8c54-b2c8d56c123e","019cfa3a-388e-72ab-ad58-bdeb258f96cd","","null","
                <div class=""stimulus-container"">
                    <img src=""images/causal_sequence/coin_causal/coin_causal_3.png"" class=""exp-image"">
                    <div class=""question-area""></div> 
                </div>","null","","","","","","","","","","","",""
"","","","","","html-button-response","43","91222","0.0-43.0","46C36D77E4B247AE95721BC9779FE422","019cfa3b-1cff-7060-8c54-b2c8d56c123e","019cfa3a-388e-72ab-ad58-bdeb258f96cd","","771","
                <div class=""stimulus-container"">
                    <img src=""images/causal_sequence/coin_causal/coin_causal_3.png"" class=""exp-image"">
                    <div class=""question-area"">
                        <p style=""font-size: 20px; font-weight: bold; margin: 0;"">Is there a person in this image?</p>
                    </div>
                </div>","0","main_experiment_trial","3","coin_causal","causal_sequence","chronological","","","","","","",""
"","","","","","html-keyboard-response","44","92224","0.0-44.0","46C36D77E4B247AE95721BC9779FE422","019cfa3b-1cff-7060-8c54-b2c8d56c123e","019cfa3a-388e-72ab-ad58-bdeb258f96cd","","null","
                <div class=""stimulus-container"">
                    <img src=""images/causal_sequence/coin_causal/coin_causal_4.png"" class=""exp-image"">
                    <div class=""question-area""></div> 
                </div>","null","","","","","","","","","","","",""
"","","","","","html-button-response","45","92887","0.0-45.0","46C36D77E4B247AE95721BC9779FE422","019cfa3b-1cff-7060-8c54-b2c8d56c123e","019cfa3a-388e-72ab-ad58-bdeb258f96cd","","663","
                <div class=""stimulus-container"">
                    <img src=""images/causal_sequence/coin_causal/coin_causal_4.png"" class=""exp-image"">
                    <div class=""question-area"">
                        <p style=""font-size: 20px; font-weight: bold; margin: 0;"">Is there a person in this image?</p>
                    </div>
                </div>","0","main_experiment_trial","4","coin_causal","causal_sequence","chronological","","","","","","",""
"","","","","","html-keyboard-response","46","93900","0.0-46.0","46C36D77E4B247AE95721BC9779FE422","019cfa3b-1cff-7060-8c54-b2c8d56c123e","019cfa3a-388e-72ab-ad58-bdeb258f96cd","","null","
                <div class=""stimulus-container"">
                    <img src=""images/causal_sequence/coin_causal/coin_causal_5.png"" class=""exp-image"">
                    <div class=""question-area""></div> 
                </div>","null","","","","","","","","","","","",""
"","","","","","html-button-response","47","94434","0.0-47.0","46C36D77E4B247AE95721BC9779FE422","019cfa3b-1cff-7060-8c54-b2c8d56c123e","019cfa3a-388e-72ab-ad58-bdeb258f96cd","","533","
                <div class=""stimulus-container"">
                    <img src=""images/causal_sequence/coin_causal/coin_causal_5.png"" class=""exp-image"">
                    <div class=""question-area"">
                        <p style=""font-size: 20px; font-weight: bold; margin: 0;"">Is there a person in this image?</p>
                    </div>
                </div>","0","main_experiment_trial","5","coin_causal","causal_sequence","chronological","","","","","","",""
"","","","","","html-keyboard-response","48","95437","0.0-48.0","46C36D77E4B247AE95721BC9779FE422","019cfa3b-1cff-7060-8c54-b2c8d56c123e","019cfa3a-388e-72ab-ad58-bdeb258f96cd","","null","
                <div class=""stimulus-container"">
                    <img src=""images/causal_sequence/coin_causal/coin_causal_6.png"" class=""exp-image"">
                    <div class=""question-area""></div> 
                </div>","null","","","","","","","","","","","",""
"","","","","","html-button-response","49","96315","0.0-49.0","46C36D77E4B247AE95721BC9779FE422","019cfa3b-1cff-7060-8c54-b2c8d56c123e","019cfa3a-388e-72ab-ad58-bdeb258f96cd","","878","
                <div class=""stimulus-container"">
                    <img src=""images/causal_sequence/coin_causal/coin_causal_6.png"" class=""exp-image"">
                    <div class=""question-area"">
                        <p style=""font-size: 20px; font-weight: bold; margin: 0;"">Is there a person in this image?</p>
                    </div>
                </div>","0","main_experiment_trial","6","coin_causal","causal_sequence","chronological","","","","","","",""
"","","","","","html-keyboard-response","50","97328","0.0-50.0","46C36D77E4B247AE95721BC9779FE422","019cfa3b-1cff-7060-8c54-b2c8d56c123e","019cfa3a-388e-72ab-ad58-bdeb258f96cd","","null","
                <div class=""stimulus-container"">
                    <img src=""images/causal_sequence/coin_causal/coin_causal_7.png"" class=""exp-image"">
                    <div class=""question-area""></div> 
                </div>","null","","","","","","","","","","","",""
"","","","","","html-button-response","51","99037","0.0-51.0","46C36D77E4B247AE95721BC9779FE422","019cfa3b-1cff-7060-8c54-b2c8d56c123e","019cfa3a-388e-72ab-ad58-bdeb258f96cd","","1708","
                <div class=""stimulus-container"">
                    <img src=""images/causal_sequence/coin_causal/coin_causal_7.png"" class=""exp-image"">
                    <div class=""question-area"">
                        <p style=""font-size: 20px; font-weight: bold; margin: 0;"">Is there a person in this image?</p>
                    </div>
                </div>","1","main_experiment_trial","7","coin_causal","causal_sequence","chronological","","","","","","",""
"","","","","","html-keyboard-response","52","100050","0.0-52.0","46C36D77E4B247AE95721BC9779FE422","019cfa3b-1cff-7060-8c54-b2c8d56c123e","019cfa3a-388e-72ab-ad58-bdeb258f96cd","","null","
                <div class=""stimulus-container"">
                    <img src=""images/causal_sequence/coin_causal/coin_causal_8.png"" class=""exp-image"">
                    <div class=""question-area""></div> 
                </div>","null","","","","","","","","","","","",""
"","","","","","html-button-response","53","100920","0.0-53.0","46C36D77E4B247AE95721BC9779FE422","019cfa3b-1cff-7060-8c54-b2c8d56c123e","019cfa3a-388e-72ab-ad58-bdeb258f96cd","","869","
                <div class=""stimulus-container"">
                    <img src=""images/causal_sequence/coin_causal/coin_causal_8.png"" class=""exp-image"">
                    <div class=""question-area"">
                        <p style=""font-size: 20px; font-weight: bold; margin: 0;"">Is there a person in this image?</p>
                    </div>
                </div>","0","main_experiment_trial","8","coin_causal","causal_sequence","chronological","","","","","","",""
"","","","","","html-keyboard-response","54","101936","0.0-54.0","46C36D77E4B247AE95721BC9779FE422","019cfa3b-1cff-7060-8c54-b2c8d56c123e","019cfa3a-388e-72ab-ad58-bdeb258f96cd","","null","
                <div class=""stimulus-container"">
                    <img src=""images/causal_sequence/coin_causal/coin_causal_9.png"" class=""exp-image"">
                    <div class=""question-area""></div> 
                </div>","null","","","","","","","","","","","",""
"","","","","","html-button-response","55","102390","0.0-55.0","46C36D77E4B247AE95721BC9779FE422","019cfa3b-1cff-7060-8c54-b2c8d56c123e","019cfa3a-388e-72ab-ad58-bdeb258f96cd","","453","
                <div class=""stimulus-container"">
                    <img src=""images/causal_sequence/coin_causal/coin_causal_9.png"" class=""exp-image"">
                    <div class=""question-area"">
                        <p style=""font-size: 20px; font-weight: bold; margin: 0;"">Is there a person in this image?</p>
                    </div>
                </div>","0","main_experiment_trial","9","coin_causal","causal_sequence","chronological","","","","","","",""
"","","","","","html-keyboard-response","56","103402","0.0-56.0","46C36D77E4B247AE95721BC9779FE422","019cfa3b-1cff-7060-8c54-b2c8d56c123e","019cfa3a-388e-72ab-ad58-bdeb258f96cd","","null","
                <div class=""stimulus-container"">
                    <img src=""images/causal_sequence/coin_causal/coin_causal_ten.png"" class=""exp-image"">
                    <div class=""question-area""></div> 
                </div>","null","","","","","","","","","","","",""
"","","","","","html-button-response","57","104100","0.0-57.0","46C36D77E4B247AE95721BC9779FE422","019cfa3b-1cff-7060-8c54-b2c8d56c123e","019cfa3a-388e-72ab-ad58-bdeb258f96cd","","698","
                <div class=""stimulus-container"">
                    <img src=""images/causal_sequence/coin_causal/coin_causal_ten.png"" class=""exp-image"">
                    <div class=""question-area"">
                        <p style=""font-size: 20px; font-weight: bold; margin: 0;"">Is there a person in this image?</p>
                    </div>
                </div>","0","main_experiment_trial","ten","coin_causal","causal_sequence","chronological","","","","","","",""
"","","","","","html-keyboard-response","58","109101","0.0-58.0","46C36D77E4B247AE95721BC9779FE422","019cfa3b-1cff-7060-8c54-b2c8d56c123e","019cfa3a-388e-72ab-ad58-bdeb258f96cd","","null","<div style=""background-color: white; width: 100vw; height: 100vh;""></div>","null","","","","","","","","","","","",""
"","","","","","html-keyboard-response","59","110111","0.0-59.0","46C36D77E4B247AE95721BC9779FE422","019cfa3b-1cff-7060-8c54-b2c8d56c123e","019cfa3a-388e-72ab-ad58-bdeb258f96cd","","null","
                <div class=""stimulus-container"">
                    <img src=""images/semantic_sequence/cat_care_semantic/cat_care_semantic_1.png"" class=""exp-image"">
                    <div class=""question-area""></div> 
                </div>","null","","","","","","","","","","","",""
"","","","","","html-button-response","60","113126","0.0-60.0","46C36D77E4B247AE95721BC9779FE422","019cfa3b-1cff-7060-8c54-b2c8d56c123e","019cfa3a-388e-72ab-ad58-bdeb258f96cd","","null","
                <div class=""stimulus-container"">
                    <img src=""images/semantic_sequence/cat_care_semantic/cat_care_semantic_1.png"" class=""exp-image"">
                    <div class=""question-area"">
                        <p style=""font-size: 20px; font-weight: bold; margin: 0;"">Is there a person in this image?</p>
                    </div>
                </div>","null","main_experiment_trial","1","cat_care_semantic","semantic_sequence","chronological","","","","","","",""
"","","","","","html-keyboard-response","61","114138","0.0-61.0","46C36D77E4B247AE95721BC9779FE422","019cfa3b-1cff-7060-8c54-b2c8d56c123e","019cfa3a-388e-72ab-ad58-bdeb258f96cd","","null","
                <div class=""stimulus-container"">
                    <img src=""images/semantic_sequence/cat_care_semantic/cat_care_semantic_2.png"" class=""exp-image"">
                    <div class=""question-area""></div> 
                </div>","null","","","","","","","","","","","",""
"","","","","","html-button-response","62","115515","0.0-62.0","46C36D77E4B247AE95721BC9779FE422","019cfa3b-1cff-7060-8c54-b2c8d56c123e","019cfa3a-388e-72ab-ad58-bdeb258f96cd","","1376","
                <div class=""stimulus-container"">
                    <img src=""images/semantic_sequence/cat_care_semantic/cat_care_semantic_2.png"" class=""exp-image"">
                    <div class=""question-area"">
                        <p style=""font-size: 20px; font-weight: bold; margin: 0;"">Is there a person in this image?</p>
                    </div>
                </div>","0","main_experiment_trial","2","cat_care_semantic","semantic_sequence","chronological","","","","","","",""
"","","","","","html-keyboard-response","63","116516","0.0-63.0","46C36D77E4B247AE95721BC9779FE422","019cfa3b-1cff-7060-8c54-b2c8d56c123e","019cfa3a-388e-72ab-ad58-bdeb258f96cd","","null","
                <div class=""stimulus-container"">
                    <img src=""images/semantic_sequence/cat_care_semantic/cat_care_semantic_3.png"" class=""exp-image"">
                    <div class=""question-area""></div> 
                </div>","null","","","","","","","","","","","",""
"","","","","","html-button-response","64","117907","0.0-64.0","46C36D77E4B247AE95721BC9779FE422","019cfa3b-1cff-7060-8c54-b2c8d56c123e","019cfa3a-388e-72ab-ad58-bdeb258f96cd","","1391","
                <div class=""stimulus-container"">
                    <img src=""images/semantic_sequence/cat_care_semantic/cat_care_semantic_3.png"" class=""exp-image"">
                    <div class=""question-area"">
                        <p style=""font-size: 20px; font-weight: bold; margin: 0;"">Is there a person in this image?</p>
                    </div>
                </div>","0","main_experiment_trial","3","cat_care_semantic","semantic_sequence","chronological","","","","","","",""
"","","","","","html-keyboard-response","65","118916","0.0-65.0","46C36D77E4B247AE95721BC9779FE422","019cfa3b-1cff-7060-8c54-b2c8d56c123e","019cfa3a-388e-72ab-ad58-bdeb258f96cd","","null","
                <div class=""stimulus-container"">
                    <img src=""images/semantic_sequence/cat_care_semantic/cat_care_semantic_4.png"" class=""exp-image"">
                    <div class=""question-area""></div> 
                </div>","null","","","","","","","","","","","",""
"","","","","","html-button-response","66","119543","0.0-66.0","46C36D77E4B247AE95721BC9779FE422","019cfa3b-1cff-7060-8c54-b2c8d56c123e","019cfa3a-388e-72ab-ad58-bdeb258f96cd","","627","
                <div class=""stimulus-container"">
                    <img src=""images/semantic_sequence/cat_care_semantic/cat_care_semantic_4.png"" class=""exp-image"">
                    <div class=""question-area"">
                        <p style=""font-size: 20px; font-weight: bold; margin: 0;"">Is there a person in this image?</p>
                    </div>
                </div>","0","main_experiment_trial","4","cat_care_semantic","semantic_sequence","chronological","","","","","","",""
"","","","","","html-keyboard-response","67","120549","0.0-67.0","46C36D77E4B247AE95721BC9779FE422","019cfa3b-1cff-7060-8c54-b2c8d56c123e","019cfa3a-388e-72ab-ad58-bdeb258f96cd","","null","
                <div class=""stimulus-container"">
                    <img src=""images/semantic_sequence/cat_care_semantic/cat_care_semantic_5.png"" class=""exp-image"">
                    <div class=""question-area""></div> 
                </div>","null","","","","","","","","","","","",""
"","","","","","html-button-response","68","121035","0.0-68.0","46C36D77E4B247AE95721BC9779FE422","019cfa3b-1cff-7060-8c54-b2c8d56c123e","019cfa3a-388e-72ab-ad58-bdeb258f96cd","","485","
                <div class=""stimulus-container"">
                    <img src=""images/semantic_sequence/cat_care_semantic/cat_care_semantic_5.png"" class=""exp-image"">
                    <div class=""question-area"">
                        <p style=""font-size: 20px; font-weight: bold; margin: 0;"">Is there a person in this image?</p>
                    </div>
                </div>","0","main_experiment_trial","5","cat_care_semantic","semantic_sequence","chronological","","","","","","",""
"","","","","","html-keyboard-response","69","122043","0.0-69.0","46C36D77E4B247AE95721BC9779FE422","019cfa3b-1cff-7060-8c54-b2c8d56c123e","019cfa3a-388e-72ab-ad58-bdeb258f96cd","","null","
                <div class=""stimulus-container"">
                    <img src=""images/semantic_sequence/cat_care_semantic/cat_care_semantic_6.png"" class=""exp-image"">
                    <div class=""question-area""></div> 
                </div>","null","","","","","","","","","","","",""
"","","","","","html-button-response","70","123068","0.0-70.0","46C36D77E4B247AE95721BC9779FE422","019cfa3b-1cff-7060-8c54-b2c8d56c123e","019cfa3a-388e-72ab-ad58-bdeb258f96cd","","1024","
                <div class=""stimulus-container"">
                    <img src=""images/semantic_sequence/cat_care_semantic/cat_care_semantic_6.png"" class=""exp-image"">
                    <div class=""question-area"">
                        <p style=""font-size: 20px; font-weight: bold; margin: 0;"">Is there a person in this image?</p>
                    </div>
                </div>","0","main_experiment_trial","6","cat_care_semantic","semantic_sequence","chronological","","","","","","",""
"","","","","","html-keyboard-response","71","124070","0.0-71.0","46C36D77E4B247AE95721BC9779FE422","019cfa3b-1cff-7060-8c54-b2c8d56c123e","019cfa3a-388e-72ab-ad58-bdeb258f96cd","","null","
                <div class=""stimulus-container"">
                    <img src=""images/semantic_sequence/cat_care_semantic/cat_care_semantic_7.png"" class=""exp-image"">
                    <div class=""question-area""></div> 
                </div>","null","","","","","","","","","","","",""
"","","","","","html-button-response","72","124868","0.0-72.0","46C36D77E4B247AE95721BC9779FE422","019cfa3b-1cff-7060-8c54-b2c8d56c123e","019cfa3a-388e-72ab-ad58-bdeb258f96cd","","798","
                <div class=""stimulus-container"">
                    <img src=""images/semantic_sequence/cat_care_semantic/cat_care_semantic_7.png"" class=""exp-image"">
                    <div class=""question-area"">
                        <p style=""font-size: 20px; font-weight: bold; margin: 0;"">Is there a person in this image?</p>
                    </div>
                </div>","0","main_experiment_trial","7","cat_care_semantic","semantic_sequence","chronological","","","","","","",""
"","","","","","html-keyboard-response","73","125885","0.0-73.0","46C36D77E4B247AE95721BC9779FE422","019cfa3b-1cff-7060-8c54-b2c8d56c123e","019cfa3a-388e-72ab-ad58-bdeb258f96cd","","null","
                <div class=""stimulus-container"">
                    <img src=""images/semantic_sequence/cat_care_semantic/cat_care_semantic_8.png"" class=""exp-image"">
                    <div class=""question-area""></div> 
                </div>","null","","","","","","","","","","","",""
"","","","","","html-button-response","74","126518","0.0-74.0","46C36D77E4B247AE95721BC9779FE422","019cfa3b-1cff-7060-8c54-b2c8d56c123e","019cfa3a-388e-72ab-ad58-bdeb258f96cd","","632","
                <div class=""stimulus-container"">
                    <img src=""images/semantic_sequence/cat_care_semantic/cat_care_semantic_8.png"" class=""exp-image"">
                    <div class=""question-area"">
                        <p style=""font-size: 20px; font-weight: bold; margin: 0;"">Is there a person in this image?</p>
                    </div>
                </div>","0","main_experiment_trial","8","cat_care_semantic","semantic_sequence","chronological","","","","","","",""
"","","","","","html-keyboard-response","75","127533","0.0-75.0","46C36D77E4B247AE95721BC9779FE422","019cfa3b-1cff-7060-8c54-b2c8d56c123e","019cfa3a-388e-72ab-ad58-bdeb258f96cd","","null","
                <div class=""stimulus-container"">
                    <img src=""images/semantic_sequence/cat_care_semantic/cat_care_semantic_9.png"" class=""exp-image"">
                    <div class=""question-area""></div> 
                </div>","null","","","","","","","","","","","",""
"","","","","","html-button-response","76","129555","0.0-76.0","46C36D77E4B247AE95721BC9779FE422","019cfa3b-1cff-7060-8c54-b2c8d56c123e","019cfa3a-388e-72ab-ad58-bdeb258f96cd","","2021","
                <div class=""stimulus-container"">
                    <img src=""images/semantic_sequence/cat_care_semantic/cat_care_semantic_9.png"" class=""exp-image"">
                    <div class=""question-area"">
                        <p style=""font-size: 20px; font-weight: bold; margin: 0;"">Is there a person in this image?</p>
                    </div>
                </div>","0","main_experiment_trial","9","cat_care_semantic","semantic_sequence","chronological","","","","","","",""
"","","","","","html-keyboard-response","77","130558","0.0-77.0","46C36D77E4B247AE95721BC9779FE422","019cfa3b-1cff-7060-8c54-b2c8d56c123e","019cfa3a-388e-72ab-ad58-bdeb258f96cd","","null","
                <div class=""stimulus-container"">
                    <img src=""images/semantic_sequence/cat_care_semantic/cat_care_semantic_ten.png"" class=""exp-image"">
                    <div class=""question-area""></div> 
                </div>","null","","","","","","","","","","","",""
"","","","","","html-button-response","78","131799","0.0-78.0","46C36D77E4B247AE95721BC9779FE422","019cfa3b-1cff-7060-8c54-b2c8d56c123e","019cfa3a-388e-72ab-ad58-bdeb258f96cd","","1240","
                <div class=""stimulus-container"">
                    <img src=""images/semantic_sequence/cat_care_semantic/cat_care_semantic_ten.png"" class=""exp-image"">
                    <div class=""question-area"">
                        <p style=""font-size: 20px; font-weight: bold; margin: 0;"">Is there a person in this image?</p>
                    </div>
                </div>","1","main_experiment_trial","ten","cat_care_semantic","semantic_sequence","chronological","","","","","","",""
"","","","","","html-keyboard-response","79","136813","0.0-79.0","46C36D77E4B247AE95721BC9779FE422","019cfa3b-1cff-7060-8c54-b2c8d56c123e","019cfa3a-388e-72ab-ad58-bdeb258f96cd","","null","<div style=""background-color: white; width: 100vw; height: 100vh;""></div>","null","","","","","","","","","","","",""
"","","","","","html-keyboard-response","80","137823","0.0-80.0","46C36D77E4B247AE95721BC9779FE422","019cfa3b-1cff-7060-8c54-b2c8d56c123e","019cfa3a-388e-72ab-ad58-bdeb258f96cd","","null","
                <div class=""stimulus-container"">
                    <img src=""images/causal_sequence/the_performance_causal/the_performance_causal_1.png"" class=""exp-image"">
                    <div class=""question-area""></div> 
                </div>","null","","","","","","","","","","","",""
"","","","","","html-button-response","81","138548","0.0-81.0","46C36D77E4B247AE95721BC9779FE422","019cfa3b-1cff-7060-8c54-b2c8d56c123e","019cfa3a-388e-72ab-ad58-bdeb258f96cd","","725","
                <div class=""stimulus-container"">
                    <img src=""images/causal_sequence/the_performance_causal/the_performance_causal_1.png"" class=""exp-image"">
                    <div class=""question-area"">
                        <p style=""font-size: 20px; font-weight: bold; margin: 0;"">Is there a person in this image?</p>
                    </div>
                </div>","0","main_experiment_trial","1","the_performance_causal","causal_sequence","chronological","","","","","","",""
"","","","","","html-keyboard-response","82","139558","0.0-82.0","46C36D77E4B247AE95721BC9779FE422","019cfa3b-1cff-7060-8c54-b2c8d56c123e","019cfa3a-388e-72ab-ad58-bdeb258f96cd","","null","
                <div class=""stimulus-container"">
                    <img src=""images/causal_sequence/the_performance_causal/the_performance_causal_2.png"" class=""exp-image"">
                    <div class=""question-area""></div> 
                </div>","null","","","","","","","","","","","",""
"","","","","","html-button-response","83","141016","0.0-83.0","46C36D77E4B247AE95721BC9779FE422","019cfa3b-1cff-7060-8c54-b2c8d56c123e","019cfa3a-388e-72ab-ad58-bdeb258f96cd","","1457","
                <div class=""stimulus-container"">
                    <img src=""images/causal_sequence/the_performance_causal/the_performance_causal_2.png"" class=""exp-image"">
                    <div class=""question-area"">
                        <p style=""font-size: 20px; font-weight: bold; margin: 0;"">Is there a person in this image?</p>
                    </div>
                </div>","0","main_experiment_trial","2","the_performance_causal","causal_sequence","chronological","","","","","","",""
"","","","","","html-keyboard-response","84","142030","0.0-84.0","46C36D77E4B247AE95721BC9779FE422","019cfa3b-1cff-7060-8c54-b2c8d56c123e","019cfa3a-388e-72ab-ad58-bdeb258f96cd","","null","
                <div class=""stimulus-container"">
                    <img src=""images/causal_sequence/the_performance_causal/the_performance_causal_3.png"" class=""exp-image"">
                    <div class=""question-area""></div> 
                </div>","null","","","","","","","","","","","",""
"","","","","","html-button-response","85","142479","0.0-85.0","46C36D77E4B247AE95721BC9779FE422","019cfa3b-1cff-7060-8c54-b2c8d56c123e","019cfa3a-388e-72ab-ad58-bdeb258f96cd","","448","
                <div class=""stimulus-container"">
                    <img src=""images/causal_sequence/the_performance_causal/the_performance_causal_3.png"" class=""exp-image"">
                    <div class=""question-area"">
                        <p style=""font-size: 20px; font-weight: bold; margin: 0;"">Is there a person in this image?</p>
                    </div>
                </div>","0","main_experiment_trial","3","the_performance_causal","causal_sequence","chronological","","","","","","",""
"","","","","","html-keyboard-response","86","143481","0.0-86.0","46C36D77E4B247AE95721BC9779FE422","019cfa3b-1cff-7060-8c54-b2c8d56c123e","019cfa3a-388e-72ab-ad58-bdeb258f96cd","","null","
                <div class=""stimulus-container"">
                    <img src=""images/causal_sequence/the_performance_causal/the_performance_causal_4.png"" class=""exp-image"">
                    <div class=""question-area""></div> 
                </div>","null","","","","","","","","","","","",""
"","","","","","html-button-response","87","144204","0.0-87.0","46C36D77E4B247AE95721BC9779FE422","019cfa3b-1cff-7060-8c54-b2c8d56c123e","019cfa3a-388e-72ab-ad58-bdeb258f96cd","","722","
                <div class=""stimulus-container"">
                    <img src=""images/causal_sequence/the_performance_causal/the_performance_causal_4.png"" class=""exp-image"">
                    <div class=""question-area"">
                        <p style=""font-size: 20px; font-weight: bold; margin: 0;"">Is there a person in this image?</p>
                    </div>
                </div>","0","main_experiment_trial","4","the_performance_causal","causal_sequence","chronological","","","","","","",""
"","","","","","html-keyboard-response","88","145212","0.0-88.0","46C36D77E4B247AE95721BC9779FE422","019cfa3b-1cff-7060-8c54-b2c8d56c123e","019cfa3a-388e-72ab-ad58-bdeb258f96cd","","null","
                <div class=""stimulus-container"">
                    <img src=""images/causal_sequence/the_performance_causal/the_performance_causal_5.png"" class=""exp-image"">
                    <div class=""question-area""></div> 
                </div>","null","","","","","","","","","","","",""
"","","","","","html-button-response","89","145892","0.0-89.0","46C36D77E4B247AE95721BC9779FE422","019cfa3b-1cff-7060-8c54-b2c8d56c123e","019cfa3a-388e-72ab-ad58-bdeb258f96cd","","679","
                <div class=""stimulus-container"">
                    <img src=""images/causal_sequence/the_performance_causal/the_performance_causal_5.png"" class=""exp-image"">
                    <div class=""question-area"">
                        <p style=""font-size: 20px; font-weight: bold; margin: 0;"">Is there a person in this image?</p>
                    </div>
                </div>","0","main_experiment_trial","5","the_performance_causal","causal_sequence","chronological","","","","","","",""
"","","","","","html-keyboard-response","90","146896","0.0-90.0","46C36D77E4B247AE95721BC9779FE422","019cfa3b-1cff-7060-8c54-b2c8d56c123e","019cfa3a-388e-72ab-ad58-bdeb258f96cd","","null","
                <div class=""stimulus-container"">
                    <img src=""images/causal_sequence/the_performance_causal/the_performance_causal_6.png"" class=""exp-image"">
                    <div class=""question-area""></div> 
                </div>","null","","","","","","","","","","","",""
"","","","","","html-button-response","91","147541","0.0-91.0","46C36D77E4B247AE95721BC9779FE422","019cfa3b-1cff-7060-8c54-b2c8d56c123e","019cfa3a-388e-72ab-ad58-bdeb258f96cd","","644","
                <div class=""stimulus-container"">
                    <img src=""images/causal_sequence/the_performance_causal/the_performance_causal_6.png"" class=""exp-image"">
                    <div class=""question-area"">
                        <p style=""font-size: 20px; font-weight: bold; margin: 0;"">Is there a person in this image?</p>
                    </div>
                </div>","0","main_experiment_trial","6","the_performance_causal","causal_sequence","chronological","","","","","","",""
"","","","","","html-keyboard-response","92","148556","0.0-92.0","46C36D77E4B247AE95721BC9779FE422","019cfa3b-1cff-7060-8c54-b2c8d56c123e","019cfa3a-388e-72ab-ad58-bdeb258f96cd","","null","
                <div class=""stimulus-container"">
                    <img src=""images/causal_sequence/the_performance_causal/the_performance_causal_7.png"" class=""exp-image"">
                    <div class=""question-area""></div> 
                </div>","null","","","","","","","","","","","",""
"","","","","","html-button-response","93","149656","0.0-93.0","46C36D77E4B247AE95721BC9779FE422","019cfa3b-1cff-7060-8c54-b2c8d56c123e","019cfa3a-388e-72ab-ad58-bdeb258f96cd","","1100","
                <div class=""stimulus-container"">
                    <img src=""images/causal_sequence/the_performance_causal/the_performance_causal_7.png"" class=""exp-image"">
                    <div class=""question-area"">
                        <p style=""font-size: 20px; font-weight: bold; margin: 0;"">Is there a person in this image?</p>
                    </div>
                </div>","0","main_experiment_trial","7","the_performance_causal","causal_sequence","chronological","","","","","","",""
"","","","","","html-keyboard-response","94","150659","0.0-94.0","46C36D77E4B247AE95721BC9779FE422","019cfa3b-1cff-7060-8c54-b2c8d56c123e","019cfa3a-388e-72ab-ad58-bdeb258f96cd","","null","
                <div class=""stimulus-container"">
                    <img src=""images/causal_sequence/the_performance_causal/the_performance_causal_8.png"" class=""exp-image"">
                    <div class=""question-area""></div> 
                </div>","null","","","","","","","","","","","",""
"","","","","","html-button-response","95","151165","0.0-95.0","46C36D77E4B247AE95721BC9779FE422","019cfa3b-1cff-7060-8c54-b2c8d56c123e","019cfa3a-388e-72ab-ad58-bdeb258f96cd","","506","
                <div class=""stimulus-container"">
                    <img src=""images/causal_sequence/the_performance_causal/the_performance_causal_8.png"" class=""exp-image"">
                    <div class=""question-area"">
                        <p style=""font-size: 20px; font-weight: bold; margin: 0;"">Is there a person in this image?</p>
                    </div>
                </div>","0","main_experiment_trial","8","the_performance_causal","causal_sequence","chronological","","","","","","",""
"","","","","","html-keyboard-response","96","152166","0.0-96.0","46C36D77E4B247AE95721BC9779FE422","019cfa3b-1cff-7060-8c54-b2c8d56c123e","019cfa3a-388e-72ab-ad58-bdeb258f96cd","","null","
                <div class=""stimulus-container"">
                    <img src=""images/causal_sequence/the_performance_causal/the_performance_causal_9.png"" class=""exp-image"">
                    <div class=""question-area""></div> 
                </div>","null","","","","","","","","","","","",""
"","","","","","html-button-response","97","152986","0.0-97.0","46C36D77E4B247AE95721BC9779FE422","019cfa3b-1cff-7060-8c54-b2c8d56c123e","019cfa3a-388e-72ab-ad58-bdeb258f96cd","","819","
                <div class=""stimulus-container"">
                    <img src=""images/causal_sequence/the_performance_causal/the_performance_causal_9.png"" class=""exp-image"">
                    <div class=""question-area"">
                        <p style=""font-size: 20px; font-weight: bold; margin: 0;"">Is there a person in this image?</p>
                    </div>
                </div>","0","main_experiment_trial","9","the_performance_causal","causal_sequence","chronological","","","","","","",""
"","","","","","html-keyboard-response","98","153990","0.0-98.0","46C36D77E4B247AE95721BC9779FE422","019cfa3b-1cff-7060-8c54-b2c8d56c123e","019cfa3a-388e-72ab-ad58-bdeb258f96cd","","null","
                <div class=""stimulus-container"">
                    <img src=""images/causal_sequence/the_performance_causal/the_performance_causal_ten.png"" class=""exp-image"">
                    <div class=""question-area""></div> 
                </div>","null","","","","","","","","","","","",""
"","","","","","html-button-response","99","154951","0.0-99.0","46C36D77E4B247AE95721BC9779FE422","019cfa3b-1cff-7060-8c54-b2c8d56c123e","019cfa3a-388e-72ab-ad58-bdeb258f96cd","","960","
                <div class=""stimulus-container"">
                    <img src=""images/causal_sequence/the_performance_causal/the_performance_causal_ten.png"" class=""exp-image"">
                    <div class=""question-area"">
                        <p style=""font-size: 20px; font-weight: bold; margin: 0;"">Is there a person in this image?</p>
                    </div>
                </div>","0","main_experiment_trial","ten","the_performance_causal","causal_sequence","chronological","","","","","","",""
"","","","","","html-keyboard-response","100","159965","0.0-100.0","46C36D77E4B247AE95721BC9779FE422","019cfa3b-1cff-7060-8c54-b2c8d56c123e","019cfa3a-388e-72ab-ad58-bdeb258f96cd","","null","<div style=""background-color: white; width: 100vw; height: 100vh;""></div>","null","","","","","","","","","","","",""
"","","","","","html-keyboard-response","101","160970","0.0-101.0","46C36D77E4B247AE95721BC9779FE422","019cfa3b-1cff-7060-8c54-b2c8d56c123e","019cfa3a-388e-72ab-ad58-bdeb258f96cd","","null","
                <div class=""stimulus-container"">
                    <img src=""images/causal_sequence/package_causal/package_causal_1.png"" class=""exp-image"">
                    <div class=""question-area""></div> 
                </div>","null","","","","","","","","","","","",""
"","","","","","html-button-response","102","162602","0.0-102.0","46C36D77E4B247AE95721BC9779FE422","019cfa3b-1cff-7060-8c54-b2c8d56c123e","019cfa3a-388e-72ab-ad58-bdeb258f96cd","","1631","
                <div class=""stimulus-container"">
                    <img src=""images/causal_sequence/package_causal/package_causal_1.png"" class=""exp-image"">
                    <div class=""question-area"">
                        <p style=""font-size: 20px; font-weight: bold; margin: 0;"">Is there a person in this image?</p>
                    </div>
                </div>","0","main_experiment_trial","1","package_causal","causal_sequence","chronological","","","","","","",""
"","","","","","html-keyboard-response","103","163607","0.0-103.0","46C36D77E4B247AE95721BC9779FE422","019cfa3b-1cff-7060-8c54-b2c8d56c123e","019cfa3a-388e-72ab-ad58-bdeb258f96cd","","null","
                <div class=""stimulus-container"">
                    <img src=""images/causal_sequence/package_causal/package_causal_2.png"" class=""exp-image"">
                    <div class=""question-area""></div> 
                </div>","null","","","","","","","","","","","",""
"","","","","","html-button-response","104","165151","0.0-104.0","46C36D77E4B247AE95721BC9779FE422","019cfa3b-1cff-7060-8c54-b2c8d56c123e","019cfa3a-388e-72ab-ad58-bdeb258f96cd","","1544","
                <div class=""stimulus-container"">
                    <img src=""images/causal_sequence/package_causal/package_causal_2.png"" class=""exp-image"">
                    <div class=""question-area"">
                        <p style=""font-size: 20px; font-weight: bold; margin: 0;"">Is there a person in this image?</p>
                    </div>
                </div>","0","main_experiment_trial","2","package_causal","causal_sequence","chronological","","","","","","",""
"","","","","","html-keyboard-response","105","166163","0.0-105.0","46C36D77E4B247AE95721BC9779FE422","019cfa3b-1cff-7060-8c54-b2c8d56c123e","019cfa3a-388e-72ab-ad58-bdeb258f96cd","","null","
                <div class=""stimulus-container"">
                    <img src=""images/causal_sequence/package_causal/package_causal_3.png"" class=""exp-image"">
                    <div class=""question-area""></div> 
                </div>","null","","","","","","","","","","","",""
"","","","","","html-button-response","106","166561","0.0-106.0","46C36D77E4B247AE95721BC9779FE422","019cfa3b-1cff-7060-8c54-b2c8d56c123e","019cfa3a-388e-72ab-ad58-bdeb258f96cd","","397","
                <div class=""stimulus-container"">
                    <img src=""images/causal_sequence/package_causal/package_causal_3.png"" class=""exp-image"">
                    <div class=""question-area"">
                        <p style=""font-size: 20px; font-weight: bold; margin: 0;"">Is there a person in this image?</p>
                    </div>
                </div>","0","main_experiment_trial","3","package_causal","causal_sequence","chronological","","","","","","",""
"","","","","","html-keyboard-response","107","167561","0.0-107.0","46C36D77E4B247AE95721BC9779FE422","019cfa3b-1cff-7060-8c54-b2c8d56c123e","019cfa3a-388e-72ab-ad58-bdeb258f96cd","","null","
                <div class=""stimulus-container"">
                    <img src=""images/causal_sequence/package_causal/package_causal_4.png"" class=""exp-image"">
                    <div class=""question-area""></div> 
                </div>","null","","","","","","","","","","","",""
"","","","","","html-button-response","108","168994","0.0-108.0","46C36D77E4B247AE95721BC9779FE422","019cfa3b-1cff-7060-8c54-b2c8d56c123e","019cfa3a-388e-72ab-ad58-bdeb258f96cd","","1432","
                <div class=""stimulus-container"">
                    <img src=""images/causal_sequence/package_causal/package_causal_4.png"" class=""exp-image"">
                    <div class=""question-area"">
                        <p style=""font-size: 20px; font-weight: bold; margin: 0;"">Is there a person in this image?</p>
                    </div>
                </div>","1","main_experiment_trial","4","package_causal","causal_sequence","chronological","","","","","","",""
"","","","","","html-keyboard-response","109","169996","0.0-109.0","46C36D77E4B247AE95721BC9779FE422","019cfa3b-1cff-7060-8c54-b2c8d56c123e","019cfa3a-388e-72ab-ad58-bdeb258f96cd","","null","
                <div class=""stimulus-container"">
                    <img src=""images/causal_sequence/package_causal/package_causal_5.png"" class=""exp-image"">
                    <div class=""question-area""></div> 
                </div>","null","","","","","","","","","","","",""
"","","","","","html-button-response","110","170671","0.0-110.0","46C36D77E4B247AE95721BC9779FE422","019cfa3b-1cff-7060-8c54-b2c8d56c123e","019cfa3a-388e-72ab-ad58-bdeb258f96cd","","675","
                <div class=""stimulus-container"">
                    <img src=""images/causal_sequence/package_causal/package_causal_5.png"" class=""exp-image"">
                    <div class=""question-area"">
                        <p style=""font-size: 20px; font-weight: bold; margin: 0;"">Is there a person in this image?</p>
                    </div>
                </div>","0","main_experiment_trial","5","package_causal","causal_sequence","chronological","","","","","","",""
"","","","","","html-keyboard-response","111","171683","0.0-111.0","46C36D77E4B247AE95721BC9779FE422","019cfa3b-1cff-7060-8c54-b2c8d56c123e","019cfa3a-388e-72ab-ad58-bdeb258f96cd","","null","
                <div class=""stimulus-container"">
                    <img src=""images/causal_sequence/package_causal/package_causal_6.png"" class=""exp-image"">
                    <div class=""question-area""></div> 
                </div>","null","","","","","","","","","","","",""
"","","","","","html-button-response","112","172066","0.0-112.0","46C36D77E4B247AE95721BC9779FE422","019cfa3b-1cff-7060-8c54-b2c8d56c123e","019cfa3a-388e-72ab-ad58-bdeb258f96cd","","383","
                <div class=""stimulus-container"">
                    <img src=""images/causal_sequence/package_causal/package_causal_6.png"" class=""exp-image"">
                    <div class=""question-area"">
                        <p style=""font-size: 20px; font-weight: bold; margin: 0;"">Is there a person in this image?</p>
                    </div>
                </div>","0","main_experiment_trial","6","package_causal","causal_sequence","chronological","","","","","","",""
"","","","","","html-keyboard-response","113","173069","0.0-113.0","46C36D77E4B247AE95721BC9779FE422","019cfa3b-1cff-7060-8c54-b2c8d56c123e","019cfa3a-388e-72ab-ad58-bdeb258f96cd","","null","
                <div class=""stimulus-container"">
                    <img src=""images/causal_sequence/package_causal/package_causal_7.png"" class=""exp-image"">
                    <div class=""question-area""></div> 
                </div>","null","","","","","","","","","","","",""
"","","","","","html-button-response","114","174009","0.0-114.0","46C36D77E4B247AE95721BC9779FE422","019cfa3b-1cff-7060-8c54-b2c8d56c123e","019cfa3a-388e-72ab-ad58-bdeb258f96cd","","940","
                <div class=""stimulus-container"">
                    <img src=""images/causal_sequence/package_causal/package_causal_7.png"" class=""exp-image"">
                    <div class=""question-area"">
                        <p style=""font-size: 20px; font-weight: bold; margin: 0;"">Is there a person in this image?</p>
                    </div>
                </div>","0","main_experiment_trial","7","package_causal","causal_sequence","chronological","","","","","","",""
"","","","","","html-keyboard-response","115","175025","0.0-115.0","46C36D77E4B247AE95721BC9779FE422","019cfa3b-1cff-7060-8c54-b2c8d56c123e","019cfa3a-388e-72ab-ad58-bdeb258f96cd","","null","
                <div class=""stimulus-container"">
                    <img src=""images/causal_sequence/package_causal/package_causal_8.png"" class=""exp-image"">
                    <div class=""question-area""></div> 
                </div>","null","","","","","","","","","","","",""
"","","","","","html-button-response","116","176118","0.0-116.0","46C36D77E4B247AE95721BC9779FE422","019cfa3b-1cff-7060-8c54-b2c8d56c123e","019cfa3a-388e-72ab-ad58-bdeb258f96cd","","1092","
                <div class=""stimulus-container"">
                    <img src=""images/causal_sequence/package_causal/package_causal_8.png"" class=""exp-image"">
                    <div class=""question-area"">
                        <p style=""font-size: 20px; font-weight: bold; margin: 0;"">Is there a person in this image?</p>
                    </div>
                </div>","0","main_experiment_trial","8","package_causal","causal_sequence","chronological","","","","","","",""
"","","","","","html-keyboard-response","117","177129","0.0-117.0","46C36D77E4B247AE95721BC9779FE422","019cfa3b-1cff-7060-8c54-b2c8d56c123e","019cfa3a-388e-72ab-ad58-bdeb258f96cd","","null","
                <div class=""stimulus-container"">
                    <img src=""images/causal_sequence/package_causal/package_causal_9.png"" class=""exp-image"">
                    <div class=""question-area""></div> 
                </div>","null","","","","","","","","","","","",""
"","","","","","html-button-response","118","177691","0.0-118.0","46C36D77E4B247AE95721BC9779FE422","019cfa3b-1cff-7060-8c54-b2c8d56c123e","019cfa3a-388e-72ab-ad58-bdeb258f96cd","","561","
                <div class=""stimulus-container"">
                    <img src=""images/causal_sequence/package_causal/package_causal_9.png"" class=""exp-image"">
                    <div class=""question-area"">
                        <p style=""font-size: 20px; font-weight: bold; margin: 0;"">Is there a person in this image?</p>
                    </div>
                </div>","0","main_experiment_trial","9","package_causal","causal_sequence","chronological","","","","","","",""
"","","","","","html-keyboard-response","119","178704","0.0-119.0","46C36D77E4B247AE95721BC9779FE422","019cfa3b-1cff-7060-8c54-b2c8d56c123e","019cfa3a-388e-72ab-ad58-bdeb258f96cd","","null","
                <div class=""stimulus-container"">
                    <img src=""images/causal_sequence/package_causal/package_causal_ten.png"" class=""exp-image"">
                    <div class=""question-area""></div> 
                </div>","null","","","","","","","","","","","",""
"","","","","","html-button-response","120","179221","0.0-120.0","46C36D77E4B247AE95721BC9779FE422","019cfa3b-1cff-7060-8c54-b2c8d56c123e","019cfa3a-388e-72ab-ad58-bdeb258f96cd","","516","
                <div class=""stimulus-container"">
                    <img src=""images/causal_sequence/package_causal/package_causal_ten.png"" class=""exp-image"">
                    <div class=""question-area"">
                        <p style=""font-size: 20px; font-weight: bold; margin: 0;"">Is there a person in this image?</p>
                    </div>
                </div>","0","main_experiment_trial","ten","package_causal","causal_sequence","chronological","","","","","","",""
"","","","","","html-keyboard-response","121","184232","0.0-121.0","46C36D77E4B247AE95721BC9779FE422","019cfa3b-1cff-7060-8c54-b2c8d56c123e","019cfa3a-388e-72ab-ad58-bdeb258f96cd","","null","<div style=""background-color: white; width: 100vw; height: 100vh;""></div>","null","","","","","","","","","","","",""
"","","","","","html-keyboard-response","122","185240","0.0-122.0","46C36D77E4B247AE95721BC9779FE422","019cfa3b-1cff-7060-8c54-b2c8d56c123e","019cfa3a-388e-72ab-ad58-bdeb258f96cd","","null","
                <div class=""stimulus-container"">
                    <img src=""images/semantic_sequence/maintaining_a_car_semantic/maintaining_a_car_semantic_1.png"" class=""exp-image"">
                    <div class=""question-area""></div> 
                </div>","null","","","","","","","","","","","",""
"","","","","","html-button-response","123","185979","0.0-123.0","46C36D77E4B247AE95721BC9779FE422","019cfa3b-1cff-7060-8c54-b2c8d56c123e","019cfa3a-388e-72ab-ad58-bdeb258f96cd","","739","
                <div class=""stimulus-container"">
                    <img src=""images/semantic_sequence/maintaining_a_car_semantic/maintaining_a_car_semantic_1.png"" class=""exp-image"">
                    <div class=""question-area"">
                        <p style=""font-size: 20px; font-weight: bold; margin: 0;"">Is there a person in this image?</p>
                    </div>
                </div>","0","main_experiment_trial","1","maintaining_a_car_semantic","semantic_sequence","chronological","","","","","","",""
"","","","","","html-keyboard-response","124","186982","0.0-124.0","46C36D77E4B247AE95721BC9779FE422","019cfa3b-1cff-7060-8c54-b2c8d56c123e","019cfa3a-388e-72ab-ad58-bdeb258f96cd","","null","
                <div class=""stimulus-container"">
                    <img src=""images/semantic_sequence/maintaining_a_car_semantic/maintaining_a_car_semantic_2.png"" class=""exp-image"">
                    <div class=""question-area""></div> 
                </div>","null","","","","","","","","","","","",""
"","","","","","html-button-response","125","187511","0.0-125.0","46C36D77E4B247AE95721BC9779FE422","019cfa3b-1cff-7060-8c54-b2c8d56c123e","019cfa3a-388e-72ab-ad58-bdeb258f96cd","","528","
                <div class=""stimulus-container"">
                    <img src=""images/semantic_sequence/maintaining_a_car_semantic/maintaining_a_car_semantic_2.png"" class=""exp-image"">
                    <div class=""question-area"">
                        <p style=""font-size: 20px; font-weight: bold; margin: 0;"">Is there a person in this image?</p>
                    </div>
                </div>","0","main_experiment_trial","2","maintaining_a_car_semantic","semantic_sequence","chronological","","","","","","",""
"","","","","","html-keyboard-response","126","188518","0.0-126.0","46C36D77E4B247AE95721BC9779FE422","019cfa3b-1cff-7060-8c54-b2c8d56c123e","019cfa3a-388e-72ab-ad58-bdeb258f96cd","","null","
                <div class=""stimulus-container"">
                    <img src=""images/semantic_sequence/maintaining_a_car_semantic/maintaining_a_car_semantic_3.png"" class=""exp-image"">
                    <div class=""question-area""></div> 
                </div>","null","","","","","","","","","","","",""
"","","","","","html-button-response","127","189377","0.0-127.0","46C36D77E4B247AE95721BC9779FE422","019cfa3b-1cff-7060-8c54-b2c8d56c123e","019cfa3a-388e-72ab-ad58-bdeb258f96cd","","858","
                <div class=""stimulus-container"">
                    <img src=""images/semantic_sequence/maintaining_a_car_semantic/maintaining_a_car_semantic_3.png"" class=""exp-image"">
                    <div class=""question-area"">
                        <p style=""font-size: 20px; font-weight: bold; margin: 0;"">Is there a person in this image?</p>
                    </div>
                </div>","0","main_experiment_trial","3","maintaining_a_car_semantic","semantic_sequence","chronological","","","","","","",""
"","","","","","html-keyboard-response","128","190379","0.0-128.0","46C36D77E4B247AE95721BC9779FE422","019cfa3b-1cff-7060-8c54-b2c8d56c123e","019cfa3a-388e-72ab-ad58-bdeb258f96cd","","null","
                <div class=""stimulus-container"">
                    <img src=""images/semantic_sequence/maintaining_a_car_semantic/maintaining_a_car_semantic_4.png"" class=""exp-image"">
                    <div class=""question-area""></div> 
                </div>","null","","","","","","","","","","","",""
"","","","","","html-button-response","129","190908","0.0-129.0","46C36D77E4B247AE95721BC9779FE422","019cfa3b-1cff-7060-8c54-b2c8d56c123e","019cfa3a-388e-72ab-ad58-bdeb258f96cd","","528","
                <div class=""stimulus-container"">
                    <img src=""images/semantic_sequence/maintaining_a_car_semantic/maintaining_a_car_semantic_4.png"" class=""exp-image"">
                    <div class=""question-area"">
                        <p style=""font-size: 20px; font-weight: bold; margin: 0;"">Is there a person in this image?</p>
                    </div>
                </div>","0","main_experiment_trial","4","maintaining_a_car_semantic","semantic_sequence","chronological","","","","","","",""
"","","","","","html-keyboard-response","130","191910","0.0-130.0","46C36D77E4B247AE95721BC9779FE422","019cfa3b-1cff-7060-8c54-b2c8d56c123e","019cfa3a-388e-72ab-ad58-bdeb258f96cd","","null","
                <div class=""stimulus-container"">
                    <img src=""images/semantic_sequence/maintaining_a_car_semantic/maintaining_a_car_semantic_5.png"" class=""exp-image"">
                    <div class=""question-area""></div> 
                </div>","null","","","","","","","","","","","",""
"","","","","","html-button-response","131","192677","0.0-131.0","46C36D77E4B247AE95721BC9779FE422","019cfa3b-1cff-7060-8c54-b2c8d56c123e","019cfa3a-388e-72ab-ad58-bdeb258f96cd","","767","
                <div class=""stimulus-container"">
                    <img src=""images/semantic_sequence/maintaining_a_car_semantic/maintaining_a_car_semantic_5.png"" class=""exp-image"">
                    <div class=""question-area"">
                        <p style=""font-size: 20px; font-weight: bold; margin: 0;"">Is there a person in this image?</p>
                    </div>
                </div>","0","main_experiment_trial","5","maintaining_a_car_semantic","semantic_sequence","chronological","","","","","","",""
"","","","","","html-keyboard-response","132","193690","0.0-132.0","46C36D77E4B247AE95721BC9779FE422","019cfa3b-1cff-7060-8c54-b2c8d56c123e","019cfa3a-388e-72ab-ad58-bdeb258f96cd","","null","
                <div class=""stimulus-container"">
                    <img src=""images/semantic_sequence/maintaining_a_car_semantic/maintaining_a_car_semantic_6.png"" class=""exp-image"">
                    <div class=""question-area""></div> 
                </div>","null","","","","","","","","","","","",""
"","","","","","html-button-response","133","194087","0.0-133.0","46C36D77E4B247AE95721BC9779FE422","019cfa3b-1cff-7060-8c54-b2c8d56c123e","019cfa3a-388e-72ab-ad58-bdeb258f96cd","","396","
                <div class=""stimulus-container"">
                    <img src=""images/semantic_sequence/maintaining_a_car_semantic/maintaining_a_car_semantic_6.png"" class=""exp-image"">
                    <div class=""question-area"">
                        <p style=""font-size: 20px; font-weight: bold; margin: 0;"">Is there a person in this image?</p>
                    </div>
                </div>","0","main_experiment_trial","6","maintaining_a_car_semantic","semantic_sequence","chronological","","","","","","",""
"","","","","","html-keyboard-response","134","195095","0.0-134.0","46C36D77E4B247AE95721BC9779FE422","019cfa3b-1cff-7060-8c54-b2c8d56c123e","019cfa3a-388e-72ab-ad58-bdeb258f96cd","","null","
                <div class=""stimulus-container"">
                    <img src=""images/semantic_sequence/maintaining_a_car_semantic/maintaining_a_car_semantic_7.png"" class=""exp-image"">
                    <div class=""question-area""></div> 
                </div>","null","","","","","","","","","","","",""
"","","","","","html-button-response","135","195609","0.0-135.0","46C36D77E4B247AE95721BC9779FE422","019cfa3b-1cff-7060-8c54-b2c8d56c123e","019cfa3a-388e-72ab-ad58-bdeb258f96cd","","514","
                <div class=""stimulus-container"">
                    <img src=""images/semantic_sequence/maintaining_a_car_semantic/maintaining_a_car_semantic_7.png"" class=""exp-image"">
                    <div class=""question-area"">
                        <p style=""font-size: 20px; font-weight: bold; margin: 0;"">Is there a person in this image?</p>
                    </div>
                </div>","0","main_experiment_trial","7","maintaining_a_car_semantic","semantic_sequence","chronological","","","","","","",""
"","","","","","html-keyboard-response","136","196621","0.0-136.0","46C36D77E4B247AE95721BC9779FE422","019cfa3b-1cff-7060-8c54-b2c8d56c123e","019cfa3a-388e-72ab-ad58-bdeb258f96cd","","null","
                <div class=""stimulus-container"">
                    <img src=""images/semantic_sequence/maintaining_a_car_semantic/maintaining_a_car_semantic_8.png"" class=""exp-image"">
                    <div class=""question-area""></div> 
                </div>","null","","","","","","","","","","","",""
"","","","","","html-button-response","137","197492","0.0-137.0","46C36D77E4B247AE95721BC9779FE422","019cfa3b-1cff-7060-8c54-b2c8d56c123e","019cfa3a-388e-72ab-ad58-bdeb258f96cd","","870","
                <div class=""stimulus-container"">
                    <img src=""images/semantic_sequence/maintaining_a_car_semantic/maintaining_a_car_semantic_8.png"" class=""exp-image"">
                    <div class=""question-area"">
                        <p style=""font-size: 20px; font-weight: bold; margin: 0;"">Is there a person in this image?</p>
                    </div>
                </div>","0","main_experiment_trial","8","maintaining_a_car_semantic","semantic_sequence","chronological","","","","","","",""
"","","","","","html-keyboard-response","138","198506","0.0-138.0","46C36D77E4B247AE95721BC9779FE422","019cfa3b-1cff-7060-8c54-b2c8d56c123e","019cfa3a-388e-72ab-ad58-bdeb258f96cd","","null","
                <div class=""stimulus-container"">
                    <img src=""images/semantic_sequence/maintaining_a_car_semantic/maintaining_a_car_semantic_9.png"" class=""exp-image"">
                    <div class=""question-area""></div> 
                </div>","null","","","","","","","","","","","",""
"","","","","","html-button-response","139","199240","0.0-139.0","46C36D77E4B247AE95721BC9779FE422","019cfa3b-1cff-7060-8c54-b2c8d56c123e","019cfa3a-388e-72ab-ad58-bdeb258f96cd","","733","
                <div class=""stimulus-container"">
                    <img src=""images/semantic_sequence/maintaining_a_car_semantic/maintaining_a_car_semantic_9.png"" class=""exp-image"">
                    <div class=""question-area"">
                        <p style=""font-size: 20px; font-weight: bold; margin: 0;"">Is there a person in this image?</p>
                    </div>
                </div>","0","main_experiment_trial","9","maintaining_a_car_semantic","semantic_sequence","chronological","","","","","","",""
"","","","","","html-keyboard-response","140","200254","0.0-140.0","46C36D77E4B247AE95721BC9779FE422","019cfa3b-1cff-7060-8c54-b2c8d56c123e","019cfa3a-388e-72ab-ad58-bdeb258f96cd","","null","
                <div class=""stimulus-container"">
                    <img src=""images/semantic_sequence/maintaining_a_car_semantic/maintaining_a_car_semantic_ten.png"" class=""exp-image"">
                    <div class=""question-area""></div> 
                </div>","null","","","","","","","","","","","",""
"","","","","","html-button-response","141","201520","0.0-141.0","46C36D77E4B247AE95721BC9779FE422","019cfa3b-1cff-7060-8c54-b2c8d56c123e","019cfa3a-388e-72ab-ad58-bdeb258f96cd","","1266","
                <div class=""stimulus-container"">
                    <img src=""images/semantic_sequence/maintaining_a_car_semantic/maintaining_a_car_semantic_ten.png"" class=""exp-image"">
                    <div class=""question-area"">
                        <p style=""font-size: 20px; font-weight: bold; margin: 0;"">Is there a person in this image?</p>
                    </div>
                </div>","0","main_experiment_trial","ten","maintaining_a_car_semantic","semantic_sequence","chronological","","","","","","",""
"","","","","","html-keyboard-response","142","206523","0.0-142.0","46C36D77E4B247AE95721BC9779FE422","019cfa3b-1cff-7060-8c54-b2c8d56c123e","019cfa3a-388e-72ab-ad58-bdeb258f96cd","","null","<div style=""background-color: white; width: 100vw; height: 100vh;""></div>","null","","","","","","","","","","","",""
"","","","","","html-keyboard-response","143","207525","0.0-143.0","46C36D77E4B247AE95721BC9779FE422","019cfa3b-1cff-7060-8c54-b2c8d56c123e","019cfa3a-388e-72ab-ad58-bdeb258f96cd","","null","
                <div class=""stimulus-container"">
                    <img src=""images/causal_sequence/museum_causal/museum_causal_1.png"" class=""exp-image"">
                    <div class=""question-area""></div> 
                </div>","null","","","","","","","","","","","",""
"","","","","","html-button-response","144","208795","0.0-144.0","46C36D77E4B247AE95721BC9779FE422","019cfa3b-1cff-7060-8c54-b2c8d56c123e","019cfa3a-388e-72ab-ad58-bdeb258f96cd","","1269","
                <div class=""stimulus-container"">
                    <img src=""images/causal_sequence/museum_causal/museum_causal_1.png"" class=""exp-image"">
                    <div class=""question-area"">
                        <p style=""font-size: 20px; font-weight: bold; margin: 0;"">Is there a person in this image?</p>
                    </div>
                </div>","0","main_experiment_trial","1","museum_causal","causal_sequence","chronological","","","","","","",""
"","","","","","html-keyboard-response","145","209809","0.0-145.0","46C36D77E4B247AE95721BC9779FE422","019cfa3b-1cff-7060-8c54-b2c8d56c123e","019cfa3a-388e-72ab-ad58-bdeb258f96cd","","null","
                <div class=""stimulus-container"">
                    <img src=""images/causal_sequence/museum_causal/museum_causal_2.png"" class=""exp-image"">
                    <div class=""question-area""></div> 
                </div>","null","","","","","","","","","","","",""
"","","","","","html-button-response","146","210679","0.0-146.0","46C36D77E4B247AE95721BC9779FE422","019cfa3b-1cff-7060-8c54-b2c8d56c123e","019cfa3a-388e-72ab-ad58-bdeb258f96cd","","870","
                <div class=""stimulus-container"">
                    <img src=""images/causal_sequence/museum_causal/museum_causal_2.png"" class=""exp-image"">
                    <div class=""question-area"">
                        <p style=""font-size: 20px; font-weight: bold; margin: 0;"">Is there a person in this image?</p>
                    </div>
                </div>","1","main_experiment_trial","2","museum_causal","causal_sequence","chronological","","","","","","",""
"","","","","","html-keyboard-response","147","211680","0.0-147.0","46C36D77E4B247AE95721BC9779FE422","019cfa3b-1cff-7060-8c54-b2c8d56c123e","019cfa3a-388e-72ab-ad58-bdeb258f96cd","","null","
                <div class=""stimulus-container"">
                    <img src=""images/causal_sequence/museum_causal/museum_causal_3.png"" class=""exp-image"">
                    <div class=""question-area""></div> 
                </div>","null","","","","","","","","","","","",""
"","","","","","html-button-response","148","212425","0.0-148.0","46C36D77E4B247AE95721BC9779FE422","019cfa3b-1cff-7060-8c54-b2c8d56c123e","019cfa3a-388e-72ab-ad58-bdeb258f96cd","","744","
                <div class=""stimulus-container"">
                    <img src=""images/causal_sequence/museum_causal/museum_causal_3.png"" class=""exp-image"">
                    <div class=""question-area"">
                        <p style=""font-size: 20px; font-weight: bold; margin: 0;"">Is there a person in this image?</p>
                    </div>
                </div>","0","main_experiment_trial","3","museum_causal","causal_sequence","chronological","","","","","","",""
"","","","","","html-keyboard-response","149","213426","0.0-149.0","46C36D77E4B247AE95721BC9779FE422","019cfa3b-1cff-7060-8c54-b2c8d56c123e","019cfa3a-388e-72ab-ad58-bdeb258f96cd","","null","
                <div class=""stimulus-container"">
                    <img src=""images/causal_sequence/museum_causal/museum_causal_4.png"" class=""exp-image"">
                    <div class=""question-area""></div> 
                </div>","null","","","","","","","","","","","",""
"","","","","","html-button-response","150","214735","0.0-150.0","46C36D77E4B247AE95721BC9779FE422","019cfa3b-1cff-7060-8c54-b2c8d56c123e","019cfa3a-388e-72ab-ad58-bdeb258f96cd","","1309","
                <div class=""stimulus-container"">
                    <img src=""images/causal_sequence/museum_causal/museum_causal_4.png"" class=""exp-image"">
                    <div class=""question-area"">
                        <p style=""font-size: 20px; font-weight: bold; margin: 0;"">Is there a person in this image?</p>
                    </div>
                </div>","1","main_experiment_trial","4","museum_causal","causal_sequence","chronological","","","","","","",""
"","","","","","html-keyboard-response","151","215737","0.0-151.0","46C36D77E4B247AE95721BC9779FE422","019cfa3b-1cff-7060-8c54-b2c8d56c123e","019cfa3a-388e-72ab-ad58-bdeb258f96cd","","null","
                <div class=""stimulus-container"">
                    <img src=""images/causal_sequence/museum_causal/museum_causal_5.png"" class=""exp-image"">
                    <div class=""question-area""></div> 
                </div>","null","","","","","","","","","","","",""
"","","","","","html-button-response","152","216423","0.0-152.0","46C36D77E4B247AE95721BC9779FE422","019cfa3b-1cff-7060-8c54-b2c8d56c123e","019cfa3a-388e-72ab-ad58-bdeb258f96cd","","685","
                <div class=""stimulus-container"">
                    <img src=""images/causal_sequence/museum_causal/museum_causal_5.png"" class=""exp-image"">
                    <div class=""question-area"">
                        <p style=""font-size: 20px; font-weight: bold; margin: 0;"">Is there a person in this image?</p>
                    </div>
                </div>","0","main_experiment_trial","5","museum_causal","causal_sequence","chronological","","","","","","",""
"","","","","","html-keyboard-response","153","217425","0.0-153.0","46C36D77E4B247AE95721BC9779FE422","019cfa3b-1cff-7060-8c54-b2c8d56c123e","019cfa3a-388e-72ab-ad58-bdeb258f96cd","","null","
                <div class=""stimulus-container"">
                    <img src=""images/causal_sequence/museum_causal/museum_causal_6.png"" class=""exp-image"">
                    <div class=""question-area""></div> 
                </div>","null","","","","","","","","","","","",""
"","","","","","html-button-response","154","217795","0.0-154.0","46C36D77E4B247AE95721BC9779FE422","019cfa3b-1cff-7060-8c54-b2c8d56c123e","019cfa3a-388e-72ab-ad58-bdeb258f96cd","","370","
                <div class=""stimulus-container"">
                    <img src=""images/causal_sequence/museum_causal/museum_causal_6.png"" class=""exp-image"">
                    <div class=""question-area"">
                        <p style=""font-size: 20px; font-weight: bold; margin: 0;"">Is there a person in this image?</p>
                    </div>
                </div>","0","main_experiment_trial","6","museum_causal","causal_sequence","chronological","","","","","","",""
"","","","","","html-keyboard-response","155","218797","0.0-155.0","46C36D77E4B247AE95721BC9779FE422","019cfa3b-1cff-7060-8c54-b2c8d56c123e","019cfa3a-388e-72ab-ad58-bdeb258f96cd","","null","
                <div class=""stimulus-container"">
                    <img src=""images/causal_sequence/museum_causal/museum_causal_7.png"" class=""exp-image"">
                    <div class=""question-area""></div> 
                </div>","null","","","","","","","","","","","",""
"","","","","","html-button-response","156","219423","0.0-156.0","46C36D77E4B247AE95721BC9779FE422","019cfa3b-1cff-7060-8c54-b2c8d56c123e","019cfa3a-388e-72ab-ad58-bdeb258f96cd","","626","
                <div class=""stimulus-container"">
                    <img src=""images/causal_sequence/museum_causal/museum_causal_7.png"" class=""exp-image"">
                    <div class=""question-area"">
                        <p style=""font-size: 20px; font-weight: bold; margin: 0;"">Is there a person in this image?</p>
                    </div>
                </div>","1","main_experiment_trial","7","museum_causal","causal_sequence","chronological","","","","","","",""
"","","","","","html-keyboard-response","157","220425","0.0-157.0","46C36D77E4B247AE95721BC9779FE422","019cfa3b-1cff-7060-8c54-b2c8d56c123e","019cfa3a-388e-72ab-ad58-bdeb258f96cd","","null","
                <div class=""stimulus-container"">
                    <img src=""images/causal_sequence/museum_causal/museum_causal_8.png"" class=""exp-image"">
                    <div class=""question-area""></div> 
                </div>","null","","","","","","","","","","","",""
"","","","","","html-button-response","158","220826","0.0-158.0","46C36D77E4B247AE95721BC9779FE422","019cfa3b-1cff-7060-8c54-b2c8d56c123e","019cfa3a-388e-72ab-ad58-bdeb258f96cd","","401","
                <div class=""stimulus-container"">
                    <img src=""images/causal_sequence/museum_causal/museum_causal_8.png"" class=""exp-image"">
                    <div class=""question-area"">
                        <p style=""font-size: 20px; font-weight: bold; margin: 0;"">Is there a person in this image?</p>
                    </div>
                </div>","0","main_experiment_trial","8","museum_causal","causal_sequence","chronological","","","","","","",""
"","","","","","html-keyboard-response","159","221828","0.0-159.0","46C36D77E4B247AE95721BC9779FE422","019cfa3b-1cff-7060-8c54-b2c8d56c123e","019cfa3a-388e-72ab-ad58-bdeb258f96cd","","null","
                <div class=""stimulus-container"">
                    <img src=""images/causal_sequence/museum_causal/museum_causal_9.png"" class=""exp-image"">
                    <div class=""question-area""></div> 
                </div>","null","","","","","","","","","","","",""
"","","","","","html-button-response","160","222296","0.0-160.0","46C36D77E4B247AE95721BC9779FE422","019cfa3b-1cff-7060-8c54-b2c8d56c123e","019cfa3a-388e-72ab-ad58-bdeb258f96cd","","468","
                <div class=""stimulus-container"">
                    <img src=""images/causal_sequence/museum_causal/museum_causal_9.png"" class=""exp-image"">
                    <div class=""question-area"">
                        <p style=""font-size: 20px; font-weight: bold; margin: 0;"">Is there a person in this image?</p>
                    </div>
                </div>","1","main_experiment_trial","9","museum_causal","causal_sequence","chronological","","","","","","",""
"","","","","","html-keyboard-response","161","223297","0.0-161.0","46C36D77E4B247AE95721BC9779FE422","019cfa3b-1cff-7060-8c54-b2c8d56c123e","019cfa3a-388e-72ab-ad58-bdeb258f96cd","","null","
                <div class=""stimulus-container"">
                    <img src=""images/causal_sequence/museum_causal/museum_causal_ten.png"" class=""exp-image"">
                    <div class=""question-area""></div> 
                </div>","null","","","","","","","","","","","",""
"","","","","","html-button-response","162","223736","0.0-162.0","46C36D77E4B247AE95721BC9779FE422","019cfa3b-1cff-7060-8c54-b2c8d56c123e","019cfa3a-388e-72ab-ad58-bdeb258f96cd","","438","
                <div class=""stimulus-container"">
                    <img src=""images/causal_sequence/museum_causal/museum_causal_ten.png"" class=""exp-image"">
                    <div class=""question-area"">
                        <p style=""font-size: 20px; font-weight: bold; margin: 0;"">Is there a person in this image?</p>
                    </div>
                </div>","0","main_experiment_trial","ten","museum_causal","causal_sequence","chronological","","","","","","",""
"","","","","","html-keyboard-response","163","228747","0.0-163.0","46C36D77E4B247AE95721BC9779FE422","019cfa3b-1cff-7060-8c54-b2c8d56c123e","019cfa3a-388e-72ab-ad58-bdeb258f96cd","","null","<div style=""background-color: white; width: 100vw; height: 100vh;""></div>","null","","","","","","","","","","","",""
"","","","","","html-keyboard-response","164","229762","0.0-164.0","46C36D77E4B247AE95721BC9779FE422","019cfa3b-1cff-7060-8c54-b2c8d56c123e","019cfa3a-388e-72ab-ad58-bdeb258f96cd","","null","
                <div class=""stimulus-container"">
                    <img src=""images/semantic_sequence/physical_activity_semantic/physical_activity_semantic_1.png"" class=""exp-image"">
                    <div class=""question-area""></div> 
                </div>","null","","","","","","","","","","","",""
"","","","","","html-button-response","165","230583","0.0-165.0","46C36D77E4B247AE95721BC9779FE422","019cfa3b-1cff-7060-8c54-b2c8d56c123e","019cfa3a-388e-72ab-ad58-bdeb258f96cd","","820","
                <div class=""stimulus-container"">
                    <img src=""images/semantic_sequence/physical_activity_semantic/physical_activity_semantic_1.png"" class=""exp-image"">
                    <div class=""question-area"">
                        <p style=""font-size: 20px; font-weight: bold; margin: 0;"">Is there a person in this image?</p>
                    </div>
                </div>","0","main_experiment_trial","1","physical_activity_semantic","semantic_sequence","chronological","","","","","","",""
"","","","","","html-keyboard-response","166","231584","0.0-166.0","46C36D77E4B247AE95721BC9779FE422","019cfa3b-1cff-7060-8c54-b2c8d56c123e","019cfa3a-388e-72ab-ad58-bdeb258f96cd","","null","
                <div class=""stimulus-container"">
                    <img src=""images/semantic_sequence/physical_activity_semantic/physical_activity_semantic_2.png"" class=""exp-image"">
                    <div class=""question-area""></div> 
                </div>","null","","","","","","","","","","","",""
"","","","","","html-button-response","167","231979","0.0-167.0","46C36D77E4B247AE95721BC9779FE422","019cfa3b-1cff-7060-8c54-b2c8d56c123e","019cfa3a-388e-72ab-ad58-bdeb258f96cd","","395","
                <div class=""stimulus-container"">
                    <img src=""images/semantic_sequence/physical_activity_semantic/physical_activity_semantic_2.png"" class=""exp-image"">
                    <div class=""question-area"">
                        <p style=""font-size: 20px; font-weight: bold; margin: 0;"">Is there a person in this image?</p>
                    </div>
                </div>","0","main_experiment_trial","2","physical_activity_semantic","semantic_sequence","chronological","","","","","","",""
"","","","","","html-keyboard-response","168","232995","0.0-168.0","46C36D77E4B247AE95721BC9779FE422","019cfa3b-1cff-7060-8c54-b2c8d56c123e","019cfa3a-388e-72ab-ad58-bdeb258f96cd","","null","
                <div class=""stimulus-container"">
                    <img src=""images/semantic_sequence/physical_activity_semantic/physical_activity_semantic_3.png"" class=""exp-image"">
                    <div class=""question-area""></div> 
                </div>","null","","","","","","","","","","","",""
"","","","","","html-button-response","169","233411","0.0-169.0","46C36D77E4B247AE95721BC9779FE422","019cfa3b-1cff-7060-8c54-b2c8d56c123e","019cfa3a-388e-72ab-ad58-bdeb258f96cd","","416","
                <div class=""stimulus-container"">
                    <img src=""images/semantic_sequence/physical_activity_semantic/physical_activity_semantic_3.png"" class=""exp-image"">
                    <div class=""question-area"">
                        <p style=""font-size: 20px; font-weight: bold; margin: 0;"">Is there a person in this image?</p>
                    </div>
                </div>","0","main_experiment_trial","3","physical_activity_semantic","semantic_sequence","chronological","","","","","","",""
"","","","","","html-keyboard-response","170","234412","0.0-170.0","46C36D77E4B247AE95721BC9779FE422","019cfa3b-1cff-7060-8c54-b2c8d56c123e","019cfa3a-388e-72ab-ad58-bdeb258f96cd","","null","
                <div class=""stimulus-container"">
                    <img src=""images/semantic_sequence/physical_activity_semantic/physical_activity_semantic_4.png"" class=""exp-image"">
                    <div class=""question-area""></div> 
                </div>","null","","","","","","","","","","","",""
"","","","","","html-button-response","171","234723","0.0-171.0","46C36D77E4B247AE95721BC9779FE422","019cfa3b-1cff-7060-8c54-b2c8d56c123e","019cfa3a-388e-72ab-ad58-bdeb258f96cd","","310","
                <div class=""stimulus-container"">
                    <img src=""images/semantic_sequence/physical_activity_semantic/physical_activity_semantic_4.png"" class=""exp-image"">
                    <div class=""question-area"">
                        <p style=""font-size: 20px; font-weight: bold; margin: 0;"">Is there a person in this image?</p>
                    </div>
                </div>","0","main_experiment_trial","4","physical_activity_semantic","semantic_sequence","chronological","","","","","","",""
"","","","","","html-keyboard-response","172","235729","0.0-172.0","46C36D77E4B247AE95721BC9779FE422","019cfa3b-1cff-7060-8c54-b2c8d56c123e","019cfa3a-388e-72ab-ad58-bdeb258f96cd","","null","
                <div class=""stimulus-container"">
                    <img src=""images/semantic_sequence/physical_activity_semantic/physical_activity_semantic_5.png"" class=""exp-image"">
                    <div class=""question-area""></div> 
                </div>","null","","","","","","","","","","","",""
"","","","","","html-button-response","173","236201","0.0-173.0","46C36D77E4B247AE95721BC9779FE422","019cfa3b-1cff-7060-8c54-b2c8d56c123e","019cfa3a-388e-72ab-ad58-bdeb258f96cd","","471","
                <div class=""stimulus-container"">
                    <img src=""images/semantic_sequence/physical_activity_semantic/physical_activity_semantic_5.png"" class=""exp-image"">
                    <div class=""question-area"">
                        <p style=""font-size: 20px; font-weight: bold; margin: 0;"">Is there a person in this image?</p>
                    </div>
                </div>","0","main_experiment_trial","5","physical_activity_semantic","semantic_sequence","chronological","","","","","","",""
"","","","","","html-keyboard-response","174","237206","0.0-174.0","46C36D77E4B247AE95721BC9779FE422","019cfa3b-1cff-7060-8c54-b2c8d56c123e","019cfa3a-388e-72ab-ad58-bdeb258f96cd","","null","
                <div class=""stimulus-container"">
                    <img src=""images/semantic_sequence/physical_activity_semantic/physical_activity_semantic_6.png"" class=""exp-image"">
                    <div class=""question-area""></div> 
                </div>","null","","","","","","","","","","","",""
"","","","","","html-button-response","175","237723","0.0-175.0","46C36D77E4B247AE95721BC9779FE422","019cfa3b-1cff-7060-8c54-b2c8d56c123e","019cfa3a-388e-72ab-ad58-bdeb258f96cd","","516","
                <div class=""stimulus-container"">
                    <img src=""images/semantic_sequence/physical_activity_semantic/physical_activity_semantic_6.png"" class=""exp-image"">
                    <div class=""question-area"">
                        <p style=""font-size: 20px; font-weight: bold; margin: 0;"">Is there a person in this image?</p>
                    </div>
                </div>","0","main_experiment_trial","6","physical_activity_semantic","semantic_sequence","chronological","","","","","","",""
"","","","","","html-keyboard-response","176","238730","0.0-176.0","46C36D77E4B247AE95721BC9779FE422","019cfa3b-1cff-7060-8c54-b2c8d56c123e","019cfa3a-388e-72ab-ad58-bdeb258f96cd","","null","
                <div class=""stimulus-container"">
                    <img src=""images/semantic_sequence/physical_activity_semantic/physical_activity_semantic_7.png"" class=""exp-image"">
                    <div class=""question-area""></div> 
                </div>","null","","","","","","","","","","","",""
"","","","","","html-button-response","177","239246","0.0-177.0","46C36D77E4B247AE95721BC9779FE422","019cfa3b-1cff-7060-8c54-b2c8d56c123e","019cfa3a-388e-72ab-ad58-bdeb258f96cd","","515","
                <div class=""stimulus-container"">
                    <img src=""images/semantic_sequence/physical_activity_semantic/physical_activity_semantic_7.png"" class=""exp-image"">
                    <div class=""question-area"">
                        <p style=""font-size: 20px; font-weight: bold; margin: 0;"">Is there a person in this image?</p>
                    </div>
                </div>","0","main_experiment_trial","7","physical_activity_semantic","semantic_sequence","chronological","","","","","","",""
"","","","","","html-keyboard-response","178","240248","0.0-178.0","46C36D77E4B247AE95721BC9779FE422","019cfa3b-1cff-7060-8c54-b2c8d56c123e","019cfa3a-388e-72ab-ad58-bdeb258f96cd","","null","
                <div class=""stimulus-container"">
