"success","timeout","failed_images","failed_audio","failed_video","trial_type","trial_index","time_elapsed","internal_node_id","subject_id","study_id","session_id","view_history","rt","stimulus","response","task","image_index","folder","sequence_type","valuable_image_index","reward_type","chosen_image_index","target_X","correct_choice"
"true","false","[]","[]","[]","preload","0","6716","0.0-0.0","CE2E9BF1D1E2487E9C10BF59C9321B5A","019cf05b-19d5-7a7b-a2a1-f979578b2605","019ceff9-9f67-7034-9722-02cda2445e09","","","","","","","","","","","","",""
"","","","","","instructions","1","10267","0.0-1.0","CE2E9BF1D1E2487E9C10BF59C9321B5A","019cf05b-19d5-7a7b-a2a1-f979578b2605","019ceff9-9f67-7034-9722-02cda2445e09","[{""page_index"":0,""viewing_time"":3549}]","3550","","","","","","","","","","",""
"","","","","","instructions","2","35034","0.0-2.0","CE2E9BF1D1E2487E9C10BF59C9321B5A","019cf05b-19d5-7a7b-a2a1-f979578b2605","019ceff9-9f67-7034-9722-02cda2445e09","[{""page_index"":0,""viewing_time"":24767}]","24767","","","","","","","","","","",""
"true","","","","","fullscreen","3","40451","0.0-3.0","CE2E9BF1D1E2487E9C10BF59C9321B5A","019cf05b-19d5-7a7b-a2a1-f979578b2605","019ceff9-9f67-7034-9722-02cda2445e09","","4415","","","","","","","","","","",""
"","","","","","instructions","4","66416","0.0-4.0","CE2E9BF1D1E2487E9C10BF59C9321B5A","019cf05b-19d5-7a7b-a2a1-f979578b2605","019ceff9-9f67-7034-9722-02cda2445e09","[{""page_index"":0,""viewing_time"":25964}]","25965","","","","","","","","","","",""
"","","","","","instructions","5","79516","0.0-5.0","CE2E9BF1D1E2487E9C10BF59C9321B5A","019cf05b-19d5-7a7b-a2a1-f979578b2605","019ceff9-9f67-7034-9722-02cda2445e09","[{""page_index"":0,""viewing_time"":13099}]","13099","","","","","","","","","","",""
"","","","","","html-keyboard-response","6","83518","0.0-6.0","CE2E9BF1D1E2487E9C10BF59C9321B5A","019cf05b-19d5-7a7b-a2a1-f979578b2605","019ceff9-9f67-7034-9722-02cda2445e09","","null","
                <div class=""stimulus-container"">
                    <img src=""images/instructions/movie_1.png"" class=""exp-image"">
                    <div class=""question-area""></div> 
                </div>","null","","","","","","","","",""
"","","","","","html-button-response","7","86522","0.0-7.0","CE2E9BF1D1E2487E9C10BF59C9321B5A","019cf05b-19d5-7a7b-a2a1-f979578b2605","019ceff9-9f67-7034-9722-02cda2445e09","","null","
                <div class=""stimulus-container"">
                    <img src=""images/instructions/movie_1.png"" class=""exp-image"">
                    <div class=""question-area"">
                        <p style=""font-size: 20px; font-weight: bold; margin: 0;"">Was there a person in this image?</p>
                    </div>
                </div>","null","example_question","1","","","","","","",""
"","","","","","html-keyboard-response","8","90524","0.0-8.0","CE2E9BF1D1E2487E9C10BF59C9321B5A","019cf05b-19d5-7a7b-a2a1-f979578b2605","019ceff9-9f67-7034-9722-02cda2445e09","","null","
                <div class=""stimulus-container"">
                    <img src=""images/instructions/movie_2.png"" class=""exp-image"">
                    <div class=""question-area""></div> 
                </div>","null","","","","","","","","",""
"","","","","","html-button-response","9","92532","0.0-9.0","CE2E9BF1D1E2487E9C10BF59C9321B5A","019cf05b-19d5-7a7b-a2a1-f979578b2605","019ceff9-9f67-7034-9722-02cda2445e09","","2007","
                <div class=""stimulus-container"">
                    <img src=""images/instructions/movie_2.png"" class=""exp-image"">
                    <div class=""question-area"">
                        <p style=""font-size: 20px; font-weight: bold; margin: 0;"">Was there a person in this image?</p>
                    </div>
                </div>","0","example_question","2","","","","","","",""
"","","","","","html-keyboard-response","10","96535","0.0-10.0","CE2E9BF1D1E2487E9C10BF59C9321B5A","019cf05b-19d5-7a7b-a2a1-f979578b2605","019ceff9-9f67-7034-9722-02cda2445e09","","null","
                <div class=""stimulus-container"">
                    <img src=""images/instructions/movie_3.png"" class=""exp-image"">
                    <div class=""question-area""></div> 
                </div>","null","","","","","","","","",""
"","","","","","html-button-response","11","97566","0.0-11.0","CE2E9BF1D1E2487E9C10BF59C9321B5A","019cf05b-19d5-7a7b-a2a1-f979578b2605","019ceff9-9f67-7034-9722-02cda2445e09","","1030","
                <div class=""stimulus-container"">
                    <img src=""images/instructions/movie_3.png"" class=""exp-image"">
                    <div class=""question-area"">
                        <p style=""font-size: 20px; font-weight: bold; margin: 0;"">Was there a person in this image?</p>
                    </div>
                </div>","0","example_question","3","","","","","","",""
"","","","","","html-keyboard-response","12","101569","0.0-12.0","CE2E9BF1D1E2487E9C10BF59C9321B5A","019cf05b-19d5-7a7b-a2a1-f979578b2605","019ceff9-9f67-7034-9722-02cda2445e09","","null","
                <div class=""stimulus-container"">
                    <img src=""images/instructions/movie_4.png"" class=""exp-image"">
                    <div class=""question-area""></div> 
                </div>","null","","","","","","","","",""
"","","","","","html-button-response","13","103049","0.0-13.0","CE2E9BF1D1E2487E9C10BF59C9321B5A","019cf05b-19d5-7a7b-a2a1-f979578b2605","019ceff9-9f67-7034-9722-02cda2445e09","","1479","
                <div class=""stimulus-container"">
                    <img src=""images/instructions/movie_4.png"" class=""exp-image"">
                    <div class=""question-area"">
                        <p style=""font-size: 20px; font-weight: bold; margin: 0;"">Was there a person in this image?</p>
                    </div>
                </div>","0","example_question","4","","","","","","",""
"","","","","","instructions","14","124965","0.0-14.0","CE2E9BF1D1E2487E9C10BF59C9321B5A","019cf05b-19d5-7a7b-a2a1-f979578b2605","019ceff9-9f67-7034-9722-02cda2445e09","[{""page_index"":0,""viewing_time"":21916}]","21916","","","","","","","","","","",""
"","","","","","instructions","15","143382","0.0-15.0","CE2E9BF1D1E2487E9C10BF59C9321B5A","019cf05b-19d5-7a7b-a2a1-f979578b2605","019ceff9-9f67-7034-9722-02cda2445e09","[{""page_index"":0,""viewing_time"":18416}]","18416","","","","","","","","","","",""
"","","","","","html-keyboard-response","16","144384","0.0-16.0","CE2E9BF1D1E2487E9C10BF59C9321B5A","019cf05b-19d5-7a7b-a2a1-f979578b2605","019ceff9-9f67-7034-9722-02cda2445e09","","null","<div style=""background-color: white; width: 100vw; height: 100vh;""></div>","null","","","","","","","","",""
"","","","","","html-keyboard-response","17","149387","0.0-17.0","CE2E9BF1D1E2487E9C10BF59C9321B5A","019cf05b-19d5-7a7b-a2a1-f979578b2605","019ceff9-9f67-7034-9722-02cda2445e09","","null","
                <div class=""stimulus-container"">
                    <img src=""images/causal_sequence/the_performance_causal/the_performance_causal_1.png"" class=""exp-image"">
                    <div class=""question-area""></div> 
                </div>","null","","","","","","","","",""
"","","","","","html-button-response","18","151349","0.0-18.0","CE2E9BF1D1E2487E9C10BF59C9321B5A","019cf05b-19d5-7a7b-a2a1-f979578b2605","019ceff9-9f67-7034-9722-02cda2445e09","","1960","
                <div class=""stimulus-container"">
                    <img src=""images/causal_sequence/the_performance_causal/the_performance_causal_1.png"" class=""exp-image"">
                    <div class=""question-area"">
                        <p style=""font-size: 20px; font-weight: bold; margin: 0;"">Is there a person in this image?</p>
                    </div>
                </div>","0","main_experiment_trial","1","the_performance_causal","causal_sequence","","","","",""
"","","","","","html-keyboard-response","19","156350","0.0-19.0","CE2E9BF1D1E2487E9C10BF59C9321B5A","019cf05b-19d5-7a7b-a2a1-f979578b2605","019ceff9-9f67-7034-9722-02cda2445e09","","null","
                <div class=""stimulus-container"">
                    <img src=""images/causal_sequence/the_performance_causal/the_performance_causal_2.png"" class=""exp-image"">
                    <div class=""question-area""></div> 
                </div>","null","","","","","","","","",""
"","","","","","html-button-response","20","157699","0.0-20.0","CE2E9BF1D1E2487E9C10BF59C9321B5A","019cf05b-19d5-7a7b-a2a1-f979578b2605","019ceff9-9f67-7034-9722-02cda2445e09","","1347","
                <div class=""stimulus-container"">
                    <img src=""images/causal_sequence/the_performance_causal/the_performance_causal_2.png"" class=""exp-image"">
                    <div class=""question-area"">
                        <p style=""font-size: 20px; font-weight: bold; margin: 0;"">Is there a person in this image?</p>
                    </div>
                </div>","0","main_experiment_trial","2","the_performance_causal","causal_sequence","","","","",""
"","","","","","html-keyboard-response","21","162701","0.0-21.0","CE2E9BF1D1E2487E9C10BF59C9321B5A","019cf05b-19d5-7a7b-a2a1-f979578b2605","019ceff9-9f67-7034-9722-02cda2445e09","","null","
                <div class=""stimulus-container"">
                    <img src=""images/causal_sequence/the_performance_causal/the_performance_causal_3.png"" class=""exp-image"">
                    <div class=""question-area""></div> 
                </div>","null","","","","","","","","",""
"","","","","","html-button-response","22","163465","0.0-22.0","CE2E9BF1D1E2487E9C10BF59C9321B5A","019cf05b-19d5-7a7b-a2a1-f979578b2605","019ceff9-9f67-7034-9722-02cda2445e09","","763","
                <div class=""stimulus-container"">
                    <img src=""images/causal_sequence/the_performance_causal/the_performance_causal_3.png"" class=""exp-image"">
                    <div class=""question-area"">
                        <p style=""font-size: 20px; font-weight: bold; margin: 0;"">Is there a person in this image?</p>
                    </div>
                </div>","0","main_experiment_trial","3","the_performance_causal","causal_sequence","","","","",""
"","","","","","html-keyboard-response","23","168467","0.0-23.0","CE2E9BF1D1E2487E9C10BF59C9321B5A","019cf05b-19d5-7a7b-a2a1-f979578b2605","019ceff9-9f67-7034-9722-02cda2445e09","","null","
                <div class=""stimulus-container"">
                    <img src=""images/causal_sequence/the_performance_causal/the_performance_causal_4.png"" class=""exp-image"">
                    <div class=""question-area""></div> 
                </div>","null","","","","","","","","",""
"","","","","","html-button-response","24","169298","0.0-24.0","CE2E9BF1D1E2487E9C10BF59C9321B5A","019cf05b-19d5-7a7b-a2a1-f979578b2605","019ceff9-9f67-7034-9722-02cda2445e09","","830","
                <div class=""stimulus-container"">
                    <img src=""images/causal_sequence/the_performance_causal/the_performance_causal_4.png"" class=""exp-image"">
                    <div class=""question-area"">
                        <p style=""font-size: 20px; font-weight: bold; margin: 0;"">Is there a person in this image?</p>
                    </div>
                </div>","0","main_experiment_trial","4","the_performance_causal","causal_sequence","","","","",""
"","","","","","html-keyboard-response","25","174301","0.0-25.0","CE2E9BF1D1E2487E9C10BF59C9321B5A","019cf05b-19d5-7a7b-a2a1-f979578b2605","019ceff9-9f67-7034-9722-02cda2445e09","","null","
                <div class=""stimulus-container"">
                    <img src=""images/causal_sequence/the_performance_causal/the_performance_causal_5.png"" class=""exp-image"">
                    <div class=""question-area""></div> 
                </div>","null","","","","","","","","",""
"","","","","","html-button-response","26","175632","0.0-26.0","CE2E9BF1D1E2487E9C10BF59C9321B5A","019cf05b-19d5-7a7b-a2a1-f979578b2605","019ceff9-9f67-7034-9722-02cda2445e09","","1330","
                <div class=""stimulus-container"">
                    <img src=""images/causal_sequence/the_performance_causal/the_performance_causal_5.png"" class=""exp-image"">
                    <div class=""question-area"">
                        <p style=""font-size: 20px; font-weight: bold; margin: 0;"">Is there a person in this image?</p>
                    </div>
                </div>","0","main_experiment_trial","5","the_performance_causal","causal_sequence","","","","",""
"","","","","","html-keyboard-response","27","180634","0.0-27.0","CE2E9BF1D1E2487E9C10BF59C9321B5A","019cf05b-19d5-7a7b-a2a1-f979578b2605","019ceff9-9f67-7034-9722-02cda2445e09","","null","
                <div class=""stimulus-container"">
                    <img src=""images/causal_sequence/the_performance_causal/the_performance_causal_6.png"" class=""exp-image"">
                    <div class=""question-area""></div> 
                </div>","null","","","","","","","","",""
"","","","","","html-button-response","28","181698","0.0-28.0","CE2E9BF1D1E2487E9C10BF59C9321B5A","019cf05b-19d5-7a7b-a2a1-f979578b2605","019ceff9-9f67-7034-9722-02cda2445e09","","1063","
                <div class=""stimulus-container"">
                    <img src=""images/causal_sequence/the_performance_causal/the_performance_causal_6.png"" class=""exp-image"">
                    <div class=""question-area"">
                        <p style=""font-size: 20px; font-weight: bold; margin: 0;"">Is there a person in this image?</p>
                    </div>
                </div>","0","main_experiment_trial","6","the_performance_causal","causal_sequence","","","","",""
"","","","","","html-keyboard-response","29","186700","0.0-29.0","CE2E9BF1D1E2487E9C10BF59C9321B5A","019cf05b-19d5-7a7b-a2a1-f979578b2605","019ceff9-9f67-7034-9722-02cda2445e09","","null","
                <div class=""stimulus-container"">
                    <img src=""images/causal_sequence/the_performance_causal/the_performance_causal_7.png"" class=""exp-image"">
                    <div class=""question-area""></div> 
                </div>","null","","","","","","","","",""
"","","","","","html-button-response","30","187665","0.0-30.0","CE2E9BF1D1E2487E9C10BF59C9321B5A","019cf05b-19d5-7a7b-a2a1-f979578b2605","019ceff9-9f67-7034-9722-02cda2445e09","","963","
                <div class=""stimulus-container"">
                    <img src=""images/causal_sequence/the_performance_causal/the_performance_causal_7.png"" class=""exp-image"">
                    <div class=""question-area"">
                        <p style=""font-size: 20px; font-weight: bold; margin: 0;"">Is there a person in this image?</p>
                    </div>
                </div>","0","main_experiment_trial","7","the_performance_causal","causal_sequence","","","","",""
"","","","","","html-keyboard-response","31","192667","0.0-31.0","CE2E9BF1D1E2487E9C10BF59C9321B5A","019cf05b-19d5-7a7b-a2a1-f979578b2605","019ceff9-9f67-7034-9722-02cda2445e09","","null","
                <div class=""stimulus-container"">
                    <img src=""images/causal_sequence/the_performance_causal/the_performance_causal_8.png"" class=""exp-image"">
                    <div class=""question-area""></div> 
                </div>","null","","","","","","","","",""
"","","","","","html-button-response","32","193581","0.0-32.0","CE2E9BF1D1E2487E9C10BF59C9321B5A","019cf05b-19d5-7a7b-a2a1-f979578b2605","019ceff9-9f67-7034-9722-02cda2445e09","","913","
                <div class=""stimulus-container"">
                    <img src=""images/causal_sequence/the_performance_causal/the_performance_causal_8.png"" class=""exp-image"">
                    <div class=""question-area"">
                        <p style=""font-size: 20px; font-weight: bold; margin: 0;"">Is there a person in this image?</p>
                    </div>
                </div>","0","main_experiment_trial","8","the_performance_causal","causal_sequence","","","","",""
"","","","","","html-keyboard-response","33","198584","0.0-33.0","CE2E9BF1D1E2487E9C10BF59C9321B5A","019cf05b-19d5-7a7b-a2a1-f979578b2605","019ceff9-9f67-7034-9722-02cda2445e09","","null","
                <div class=""stimulus-container"">
                    <img src=""images/causal_sequence/the_performance_causal/the_performance_causal_9.png"" class=""exp-image"">
                    <div class=""question-area""></div> 
                </div>","null","","","","","","","","",""
"","","","","","html-button-response","34","199798","0.0-34.0","CE2E9BF1D1E2487E9C10BF59C9321B5A","019cf05b-19d5-7a7b-a2a1-f979578b2605","019ceff9-9f67-7034-9722-02cda2445e09","","1212","
                <div class=""stimulus-container"">
                    <img src=""images/causal_sequence/the_performance_causal/the_performance_causal_9.png"" class=""exp-image"">
                    <div class=""question-area"">
                        <p style=""font-size: 20px; font-weight: bold; margin: 0;"">Is there a person in this image?</p>
                    </div>
                </div>","0","main_experiment_trial","9","the_performance_causal","causal_sequence","","","","",""
"","","","","","html-keyboard-response","35","204800","0.0-35.0","CE2E9BF1D1E2487E9C10BF59C9321B5A","019cf05b-19d5-7a7b-a2a1-f979578b2605","019ceff9-9f67-7034-9722-02cda2445e09","","null","
                <div class=""stimulus-container"">
                    <img src=""images/causal_sequence/the_performance_causal/the_performance_causal_ten.png"" class=""exp-image"">
                    <div class=""question-area""></div> 
                </div>","null","","","","","","","","",""
"","","","","","html-button-response","36","205781","0.0-36.0","CE2E9BF1D1E2487E9C10BF59C9321B5A","019cf05b-19d5-7a7b-a2a1-f979578b2605","019ceff9-9f67-7034-9722-02cda2445e09","","980","
                <div class=""stimulus-container"">
                    <img src=""images/causal_sequence/the_performance_causal/the_performance_causal_ten.png"" class=""exp-image"">
                    <div class=""question-area"">
                        <p style=""font-size: 20px; font-weight: bold; margin: 0;"">Is there a person in this image?</p>
                    </div>
                </div>","0","main_experiment_trial","ten","the_performance_causal","causal_sequence","","","","",""
"","","","","","html-keyboard-response","37","206783","0.0-37.0","CE2E9BF1D1E2487E9C10BF59C9321B5A","019cf05b-19d5-7a7b-a2a1-f979578b2605","019ceff9-9f67-7034-9722-02cda2445e09","","null","<div style=""background-color: white; width: 100vw; height: 100vh;""></div>","null","","","","","","","","",""
"","","","","","html-keyboard-response","38","211786","0.0-38.0","CE2E9BF1D1E2487E9C10BF59C9321B5A","019cf05b-19d5-7a7b-a2a1-f979578b2605","019ceff9-9f67-7034-9722-02cda2445e09","","null","
                <div class=""stimulus-container"">
                    <img src=""images/causal_sequence/saving_a_cat_causal/saving_a_cat_causal_1.png"" class=""exp-image"">
                    <div class=""question-area""></div> 
                </div>","null","","","","","","","","",""
"","","","","","html-button-response","39","213030","0.0-39.0","CE2E9BF1D1E2487E9C10BF59C9321B5A","019cf05b-19d5-7a7b-a2a1-f979578b2605","019ceff9-9f67-7034-9722-02cda2445e09","","1243","
                <div class=""stimulus-container"">
                    <img src=""images/causal_sequence/saving_a_cat_causal/saving_a_cat_causal_1.png"" class=""exp-image"">
                    <div class=""question-area"">
                        <p style=""font-size: 20px; font-weight: bold; margin: 0;"">Is there a person in this image?</p>
                    </div>
                </div>","0","main_experiment_trial","1","saving_a_cat_causal","causal_sequence","","","","",""
"","","","","","html-keyboard-response","40","218032","0.0-40.0","CE2E9BF1D1E2487E9C10BF59C9321B5A","019cf05b-19d5-7a7b-a2a1-f979578b2605","019ceff9-9f67-7034-9722-02cda2445e09","","null","
                <div class=""stimulus-container"">
                    <img src=""images/causal_sequence/saving_a_cat_causal/saving_a_cat_causal_2.png"" class=""exp-image"">
                    <div class=""question-area""></div> 
                </div>","null","","","","","","","","",""
"","","","","","html-button-response","41","220214","0.0-41.0","CE2E9BF1D1E2487E9C10BF59C9321B5A","019cf05b-19d5-7a7b-a2a1-f979578b2605","019ceff9-9f67-7034-9722-02cda2445e09","","2181","
                <div class=""stimulus-container"">
                    <img src=""images/causal_sequence/saving_a_cat_causal/saving_a_cat_causal_2.png"" class=""exp-image"">
                    <div class=""question-area"">
                        <p style=""font-size: 20px; font-weight: bold; margin: 0;"">Is there a person in this image?</p>
                    </div>
                </div>","1","main_experiment_trial","2","saving_a_cat_causal","causal_sequence","","","","",""
"","","","","","html-keyboard-response","42","225217","0.0-42.0","CE2E9BF1D1E2487E9C10BF59C9321B5A","019cf05b-19d5-7a7b-a2a1-f979578b2605","019ceff9-9f67-7034-9722-02cda2445e09","","null","
                <div class=""stimulus-container"">
                    <img src=""images/causal_sequence/saving_a_cat_causal/saving_a_cat_causal_3.png"" class=""exp-image"">
                    <div class=""question-area""></div> 
                </div>","null","","","","","","","","",""
"","","","","","html-button-response","43","226231","0.0-43.0","CE2E9BF1D1E2487E9C10BF59C9321B5A","019cf05b-19d5-7a7b-a2a1-f979578b2605","019ceff9-9f67-7034-9722-02cda2445e09","","1013","
                <div class=""stimulus-container"">
                    <img src=""images/causal_sequence/saving_a_cat_causal/saving_a_cat_causal_3.png"" class=""exp-image"">
                    <div class=""question-area"">
                        <p style=""font-size: 20px; font-weight: bold; margin: 0;"">Is there a person in this image?</p>
                    </div>
                </div>","1","main_experiment_trial","3","saving_a_cat_causal","causal_sequence","","","","",""
"","","","","","html-keyboard-response","44","231233","0.0-44.0","CE2E9BF1D1E2487E9C10BF59C9321B5A","019cf05b-19d5-7a7b-a2a1-f979578b2605","019ceff9-9f67-7034-9722-02cda2445e09","","null","
                <div class=""stimulus-container"">
                    <img src=""images/causal_sequence/saving_a_cat_causal/saving_a_cat_causal_4.png"" class=""exp-image"">
                    <div class=""question-area""></div> 
                </div>","null","","","","","","","","",""
"","","","","","html-button-response","45","232164","0.0-45.0","CE2E9BF1D1E2487E9C10BF59C9321B5A","019cf05b-19d5-7a7b-a2a1-f979578b2605","019ceff9-9f67-7034-9722-02cda2445e09","","929","
                <div class=""stimulus-container"">
                    <img src=""images/causal_sequence/saving_a_cat_causal/saving_a_cat_causal_4.png"" class=""exp-image"">
                    <div class=""question-area"">
                        <p style=""font-size: 20px; font-weight: bold; margin: 0;"">Is there a person in this image?</p>
                    </div>
                </div>","0","main_experiment_trial","4","saving_a_cat_causal","causal_sequence","","","","",""
"","","","","","html-keyboard-response","46","237166","0.0-46.0","CE2E9BF1D1E2487E9C10BF59C9321B5A","019cf05b-19d5-7a7b-a2a1-f979578b2605","019ceff9-9f67-7034-9722-02cda2445e09","","null","
                <div class=""stimulus-container"">
                    <img src=""images/causal_sequence/saving_a_cat_causal/saving_a_cat_causal_5.png"" class=""exp-image"">
                    <div class=""question-area""></div> 
                </div>","null","","","","","","","","",""
"","","","","","html-button-response","47","237948","0.0-47.0","CE2E9BF1D1E2487E9C10BF59C9321B5A","019cf05b-19d5-7a7b-a2a1-f979578b2605","019ceff9-9f67-7034-9722-02cda2445e09","","781","
                <div class=""stimulus-container"">
                    <img src=""images/causal_sequence/saving_a_cat_causal/saving_a_cat_causal_5.png"" class=""exp-image"">
                    <div class=""question-area"">
                        <p style=""font-size: 20px; font-weight: bold; margin: 0;"">Is there a person in this image?</p>
                    </div>
                </div>","0","main_experiment_trial","5","saving_a_cat_causal","causal_sequence","","","","",""
"","","","","","html-keyboard-response","48","242951","0.0-48.0","CE2E9BF1D1E2487E9C10BF59C9321B5A","019cf05b-19d5-7a7b-a2a1-f979578b2605","019ceff9-9f67-7034-9722-02cda2445e09","","null","
                <div class=""stimulus-container"">
                    <img src=""images/causal_sequence/saving_a_cat_causal/saving_a_cat_causal_6.png"" class=""exp-image"">
                    <div class=""question-area""></div> 
                </div>","null","","","","","","","","",""
"","","","","","html-button-response","49","244247","0.0-49.0","CE2E9BF1D1E2487E9C10BF59C9321B5A","019cf05b-19d5-7a7b-a2a1-f979578b2605","019ceff9-9f67-7034-9722-02cda2445e09","","1296","
                <div class=""stimulus-container"">
                    <img src=""images/causal_sequence/saving_a_cat_causal/saving_a_cat_causal_6.png"" class=""exp-image"">
                    <div class=""question-area"">
                        <p style=""font-size: 20px; font-weight: bold; margin: 0;"">Is there a person in this image?</p>
                    </div>
                </div>","0","main_experiment_trial","6","saving_a_cat_causal","causal_sequence","","","","",""
"","","","","","html-keyboard-response","50","249250","0.0-50.0","CE2E9BF1D1E2487E9C10BF59C9321B5A","019cf05b-19d5-7a7b-a2a1-f979578b2605","019ceff9-9f67-7034-9722-02cda2445e09","","null","
                <div class=""stimulus-container"">
                    <img src=""images/causal_sequence/saving_a_cat_causal/saving_a_cat_causal_7.png"" class=""exp-image"">
                    <div class=""question-area""></div> 
                </div>","null","","","","","","","","",""
"","","","","","html-button-response","51","250431","0.0-51.0","CE2E9BF1D1E2487E9C10BF59C9321B5A","019cf05b-19d5-7a7b-a2a1-f979578b2605","019ceff9-9f67-7034-9722-02cda2445e09","","1179","
                <div class=""stimulus-container"">
                    <img src=""images/causal_sequence/saving_a_cat_causal/saving_a_cat_causal_7.png"" class=""exp-image"">
                    <div class=""question-area"">
                        <p style=""font-size: 20px; font-weight: bold; margin: 0;"">Is there a person in this image?</p>
                    </div>
                </div>","0","main_experiment_trial","7","saving_a_cat_causal","causal_sequence","","","","",""
"","","","","","html-keyboard-response","52","255432","0.0-52.0","CE2E9BF1D1E2487E9C10BF59C9321B5A","019cf05b-19d5-7a7b-a2a1-f979578b2605","019ceff9-9f67-7034-9722-02cda2445e09","","null","
                <div class=""stimulus-container"">
                    <img src=""images/causal_sequence/saving_a_cat_causal/saving_a_cat_causal_8.png"" class=""exp-image"">
                    <div class=""question-area""></div> 
                </div>","null","","","","","","","","",""
"","","","","","html-button-response","53","256330","0.0-53.0","CE2E9BF1D1E2487E9C10BF59C9321B5A","019cf05b-19d5-7a7b-a2a1-f979578b2605","019ceff9-9f67-7034-9722-02cda2445e09","","897","
                <div class=""stimulus-container"">
                    <img src=""images/causal_sequence/saving_a_cat_causal/saving_a_cat_causal_8.png"" class=""exp-image"">
                    <div class=""question-area"">
                        <p style=""font-size: 20px; font-weight: bold; margin: 0;"">Is there a person in this image?</p>
                    </div>
                </div>","0","main_experiment_trial","8","saving_a_cat_causal","causal_sequence","","","","",""
"","","","","","html-keyboard-response","54","261332","0.0-54.0","CE2E9BF1D1E2487E9C10BF59C9321B5A","019cf05b-19d5-7a7b-a2a1-f979578b2605","019ceff9-9f67-7034-9722-02cda2445e09","","null","
                <div class=""stimulus-container"">
                    <img src=""images/causal_sequence/saving_a_cat_causal/saving_a_cat_causal_9.png"" class=""exp-image"">
                    <div class=""question-area""></div> 
                </div>","null","","","","","","","","",""
"","","","","","html-button-response","55","261981","0.0-55.0","CE2E9BF1D1E2487E9C10BF59C9321B5A","019cf05b-19d5-7a7b-a2a1-f979578b2605","019ceff9-9f67-7034-9722-02cda2445e09","","647","
                <div class=""stimulus-container"">
                    <img src=""images/causal_sequence/saving_a_cat_causal/saving_a_cat_causal_9.png"" class=""exp-image"">
                    <div class=""question-area"">
                        <p style=""font-size: 20px; font-weight: bold; margin: 0;"">Is there a person in this image?</p>
                    </div>
                </div>","0","main_experiment_trial","9","saving_a_cat_causal","causal_sequence","","","","",""
"","","","","","html-keyboard-response","56","266983","0.0-56.0","CE2E9BF1D1E2487E9C10BF59C9321B5A","019cf05b-19d5-7a7b-a2a1-f979578b2605","019ceff9-9f67-7034-9722-02cda2445e09","","null","
                <div class=""stimulus-container"">
                    <img src=""images/causal_sequence/saving_a_cat_causal/saving_a_cat_causal_ten.png"" class=""exp-image"">
                    <div class=""question-area""></div> 
                </div>","null","","","","","","","","",""
"","","","","","html-button-response","57","267713","0.0-57.0","CE2E9BF1D1E2487E9C10BF59C9321B5A","019cf05b-19d5-7a7b-a2a1-f979578b2605","019ceff9-9f67-7034-9722-02cda2445e09","","729","
                <div class=""stimulus-container"">
                    <img src=""images/causal_sequence/saving_a_cat_causal/saving_a_cat_causal_ten.png"" class=""exp-image"">
                    <div class=""question-area"">
                        <p style=""font-size: 20px; font-weight: bold; margin: 0;"">Is there a person in this image?</p>
                    </div>
                </div>","0","main_experiment_trial","ten","saving_a_cat_causal","causal_sequence","","","","",""
"","","","","","html-keyboard-response","58","268715","0.0-58.0","CE2E9BF1D1E2487E9C10BF59C9321B5A","019cf05b-19d5-7a7b-a2a1-f979578b2605","019ceff9-9f67-7034-9722-02cda2445e09","","null","<div style=""background-color: white; width: 100vw; height: 100vh;""></div>","null","","","","","","","","",""
"","","","","","html-keyboard-response","59","273717","0.0-59.0","CE2E9BF1D1E2487E9C10BF59C9321B5A","019cf05b-19d5-7a7b-a2a1-f979578b2605","019ceff9-9f67-7034-9722-02cda2445e09","","null","
                <div class=""stimulus-container"">
                    <img src=""images/causal_sequence/dog_causal/dog_causal_1.png"" class=""exp-image"">
                    <div class=""question-area""></div> 
                </div>","null","","","","","","","","",""
"","","","","","html-button-response","60","274330","0.0-60.0","CE2E9BF1D1E2487E9C10BF59C9321B5A","019cf05b-19d5-7a7b-a2a1-f979578b2605","019ceff9-9f67-7034-9722-02cda2445e09","","612","
                <div class=""stimulus-container"">
                    <img src=""images/causal_sequence/dog_causal/dog_causal_1.png"" class=""exp-image"">
                    <div class=""question-area"">
                        <p style=""font-size: 20px; font-weight: bold; margin: 0;"">Is there a person in this image?</p>
                    </div>
                </div>","0","main_experiment_trial","1","dog_causal","causal_sequence","","","","",""
"","","","","","html-keyboard-response","61","279332","0.0-61.0","CE2E9BF1D1E2487E9C10BF59C9321B5A","019cf05b-19d5-7a7b-a2a1-f979578b2605","019ceff9-9f67-7034-9722-02cda2445e09","","null","
                <div class=""stimulus-container"">
                    <img src=""images/causal_sequence/dog_causal/dog_causal_2.png"" class=""exp-image"">
                    <div class=""question-area""></div> 
                </div>","null","","","","","","","","",""
"","","","","","html-button-response","62","279930","0.0-62.0","CE2E9BF1D1E2487E9C10BF59C9321B5A","019cf05b-19d5-7a7b-a2a1-f979578b2605","019ceff9-9f67-7034-9722-02cda2445e09","","597","
                <div class=""stimulus-container"">
                    <img src=""images/causal_sequence/dog_causal/dog_causal_2.png"" class=""exp-image"">
                    <div class=""question-area"">
                        <p style=""font-size: 20px; font-weight: bold; margin: 0;"">Is there a person in this image?</p>
                    </div>
                </div>","0","main_experiment_trial","2","dog_causal","causal_sequence","","","","",""
"","","","","","html-keyboard-response","63","284932","0.0-63.0","CE2E9BF1D1E2487E9C10BF59C9321B5A","019cf05b-19d5-7a7b-a2a1-f979578b2605","019ceff9-9f67-7034-9722-02cda2445e09","","null","
                <div class=""stimulus-container"">
                    <img src=""images/causal_sequence/dog_causal/dog_causal_3.png"" class=""exp-image"">
                    <div class=""question-area""></div> 
                </div>","null","","","","","","","","",""
"","","","","","html-button-response","64","285613","0.0-64.0","CE2E9BF1D1E2487E9C10BF59C9321B5A","019cf05b-19d5-7a7b-a2a1-f979578b2605","019ceff9-9f67-7034-9722-02cda2445e09","","680","
                <div class=""stimulus-container"">
                    <img src=""images/causal_sequence/dog_causal/dog_causal_3.png"" class=""exp-image"">
                    <div class=""question-area"">
                        <p style=""font-size: 20px; font-weight: bold; margin: 0;"">Is there a person in this image?</p>
                    </div>
                </div>","0","main_experiment_trial","3","dog_causal","causal_sequence","","","","",""
"","","","","","html-keyboard-response","65","290615","0.0-65.0","CE2E9BF1D1E2487E9C10BF59C9321B5A","019cf05b-19d5-7a7b-a2a1-f979578b2605","019ceff9-9f67-7034-9722-02cda2445e09","","null","
                <div class=""stimulus-container"">
                    <img src=""images/causal_sequence/dog_causal/dog_causal_4.png"" class=""exp-image"">
                    <div class=""question-area""></div> 
                </div>","null","","","","","","","","",""
"","","","","","html-button-response","66","291097","0.0-66.0","CE2E9BF1D1E2487E9C10BF59C9321B5A","019cf05b-19d5-7a7b-a2a1-f979578b2605","019ceff9-9f67-7034-9722-02cda2445e09","","480","
                <div class=""stimulus-container"">
                    <img src=""images/causal_sequence/dog_causal/dog_causal_4.png"" class=""exp-image"">
                    <div class=""question-area"">
                        <p style=""font-size: 20px; font-weight: bold; margin: 0;"">Is there a person in this image?</p>
                    </div>
                </div>","0","main_experiment_trial","4","dog_causal","causal_sequence","","","","",""
"","","","","","html-keyboard-response","67","296099","0.0-67.0","CE2E9BF1D1E2487E9C10BF59C9321B5A","019cf05b-19d5-7a7b-a2a1-f979578b2605","019ceff9-9f67-7034-9722-02cda2445e09","","null","
                <div class=""stimulus-container"">
                    <img src=""images/causal_sequence/dog_causal/dog_causal_5.png"" class=""exp-image"">
                    <div class=""question-area""></div> 
                </div>","null","","","","","","","","",""
"","","","","","html-button-response","68","296830","0.0-68.0","CE2E9BF1D1E2487E9C10BF59C9321B5A","019cf05b-19d5-7a7b-a2a1-f979578b2605","019ceff9-9f67-7034-9722-02cda2445e09","","730","
                <div class=""stimulus-container"">
                    <img src=""images/causal_sequence/dog_causal/dog_causal_5.png"" class=""exp-image"">
                    <div class=""question-area"">
                        <p style=""font-size: 20px; font-weight: bold; margin: 0;"">Is there a person in this image?</p>
                    </div>
                </div>","0","main_experiment_trial","5","dog_causal","causal_sequence","","","","",""
"","","","","","html-keyboard-response","69","301833","0.0-69.0","CE2E9BF1D1E2487E9C10BF59C9321B5A","019cf05b-19d5-7a7b-a2a1-f979578b2605","019ceff9-9f67-7034-9722-02cda2445e09","","null","
                <div class=""stimulus-container"">
                    <img src=""images/causal_sequence/dog_causal/dog_causal_6.png"" class=""exp-image"">
                    <div class=""question-area""></div> 
                </div>","null","","","","","","","","",""
"","","","","","html-button-response","70","302330","0.0-70.0","CE2E9BF1D1E2487E9C10BF59C9321B5A","019cf05b-19d5-7a7b-a2a1-f979578b2605","019ceff9-9f67-7034-9722-02cda2445e09","","496","
                <div class=""stimulus-container"">
                    <img src=""images/causal_sequence/dog_causal/dog_causal_6.png"" class=""exp-image"">
                    <div class=""question-area"">
                        <p style=""font-size: 20px; font-weight: bold; margin: 0;"">Is there a person in this image?</p>
                    </div>
                </div>","0","main_experiment_trial","6","dog_causal","causal_sequence","","","","",""
"","","","","","html-keyboard-response","71","307333","0.0-71.0","CE2E9BF1D1E2487E9C10BF59C9321B5A","019cf05b-19d5-7a7b-a2a1-f979578b2605","019ceff9-9f67-7034-9722-02cda2445e09","","null","
                <div class=""stimulus-container"">
                    <img src=""images/causal_sequence/dog_causal/dog_causal_7.png"" class=""exp-image"">
                    <div class=""question-area""></div> 
                </div>","null","","","","","","","","",""
"","","","","","html-button-response","72","307896","0.0-72.0","CE2E9BF1D1E2487E9C10BF59C9321B5A","019cf05b-19d5-7a7b-a2a1-f979578b2605","019ceff9-9f67-7034-9722-02cda2445e09","","563","
                <div class=""stimulus-container"">
                    <img src=""images/causal_sequence/dog_causal/dog_causal_7.png"" class=""exp-image"">
                    <div class=""question-area"">
                        <p style=""font-size: 20px; font-weight: bold; margin: 0;"">Is there a person in this image?</p>
                    </div>
                </div>","0","main_experiment_trial","7","dog_causal","causal_sequence","","","","",""
"","","","","","html-keyboard-response","73","312899","0.0-73.0","CE2E9BF1D1E2487E9C10BF59C9321B5A","019cf05b-19d5-7a7b-a2a1-f979578b2605","019ceff9-9f67-7034-9722-02cda2445e09","","null","
                <div class=""stimulus-container"">
                    <img src=""images/causal_sequence/dog_causal/dog_causal_8.png"" class=""exp-image"">
                    <div class=""question-area""></div> 
                </div>","null","","","","","","","","",""
"","","","","","html-button-response","74","313429","0.0-74.0","CE2E9BF1D1E2487E9C10BF59C9321B5A","019cf05b-19d5-7a7b-a2a1-f979578b2605","019ceff9-9f67-7034-9722-02cda2445e09","","529","
                <div class=""stimulus-container"">
                    <img src=""images/causal_sequence/dog_causal/dog_causal_8.png"" class=""exp-image"">
                    <div class=""question-area"">
                        <p style=""font-size: 20px; font-weight: bold; margin: 0;"">Is there a person in this image?</p>
                    </div>
                </div>","0","main_experiment_trial","8","dog_causal","causal_sequence","","","","",""
"","","","","","html-keyboard-response","75","318431","0.0-75.0","CE2E9BF1D1E2487E9C10BF59C9321B5A","019cf05b-19d5-7a7b-a2a1-f979578b2605","019ceff9-9f67-7034-9722-02cda2445e09","","null","
                <div class=""stimulus-container"">
                    <img src=""images/causal_sequence/dog_causal/dog_causal_9.png"" class=""exp-image"">
                    <div class=""question-area""></div> 
                </div>","null","","","","","","","","",""
"","","","","","html-button-response","76","319463","0.0-76.0","CE2E9BF1D1E2487E9C10BF59C9321B5A","019cf05b-19d5-7a7b-a2a1-f979578b2605","019ceff9-9f67-7034-9722-02cda2445e09","","1031","
                <div class=""stimulus-container"">
                    <img src=""images/causal_sequence/dog_causal/dog_causal_9.png"" class=""exp-image"">
                    <div class=""question-area"">
                        <p style=""font-size: 20px; font-weight: bold; margin: 0;"">Is there a person in this image?</p>
                    </div>
                </div>","0","main_experiment_trial","9","dog_causal","causal_sequence","","","","",""
"","","","","","html-keyboard-response","77","324465","0.0-77.0","CE2E9BF1D1E2487E9C10BF59C9321B5A","019cf05b-19d5-7a7b-a2a1-f979578b2605","019ceff9-9f67-7034-9722-02cda2445e09","","null","
                <div class=""stimulus-container"">
                    <img src=""images/causal_sequence/dog_causal/dog_causal_ten.png"" class=""exp-image"">
                    <div class=""question-area""></div> 
                </div>","null","","","","","","","","",""
"","","","","","html-button-response","78","325196","0.0-78.0","CE2E9BF1D1E2487E9C10BF59C9321B5A","019cf05b-19d5-7a7b-a2a1-f979578b2605","019ceff9-9f67-7034-9722-02cda2445e09","","730","
                <div class=""stimulus-container"">
                    <img src=""images/causal_sequence/dog_causal/dog_causal_ten.png"" class=""exp-image"">
                    <div class=""question-area"">
                        <p style=""font-size: 20px; font-weight: bold; margin: 0;"">Is there a person in this image?</p>
                    </div>
                </div>","0","main_experiment_trial","ten","dog_causal","causal_sequence","","","","",""
"","","","","","html-keyboard-response","79","326199","0.0-79.0","CE2E9BF1D1E2487E9C10BF59C9321B5A","019cf05b-19d5-7a7b-a2a1-f979578b2605","019ceff9-9f67-7034-9722-02cda2445e09","","null","<div style=""background-color: white; width: 100vw; height: 100vh;""></div>","null","","","","","","","","",""
"","","","","","html-keyboard-response","80","331200","0.0-80.0","CE2E9BF1D1E2487E9C10BF59C9321B5A","019cf05b-19d5-7a7b-a2a1-f979578b2605","019ceff9-9f67-7034-9722-02cda2445e09","","null","
                <div class=""stimulus-container"">
                    <img src=""images/schematic_sequence/restaurant_scheme/restaurant_scheme_1.png"" class=""exp-image"">
                    <div class=""question-area""></div> 
                </div>","null","","","","","","","","",""
"","","","","","html-button-response","81","332213","0.0-81.0","CE2E9BF1D1E2487E9C10BF59C9321B5A","019cf05b-19d5-7a7b-a2a1-f979578b2605","019ceff9-9f67-7034-9722-02cda2445e09","","1012","
                <div class=""stimulus-container"">
                    <img src=""images/schematic_sequence/restaurant_scheme/restaurant_scheme_1.png"" class=""exp-image"">
                    <div class=""question-area"">
                        <p style=""font-size: 20px; font-weight: bold; margin: 0;"">Is there a person in this image?</p>
                    </div>
                </div>","0","main_experiment_trial","1","restaurant_scheme","schematic_sequence","","","","",""
"","","","","","html-keyboard-response","82","337215","0.0-82.0","CE2E9BF1D1E2487E9C10BF59C9321B5A","019cf05b-19d5-7a7b-a2a1-f979578b2605","019ceff9-9f67-7034-9722-02cda2445e09","","null","
                <div class=""stimulus-container"">
                    <img src=""images/schematic_sequence/restaurant_scheme/restaurant_scheme_2.png"" class=""exp-image"">
                    <div class=""question-area""></div> 
                </div>","null","","","","","","","","",""
"","","","","","html-button-response","83","339211","0.0-83.0","CE2E9BF1D1E2487E9C10BF59C9321B5A","019cf05b-19d5-7a7b-a2a1-f979578b2605","019ceff9-9f67-7034-9722-02cda2445e09","","1995","
                <div class=""stimulus-container"">
                    <img src=""images/schematic_sequence/restaurant_scheme/restaurant_scheme_2.png"" class=""exp-image"">
                    <div class=""question-area"">
                        <p style=""font-size: 20px; font-weight: bold; margin: 0;"">Is there a person in this image?</p>
                    </div>
                </div>","1","main_experiment_trial","2","restaurant_scheme","schematic_sequence","","","","",""
"","","","","","html-keyboard-response","84","344213","0.0-84.0","CE2E9BF1D1E2487E9C10BF59C9321B5A","019cf05b-19d5-7a7b-a2a1-f979578b2605","019ceff9-9f67-7034-9722-02cda2445e09","","null","
                <div class=""stimulus-container"">
                    <img src=""images/schematic_sequence/restaurant_scheme/restaurant_scheme_3.png"" class=""exp-image"">
                    <div class=""question-area""></div> 
                </div>","null","","","","","","","","",""
"","","","","","html-button-response","85","345046","0.0-85.0","CE2E9BF1D1E2487E9C10BF59C9321B5A","019cf05b-19d5-7a7b-a2a1-f979578b2605","019ceff9-9f67-7034-9722-02cda2445e09","","832","
                <div class=""stimulus-container"">
                    <img src=""images/schematic_sequence/restaurant_scheme/restaurant_scheme_3.png"" class=""exp-image"">
                    <div class=""question-area"">
                        <p style=""font-size: 20px; font-weight: bold; margin: 0;"">Is there a person in this image?</p>
                    </div>
                </div>","1","main_experiment_trial","3","restaurant_scheme","schematic_sequence","","","","",""
"","","","","","html-keyboard-response","86","350048","0.0-86.0","CE2E9BF1D1E2487E9C10BF59C9321B5A","019cf05b-19d5-7a7b-a2a1-f979578b2605","019ceff9-9f67-7034-9722-02cda2445e09","","null","
                <div class=""stimulus-container"">
                    <img src=""images/schematic_sequence/restaurant_scheme/restaurant_scheme_4.png"" class=""exp-image"">
                    <div class=""question-area""></div> 
                </div>","null","","","","","","","","",""
"","","","","","html-button-response","87","350829","0.0-87.0","CE2E9BF1D1E2487E9C10BF59C9321B5A","019cf05b-19d5-7a7b-a2a1-f979578b2605","019ceff9-9f67-7034-9722-02cda2445e09","","780","
                <div class=""stimulus-container"">
                    <img src=""images/schematic_sequence/restaurant_scheme/restaurant_scheme_4.png"" class=""exp-image"">
                    <div class=""question-area"">
                        <p style=""font-size: 20px; font-weight: bold; margin: 0;"">Is there a person in this image?</p>
                    </div>
                </div>","0","main_experiment_trial","4","restaurant_scheme","schematic_sequence","","","","",""
"","","","","","html-keyboard-response","88","355831","0.0-88.0","CE2E9BF1D1E2487E9C10BF59C9321B5A","019cf05b-19d5-7a7b-a2a1-f979578b2605","019ceff9-9f67-7034-9722-02cda2445e09","","null","
                <div class=""stimulus-container"">
                    <img src=""images/schematic_sequence/restaurant_scheme/restaurant_scheme_5.png"" class=""exp-image"">
                    <div class=""question-area""></div> 
                </div>","null","","","","","","","","",""
"","","","","","html-button-response","89","356829","0.0-89.0","CE2E9BF1D1E2487E9C10BF59C9321B5A","019cf05b-19d5-7a7b-a2a1-f979578b2605","019ceff9-9f67-7034-9722-02cda2445e09","","997","
                <div class=""stimulus-container"">
                    <img src=""images/schematic_sequence/restaurant_scheme/restaurant_scheme_5.png"" class=""exp-image"">
                    <div class=""question-area"">
                        <p style=""font-size: 20px; font-weight: bold; margin: 0;"">Is there a person in this image?</p>
                    </div>
                </div>","0","main_experiment_trial","5","restaurant_scheme","schematic_sequence","","","","",""
"","","","","","html-keyboard-response","90","361831","0.0-90.0","CE2E9BF1D1E2487E9C10BF59C9321B5A","019cf05b-19d5-7a7b-a2a1-f979578b2605","019ceff9-9f67-7034-9722-02cda2445e09","","null","
                <div class=""stimulus-container"">
                    <img src=""images/schematic_sequence/restaurant_scheme/restaurant_scheme_6.png"" class=""exp-image"">
                    <div class=""question-area""></div> 
                </div>","null","","","","","","","","",""
"","","","","","html-button-response","91","362744","0.0-91.0","CE2E9BF1D1E2487E9C10BF59C9321B5A","019cf05b-19d5-7a7b-a2a1-f979578b2605","019ceff9-9f67-7034-9722-02cda2445e09","","912","
                <div class=""stimulus-container"">
                    <img src=""images/schematic_sequence/restaurant_scheme/restaurant_scheme_6.png"" class=""exp-image"">
                    <div class=""question-area"">
                        <p style=""font-size: 20px; font-weight: bold; margin: 0;"">Is there a person in this image?</p>
                    </div>
                </div>","1","main_experiment_trial","6","restaurant_scheme","schematic_sequence","","","","",""
"","","","","","html-keyboard-response","92","367747","0.0-92.0","CE2E9BF1D1E2487E9C10BF59C9321B5A","019cf05b-19d5-7a7b-a2a1-f979578b2605","019ceff9-9f67-7034-9722-02cda2445e09","","null","
                <div class=""stimulus-container"">
                    <img src=""images/schematic_sequence/restaurant_scheme/restaurant_scheme_7.png"" class=""exp-image"">
                    <div class=""question-area""></div> 
                </div>","null","","","","","","","","",""
"","","","","","html-button-response","93","368429","0.0-93.0","CE2E9BF1D1E2487E9C10BF59C9321B5A","019cf05b-19d5-7a7b-a2a1-f979578b2605","019ceff9-9f67-7034-9722-02cda2445e09","","681","
                <div class=""stimulus-container"">
                    <img src=""images/schematic_sequence/restaurant_scheme/restaurant_scheme_7.png"" class=""exp-image"">
                    <div class=""question-area"">
                        <p style=""font-size: 20px; font-weight: bold; margin: 0;"">Is there a person in this image?</p>
                    </div>
                </div>","1","main_experiment_trial","7","restaurant_scheme","schematic_sequence","","","","",""
"","","","","","html-keyboard-response","94","373431","0.0-94.0","CE2E9BF1D1E2487E9C10BF59C9321B5A","019cf05b-19d5-7a7b-a2a1-f979578b2605","019ceff9-9f67-7034-9722-02cda2445e09","","null","
                <div class=""stimulus-container"">
                    <img src=""images/schematic_sequence/restaurant_scheme/restaurant_scheme_8.png"" class=""exp-image"">
                    <div class=""question-area""></div> 
                </div>","null","","","","","","","","",""
"","","","","","html-button-response","95","374946","0.0-95.0","CE2E9BF1D1E2487E9C10BF59C9321B5A","019cf05b-19d5-7a7b-a2a1-f979578b2605","019ceff9-9f67-7034-9722-02cda2445e09","","1513","
                <div class=""stimulus-container"">
                    <img src=""images/schematic_sequence/restaurant_scheme/restaurant_scheme_8.png"" class=""exp-image"">
                    <div class=""question-area"">
                        <p style=""font-size: 20px; font-weight: bold; margin: 0;"">Is there a person in this image?</p>
                    </div>
                </div>","0","main_experiment_trial","8","restaurant_scheme","schematic_sequence","","","","",""
"","","","","","html-keyboard-response","96","379947","0.0-96.0","CE2E9BF1D1E2487E9C10BF59C9321B5A","019cf05b-19d5-7a7b-a2a1-f979578b2605","019ceff9-9f67-7034-9722-02cda2445e09","","null","
                <div class=""stimulus-container"">
                    <img src=""images/schematic_sequence/restaurant_scheme/restaurant_scheme_9.png"" class=""exp-image"">
                    <div class=""question-area""></div> 
                </div>","null","","","","","","","","",""
"","","","","","html-button-response","97","381345","0.0-97.0","CE2E9BF1D1E2487E9C10BF59C9321B5A","019cf05b-19d5-7a7b-a2a1-f979578b2605","019ceff9-9f67-7034-9722-02cda2445e09","","1396","
                <div class=""stimulus-container"">
                    <img src=""images/schematic_sequence/restaurant_scheme/restaurant_scheme_9.png"" class=""exp-image"">
                    <div class=""question-area"">
                        <p style=""font-size: 20px; font-weight: bold; margin: 0;"">Is there a person in this image?</p>
                    </div>
                </div>","0","main_experiment_trial","9","restaurant_scheme","schematic_sequence","","","","",""
"","","","","","html-keyboard-response","98","386347","0.0-98.0","CE2E9BF1D1E2487E9C10BF59C9321B5A","019cf05b-19d5-7a7b-a2a1-f979578b2605","019ceff9-9f67-7034-9722-02cda2445e09","","null","
                <div class=""stimulus-container"">
                    <img src=""images/schematic_sequence/restaurant_scheme/restaurant_scheme_ten.png"" class=""exp-image"">
                    <div class=""question-area""></div> 
                </div>","null","","","","","","","","",""
"","","","","","html-button-response","99","386879","0.0-99.0","CE2E9BF1D1E2487E9C10BF59C9321B5A","019cf05b-19d5-7a7b-a2a1-f979578b2605","019ceff9-9f67-7034-9722-02cda2445e09","","530","
                <div class=""stimulus-container"">
                    <img src=""images/schematic_sequence/restaurant_scheme/restaurant_scheme_ten.png"" class=""exp-image"">
                    <div class=""question-area"">
                        <p style=""font-size: 20px; font-weight: bold; margin: 0;"">Is there a person in this image?</p>
                    </div>
                </div>","0","main_experiment_trial","ten","restaurant_scheme","schematic_sequence","","","","",""
"","","","","","html-keyboard-response","100","387881","0.0-100.0","CE2E9BF1D1E2487E9C10BF59C9321B5A","019cf05b-19d5-7a7b-a2a1-f979578b2605","019ceff9-9f67-7034-9722-02cda2445e09","","null","<div style=""background-color: white; width: 100vw; height: 100vh;""></div>","null","","","","","","","","",""
"","","","","","html-keyboard-response","101","392884","0.0-101.0","CE2E9BF1D1E2487E9C10BF59C9321B5A","019cf05b-19d5-7a7b-a2a1-f979578b2605","019ceff9-9f67-7034-9722-02cda2445e09","","null","
                <div class=""stimulus-container"">
                    <img src=""images/schematic_sequence/supermarket_scheme/supermarket_scheme_1.png"" class=""exp-image"">
                    <div class=""question-area""></div> 
                </div>","null","","","","","","","","",""
"","","","","","html-button-response","102","393813","0.0-102.0","CE2E9BF1D1E2487E9C10BF59C9321B5A","019cf05b-19d5-7a7b-a2a1-f979578b2605","019ceff9-9f67-7034-9722-02cda2445e09","","928","
                <div class=""stimulus-container"">
                    <img src=""images/schematic_sequence/supermarket_scheme/supermarket_scheme_1.png"" class=""exp-image"">
                    <div class=""question-area"">
                        <p style=""font-size: 20px; font-weight: bold; margin: 0;"">Is there a person in this image?</p>
                    </div>
                </div>","1","main_experiment_trial","1","supermarket_scheme","schematic_sequence","","","","",""
"","","","","","html-keyboard-response","103","398815","0.0-103.0","CE2E9BF1D1E2487E9C10BF59C9321B5A","019cf05b-19d5-7a7b-a2a1-f979578b2605","019ceff9-9f67-7034-9722-02cda2445e09","","null","
                <div class=""stimulus-container"">
                    <img src=""images/schematic_sequence/supermarket_scheme/supermarket_scheme_2.png"" class=""exp-image"">
                    <div class=""question-area""></div> 
                </div>","null","","","","","","","","",""
"","","","","","html-button-response","104","399445","0.0-104.0","CE2E9BF1D1E2487E9C10BF59C9321B5A","019cf05b-19d5-7a7b-a2a1-f979578b2605","019ceff9-9f67-7034-9722-02cda2445e09","","628","
                <div class=""stimulus-container"">
                    <img src=""images/schematic_sequence/supermarket_scheme/supermarket_scheme_2.png"" class=""exp-image"">
                    <div class=""question-area"">
                        <p style=""font-size: 20px; font-weight: bold; margin: 0;"">Is there a person in this image?</p>
                    </div>
                </div>","1","main_experiment_trial","2","supermarket_scheme","schematic_sequence","","","","",""
"","","","","","html-keyboard-response","105","404447","0.0-105.0","CE2E9BF1D1E2487E9C10BF59C9321B5A","019cf05b-19d5-7a7b-a2a1-f979578b2605","019ceff9-9f67-7034-9722-02cda2445e09","","null","
                <div class=""stimulus-container"">
                    <img src=""images/schematic_sequence/supermarket_scheme/supermarket_scheme_3.png"" class=""exp-image"">
                    <div class=""question-area""></div> 
                </div>","null","","","","","","","","",""
"","","","","","html-button-response","106","405912","0.0-106.0","CE2E9BF1D1E2487E9C10BF59C9321B5A","019cf05b-19d5-7a7b-a2a1-f979578b2605","019ceff9-9f67-7034-9722-02cda2445e09","","1463","
                <div class=""stimulus-container"">
                    <img src=""images/schematic_sequence/supermarket_scheme/supermarket_scheme_3.png"" class=""exp-image"">
                    <div class=""question-area"">
                        <p style=""font-size: 20px; font-weight: bold; margin: 0;"">Is there a person in this image?</p>
                    </div>
                </div>","1","main_experiment_trial","3","supermarket_scheme","schematic_sequence","","","","",""
"","","","","","html-keyboard-response","107","410914","0.0-107.0","CE2E9BF1D1E2487E9C10BF59C9321B5A","019cf05b-19d5-7a7b-a2a1-f979578b2605","019ceff9-9f67-7034-9722-02cda2445e09","","null","
                <div class=""stimulus-container"">
                    <img src=""images/schematic_sequence/supermarket_scheme/supermarket_scheme_4.png"" class=""exp-image"">
                    <div class=""question-area""></div> 
                </div>","null","","","","","","","","",""
"","","","","","html-button-response","108","411478","0.0-108.0","CE2E9BF1D1E2487E9C10BF59C9321B5A","019cf05b-19d5-7a7b-a2a1-f979578b2605","019ceff9-9f67-7034-9722-02cda2445e09","","563","
                <div class=""stimulus-container"">
                    <img src=""images/schematic_sequence/supermarket_scheme/supermarket_scheme_4.png"" class=""exp-image"">
                    <div class=""question-area"">
                        <p style=""font-size: 20px; font-weight: bold; margin: 0;"">Is there a person in this image?</p>
                    </div>
                </div>","0","main_experiment_trial","4","supermarket_scheme","schematic_sequence","","","","",""
"","","","","","html-keyboard-response","109","416481","0.0-109.0","CE2E9BF1D1E2487E9C10BF59C9321B5A","019cf05b-19d5-7a7b-a2a1-f979578b2605","019ceff9-9f67-7034-9722-02cda2445e09","","null","
                <div class=""stimulus-container"">
                    <img src=""images/schematic_sequence/supermarket_scheme/supermarket_scheme_5.png"" class=""exp-image"">
                    <div class=""question-area""></div> 
                </div>","null","","","","","","","","",""
"","","","","","html-button-response","110","418829","0.0-110.0","CE2E9BF1D1E2487E9C10BF59C9321B5A","019cf05b-19d5-7a7b-a2a1-f979578b2605","019ceff9-9f67-7034-9722-02cda2445e09","","2347","
                <div class=""stimulus-container"">
                    <img src=""images/schematic_sequence/supermarket_scheme/supermarket_scheme_5.png"" class=""exp-image"">
                    <div class=""question-area"">
                        <p style=""font-size: 20px; font-weight: bold; margin: 0;"">Is there a person in this image?</p>
                    </div>
                </div>","1","main_experiment_trial","5","supermarket_scheme","schematic_sequence","","","","",""
"","","","","","html-keyboard-response","111","423831","0.0-111.0","CE2E9BF1D1E2487E9C10BF59C9321B5A","019cf05b-19d5-7a7b-a2a1-f979578b2605","019ceff9-9f67-7034-9722-02cda2445e09","","null","
                <div class=""stimulus-container"">
                    <img src=""images/schematic_sequence/supermarket_scheme/supermarket_scheme_6.png"" class=""exp-image"">
                    <div class=""question-area""></div> 
                </div>","null","","","","","","","","",""
"","","","","","html-button-response","112","424578","0.0-112.0","CE2E9BF1D1E2487E9C10BF59C9321B5A","019cf05b-19d5-7a7b-a2a1-f979578b2605","019ceff9-9f67-7034-9722-02cda2445e09","","746","
                <div class=""stimulus-container"">
                    <img src=""images/schematic_sequence/supermarket_scheme/supermarket_scheme_6.png"" class=""exp-image"">
                    <div class=""question-area"">
                        <p style=""font-size: 20px; font-weight: bold; margin: 0;"">Is there a person in this image?</p>
                    </div>
                </div>","0","main_experiment_trial","6","supermarket_scheme","schematic_sequence","","","","",""
"","","","","","html-keyboard-response","113","429580","0.0-113.0","CE2E9BF1D1E2487E9C10BF59C9321B5A","019cf05b-19d5-7a7b-a2a1-f979578b2605","019ceff9-9f67-7034-9722-02cda2445e09","","null","
                <div class=""stimulus-container"">
                    <img src=""images/schematic_sequence/supermarket_scheme/supermarket_scheme_7.png"" class=""exp-image"">
                    <div class=""question-area""></div> 
                </div>","null","","","","","","","","",""
"","","","","","html-button-response","114","430345","0.0-114.0","CE2E9BF1D1E2487E9C10BF59C9321B5A","019cf05b-19d5-7a7b-a2a1-f979578b2605","019ceff9-9f67-7034-9722-02cda2445e09","","764","
                <div class=""stimulus-container"">
                    <img src=""images/schematic_sequence/supermarket_scheme/supermarket_scheme_7.png"" class=""exp-image"">
                    <div class=""question-area"">
                        <p style=""font-size: 20px; font-weight: bold; margin: 0;"">Is there a person in this image?</p>
                    </div>
                </div>","0","main_experiment_trial","7","supermarket_scheme","schematic_sequence","","","","",""
"","","","","","html-keyboard-response","115","435347","0.0-115.0","CE2E9BF1D1E2487E9C10BF59C9321B5A","019cf05b-19d5-7a7b-a2a1-f979578b2605","019ceff9-9f67-7034-9722-02cda2445e09","","null","
                <div class=""stimulus-container"">
                    <img src=""images/schematic_sequence/supermarket_scheme/supermarket_scheme_8.png"" class=""exp-image"">
                    <div class=""question-area""></div> 
                </div>","null","","","","","","","","",""
"","","","","","html-button-response","116","435844","0.0-116.0","CE2E9BF1D1E2487E9C10BF59C9321B5A","019cf05b-19d5-7a7b-a2a1-f979578b2605","019ceff9-9f67-7034-9722-02cda2445e09","","496","
                <div class=""stimulus-container"">
                    <img src=""images/schematic_sequence/supermarket_scheme/supermarket_scheme_8.png"" class=""exp-image"">
                    <div class=""question-area"">
                        <p style=""font-size: 20px; font-weight: bold; margin: 0;"">Is there a person in this image?</p>
                    </div>
                </div>","0","main_experiment_trial","8","supermarket_scheme","schematic_sequence","","","","",""
"","","","","","html-keyboard-response","117","440847","0.0-117.0","CE2E9BF1D1E2487E9C10BF59C9321B5A","019cf05b-19d5-7a7b-a2a1-f979578b2605","019ceff9-9f67-7034-9722-02cda2445e09","","null","
                <div class=""stimulus-container"">
                    <img src=""images/schematic_sequence/supermarket_scheme/supermarket_scheme_9.png"" class=""exp-image"">
                    <div class=""question-area""></div> 
                </div>","null","","","","","","","","",""
"","","","","","html-button-response","118","441311","0.0-118.0","CE2E9BF1D1E2487E9C10BF59C9321B5A","019cf05b-19d5-7a7b-a2a1-f979578b2605","019ceff9-9f67-7034-9722-02cda2445e09","","463","
                <div class=""stimulus-container"">
                    <img src=""images/schematic_sequence/supermarket_scheme/supermarket_scheme_9.png"" class=""exp-image"">
                    <div class=""question-area"">
                        <p style=""font-size: 20px; font-weight: bold; margin: 0;"">Is there a person in this image?</p>
                    </div>
                </div>","0","main_experiment_trial","9","supermarket_scheme","schematic_sequence","","","","",""
"","","","","","html-keyboard-response","119","446313","0.0-119.0","CE2E9BF1D1E2487E9C10BF59C9321B5A","019cf05b-19d5-7a7b-a2a1-f979578b2605","019ceff9-9f67-7034-9722-02cda2445e09","","null","
                <div class=""stimulus-container"">
                    <img src=""images/schematic_sequence/supermarket_scheme/supermarket_scheme_ten.png"" class=""exp-image"">
                    <div class=""question-area""></div> 
                </div>","null","","","","","","","","",""
"","","","","","html-button-response","120","447144","0.0-120.0","CE2E9BF1D1E2487E9C10BF59C9321B5A","019cf05b-19d5-7a7b-a2a1-f979578b2605","019ceff9-9f67-7034-9722-02cda2445e09","","831","
                <div class=""stimulus-container"">
                    <img src=""images/schematic_sequence/supermarket_scheme/supermarket_scheme_ten.png"" class=""exp-image"">
                    <div class=""question-area"">
                        <p style=""font-size: 20px; font-weight: bold; margin: 0;"">Is there a person in this image?</p>
                    </div>
                </div>","1","main_experiment_trial","ten","supermarket_scheme","schematic_sequence","","","","",""
"","","","","","html-keyboard-response","121","448145","0.0-121.0","CE2E9BF1D1E2487E9C10BF59C9321B5A","019cf05b-19d5-7a7b-a2a1-f979578b2605","019ceff9-9f67-7034-9722-02cda2445e09","","null","<div style=""background-color: white; width: 100vw; height: 100vh;""></div>","null","","","","","","","","",""
"","","","","","html-keyboard-response","122","453147","0.0-122.0","CE2E9BF1D1E2487E9C10BF59C9321B5A","019cf05b-19d5-7a7b-a2a1-f979578b2605","019ceff9-9f67-7034-9722-02cda2445e09","","null","
                <div class=""stimulus-container"">
                    <img src=""images/schematic_sequence/interview_scheme/interview_scheme_1.png"" class=""exp-image"">
                    <div class=""question-area""></div> 
                </div>","null","","","","","","","","",""
"","","","","","html-button-response","123","454411","0.0-123.0","CE2E9BF1D1E2487E9C10BF59C9321B5A","019cf05b-19d5-7a7b-a2a1-f979578b2605","019ceff9-9f67-7034-9722-02cda2445e09","","1263","
                <div class=""stimulus-container"">
                    <img src=""images/schematic_sequence/interview_scheme/interview_scheme_1.png"" class=""exp-image"">
                    <div class=""question-area"">
                        <p style=""font-size: 20px; font-weight: bold; margin: 0;"">Is there a person in this image?</p>
                    </div>
                </div>","1","main_experiment_trial","1","interview_scheme","schematic_sequence","","","","",""
"","","","","","html-keyboard-response","124","459413","0.0-124.0","CE2E9BF1D1E2487E9C10BF59C9321B5A","019cf05b-19d5-7a7b-a2a1-f979578b2605","019ceff9-9f67-7034-9722-02cda2445e09","","null","
                <div class=""stimulus-container"">
                    <img src=""images/schematic_sequence/interview_scheme/interview_scheme_2.png"" class=""exp-image"">
                    <div class=""question-area""></div> 
                </div>","null","","","","","","","","",""
"","","","","","html-button-response","125","460777","0.0-125.0","CE2E9BF1D1E2487E9C10BF59C9321B5A","019cf05b-19d5-7a7b-a2a1-f979578b2605","019ceff9-9f67-7034-9722-02cda2445e09","","1364","
                <div class=""stimulus-container"">
                    <img src=""images/schematic_sequence/interview_scheme/interview_scheme_2.png"" class=""exp-image"">
                    <div class=""question-area"">
                        <p style=""font-size: 20px; font-weight: bold; margin: 0;"">Is there a person in this image?</p>
                    </div>
                </div>","0","main_experiment_trial","2","interview_scheme","schematic_sequence","","","","",""
"","","","","","html-keyboard-response","126","465779","0.0-126.0","CE2E9BF1D1E2487E9C10BF59C9321B5A","019cf05b-19d5-7a7b-a2a1-f979578b2605","019ceff9-9f67-7034-9722-02cda2445e09","","null","
                <div class=""stimulus-container"">
                    <img src=""images/schematic_sequence/interview_scheme/interview_scheme_3.png"" class=""exp-image"">
                    <div class=""question-area""></div> 
                </div>","null","","","","","","","","",""
"","","","","","html-button-response","127","466511","0.0-127.0","CE2E9BF1D1E2487E9C10BF59C9321B5A","019cf05b-19d5-7a7b-a2a1-f979578b2605","019ceff9-9f67-7034-9722-02cda2445e09","","730","
                <div class=""stimulus-container"">
                    <img src=""images/schematic_sequence/interview_scheme/interview_scheme_3.png"" class=""exp-image"">
                    <div class=""question-area"">
                        <p style=""font-size: 20px; font-weight: bold; margin: 0;"">Is there a person in this image?</p>
                    </div>
                </div>","1","main_experiment_trial","3","interview_scheme","schematic_sequence","","","","",""
"","","","","","html-keyboard-response","128","471513","0.0-128.0","CE2E9BF1D1E2487E9C10BF59C9321B5A","019cf05b-19d5-7a7b-a2a1-f979578b2605","019ceff9-9f67-7034-9722-02cda2445e09","","null","
                <div class=""stimulus-container"">
                    <img src=""images/schematic_sequence/interview_scheme/interview_scheme_4.png"" class=""exp-image"">
                    <div class=""question-area""></div> 
                </div>","null","","","","","","","","",""
"","","","","","html-button-response","129","472360","0.0-129.0","CE2E9BF1D1E2487E9C10BF59C9321B5A","019cf05b-19d5-7a7b-a2a1-f979578b2605","019ceff9-9f67-7034-9722-02cda2445e09","","846","
                <div class=""stimulus-container"">
                    <img src=""images/schematic_sequence/interview_scheme/interview_scheme_4.png"" class=""exp-image"">
                    <div class=""question-area"">
                        <p style=""font-size: 20px; font-weight: bold; margin: 0;"">Is there a person in this image?</p>
                    </div>
                </div>","1","main_experiment_trial","4","interview_scheme","schematic_sequence","","","","",""
"","","","","","html-keyboard-response","130","477362","0.0-130.0","CE2E9BF1D1E2487E9C10BF59C9321B5A","019cf05b-19d5-7a7b-a2a1-f979578b2605","019ceff9-9f67-7034-9722-02cda2445e09","","null","
                <div class=""stimulus-container"">
                    <img src=""images/schematic_sequence/interview_scheme/interview_scheme_5.png"" class=""exp-image"">
                    <div class=""question-area""></div> 
                </div>","null","","","","","","","","",""
"","","","","","html-button-response","131","478811","0.0-131.0","CE2E9BF1D1E2487E9C10BF59C9321B5A","019cf05b-19d5-7a7b-a2a1-f979578b2605","019ceff9-9f67-7034-9722-02cda2445e09","","1448","
                <div class=""stimulus-container"">
                    <img src=""images/schematic_sequence/interview_scheme/interview_scheme_5.png"" class=""exp-image"">
                    <div class=""question-area"">
                        <p style=""font-size: 20px; font-weight: bold; margin: 0;"">Is there a person in this image?</p>
                    </div>
                </div>","0","main_experiment_trial","5","interview_scheme","schematic_sequence","","","","",""
"","","","","","html-keyboard-response","132","483814","0.0-132.0","CE2E9BF1D1E2487E9C10BF59C9321B5A","019cf05b-19d5-7a7b-a2a1-f979578b2605","019ceff9-9f67-7034-9722-02cda2445e09","","null","
                <div class=""stimulus-container"">
                    <img src=""images/schematic_sequence/interview_scheme/interview_scheme_6.png"" class=""exp-image"">
                    <div class=""question-area""></div> 
                </div>","null","","","","","","","","",""
"","","","","","html-button-response","133","484296","0.0-133.0","CE2E9BF1D1E2487E9C10BF59C9321B5A","019cf05b-19d5-7a7b-a2a1-f979578b2605","019ceff9-9f67-7034-9722-02cda2445e09","","481","
                <div class=""stimulus-container"">
                    <img src=""images/schematic_sequence/interview_scheme/interview_scheme_6.png"" class=""exp-image"">
                    <div class=""question-area"">
                        <p style=""font-size: 20px; font-weight: bold; margin: 0;"">Is there a person in this image?</p>
                    </div>
                </div>","0","main_experiment_trial","6","interview_scheme","schematic_sequence","","","","",""
"","","","","","html-keyboard-response","134","489299","0.0-134.0","CE2E9BF1D1E2487E9C10BF59C9321B5A","019cf05b-19d5-7a7b-a2a1-f979578b2605","019ceff9-9f67-7034-9722-02cda2445e09","","null","
                <div class=""stimulus-container"">
                    <img src=""images/schematic_sequence/interview_scheme/interview_scheme_7.png"" class=""exp-image"">
                    <div class=""question-area""></div> 
                </div>","null","","","","","","","","",""
"","","","","","html-button-response","135","489810","0.0-135.0","CE2E9BF1D1E2487E9C10BF59C9321B5A","019cf05b-19d5-7a7b-a2a1-f979578b2605","019ceff9-9f67-7034-9722-02cda2445e09","","510","
                <div class=""stimulus-container"">
                    <img src=""images/schematic_sequence/interview_scheme/interview_scheme_7.png"" class=""exp-image"">
                    <div class=""question-area"">
                        <p style=""font-size: 20px; font-weight: bold; margin: 0;"">Is there a person in this image?</p>
                    </div>
                </div>","0","main_experiment_trial","7","interview_scheme","schematic_sequence","","","","",""
"","","","","","html-keyboard-response","136","494812","0.0-136.0","CE2E9BF1D1E2487E9C10BF59C9321B5A","019cf05b-19d5-7a7b-a2a1-f979578b2605","019ceff9-9f67-7034-9722-02cda2445e09","","null","
                <div class=""stimulus-container"">
                    <img src=""images/schematic_sequence/interview_scheme/interview_scheme_8.png"" class=""exp-image"">
                    <div class=""question-area""></div> 
                </div>","null","","","","","","","","",""
"","","","","","html-button-response","137","495344","0.0-137.0","CE2E9BF1D1E2487E9C10BF59C9321B5A","019cf05b-19d5-7a7b-a2a1-f979578b2605","019ceff9-9f67-7034-9722-02cda2445e09","","530","
                <div class=""stimulus-container"">
                    <img src=""images/schematic_sequence/interview_scheme/interview_scheme_8.png"" class=""exp-image"">
                    <div class=""question-area"">
                        <p style=""font-size: 20px; font-weight: bold; margin: 0;"">Is there a person in this image?</p>
                    </div>
                </div>","0","main_experiment_trial","8","interview_scheme","schematic_sequence","","","","",""
"","","","","","html-keyboard-response","138","500345","0.0-138.0","CE2E9BF1D1E2487E9C10BF59C9321B5A","019cf05b-19d5-7a7b-a2a1-f979578b2605","019ceff9-9f67-7034-9722-02cda2445e09","","null","
                <div class=""stimulus-container"">
                    <img src=""images/schematic_sequence/interview_scheme/interview_scheme_9.png"" class=""exp-image"">
                    <div class=""question-area""></div> 
                </div>","null","","","","","","","","",""
"","","","","","html-button-response","139","501094","0.0-139.0","CE2E9BF1D1E2487E9C10BF59C9321B5A","019cf05b-19d5-7a7b-a2a1-f979578b2605","019ceff9-9f67-7034-9722-02cda2445e09","","747","
                <div class=""stimulus-container"">
                    <img src=""images/schematic_sequence/interview_scheme/interview_scheme_9.png"" class=""exp-image"">
                    <div class=""question-area"">
                        <p style=""font-size: 20px; font-weight: bold; margin: 0;"">Is there a person in this image?</p>
                    </div>
                </div>","0","main_experiment_trial","9","interview_scheme","schematic_sequence","","","","",""
"","","","","","html-keyboard-response","140","506096","0.0-140.0","CE2E9BF1D1E2487E9C10BF59C9321B5A","019cf05b-19d5-7a7b-a2a1-f979578b2605","019ceff9-9f67-7034-9722-02cda2445e09","","null","
                <div class=""stimulus-container"">
                    <img src=""images/schematic_sequence/interview_scheme/interview_scheme_ten.png"" class=""exp-image"">
                    <div class=""question-area""></div> 
                </div>","null","","","","","","","","",""
"","","","","","html-button-response","141","506661","0.0-141.0","CE2E9BF1D1E2487E9C10BF59C9321B5A","019cf05b-19d5-7a7b-a2a1-f979578b2605","019ceff9-9f67-7034-9722-02cda2445e09","","563","
                <div class=""stimulus-container"">
                    <img src=""images/schematic_sequence/interview_scheme/interview_scheme_ten.png"" class=""exp-image"">
                    <div class=""question-area"">
                        <p style=""font-size: 20px; font-weight: bold; margin: 0;"">Is there a person in this image?</p>
                    </div>
                </div>","0","main_experiment_trial","ten","interview_scheme","schematic_sequence","","","","",""
"","","","","","html-keyboard-response","142","507663","0.0-142.0","CE2E9BF1D1E2487E9C10BF59C9321B5A","019cf05b-19d5-7a7b-a2a1-f979578b2605","019ceff9-9f67-7034-9722-02cda2445e09","","null","<div style=""background-color: white; width: 100vw; height: 100vh;""></div>","null","","","","","","","","",""
"","","","","","html-keyboard-response","143","512665","0.0-143.0","CE2E9BF1D1E2487E9C10BF59C9321B5A","019cf05b-19d5-7a7b-a2a1-f979578b2605","019ceff9-9f67-7034-9722-02cda2445e09","","null","
                <div class=""stimulus-container"">
                    <img src=""images/schematic_sequence/hotel_scheme/hotel_scheme_1.png"" class=""exp-image"">
                    <div class=""question-area""></div> 
                </div>","null","","","","","","","","",""
"","","","","","html-button-response","144","513494","0.0-144.0","CE2E9BF1D1E2487E9C10BF59C9321B5A","019cf05b-19d5-7a7b-a2a1-f979578b2605","019ceff9-9f67-7034-9722-02cda2445e09","","827","
                <div class=""stimulus-container"">
                    <img src=""images/schematic_sequence/hotel_scheme/hotel_scheme_1.png"" class=""exp-image"">
                    <div class=""question-area"">
                        <p style=""font-size: 20px; font-weight: bold; margin: 0;"">Is there a person in this image?</p>
                    </div>
                </div>","1","main_experiment_trial","1","hotel_scheme","schematic_sequence","","","","",""
"","","","","","html-keyboard-response","145","518496","0.0-145.0","CE2E9BF1D1E2487E9C10BF59C9321B5A","019cf05b-19d5-7a7b-a2a1-f979578b2605","019ceff9-9f67-7034-9722-02cda2445e09","","null","
                <div class=""stimulus-container"">
                    <img src=""images/schematic_sequence/hotel_scheme/hotel_scheme_2.png"" class=""exp-image"">
                    <div class=""question-area""></div> 
                </div>","null","","","","","","","","",""
"","","","","","html-button-response","146","520377","0.0-146.0","CE2E9BF1D1E2487E9C10BF59C9321B5A","019cf05b-19d5-7a7b-a2a1-f979578b2605","019ceff9-9f67-7034-9722-02cda2445e09","","1879","
                <div class=""stimulus-container"">
                    <img src=""images/schematic_sequence/hotel_scheme/hotel_scheme_2.png"" class=""exp-image"">
                    <div class=""question-area"">
                        <p style=""font-size: 20px; font-weight: bold; margin: 0;"">Is there a person in this image?</p>
                    </div>
                </div>","0","main_experiment_trial","2","hotel_scheme","schematic_sequence","","","","",""
"","","","","","html-keyboard-response","147","525379","0.0-147.0","CE2E9BF1D1E2487E9C10BF59C9321B5A","019cf05b-19d5-7a7b-a2a1-f979578b2605","019ceff9-9f67-7034-9722-02cda2445e09","","null","
                <div class=""stimulus-container"">
                    <img src=""images/schematic_sequence/hotel_scheme/hotel_scheme_3.png"" class=""exp-image"">
                    <div class=""question-area""></div> 
                </div>","null","","","","","","","","",""
"","","","","","html-button-response","148","526827","0.0-148.0","CE2E9BF1D1E2487E9C10BF59C9321B5A","019cf05b-19d5-7a7b-a2a1-f979578b2605","019ceff9-9f67-7034-9722-02cda2445e09","","1446","
                <div class=""stimulus-container"">
                    <img src=""images/schematic_sequence/hotel_scheme/hotel_scheme_3.png"" class=""exp-image"">
                    <div class=""question-area"">
                        <p style=""font-size: 20px; font-weight: bold; margin: 0;"">Is there a person in this image?</p>
                    </div>
                </div>","0","main_experiment_trial","3","hotel_scheme","schematic_sequence","","","","",""
"","","","","","html-keyboard-response","149","531829","0.0-149.0","CE2E9BF1D1E2487E9C10BF59C9321B5A","019cf05b-19d5-7a7b-a2a1-f979578b2605","019ceff9-9f67-7034-9722-02cda2445e09","","null","
                <div class=""stimulus-container"">
                    <img src=""images/schematic_sequence/hotel_scheme/hotel_scheme_4.png"" class=""exp-image"">
                    <div class=""question-area""></div> 
                </div>","null","","","","","","","","",""
"","","","","","html-button-response","150","532760","0.0-150.0","CE2E9BF1D1E2487E9C10BF59C9321B5A","019cf05b-19d5-7a7b-a2a1-f979578b2605","019ceff9-9f67-7034-9722-02cda2445e09","","930","
                <div class=""stimulus-container"">
                    <img src=""images/schematic_sequence/hotel_scheme/hotel_scheme_4.png"" class=""exp-image"">
                    <div class=""question-area"">
                        <p style=""font-size: 20px; font-weight: bold; margin: 0;"">Is there a person in this image?</p>
                    </div>
                </div>","1","main_experiment_trial","4","hotel_scheme","schematic_sequence","","","","",""
"","","","","","html-keyboard-response","151","537762","0.0-151.0","CE2E9BF1D1E2487E9C10BF59C9321B5A","019cf05b-19d5-7a7b-a2a1-f979578b2605","019ceff9-9f67-7034-9722-02cda2445e09","","null","
                <div class=""stimulus-container"">
                    <img src=""images/schematic_sequence/hotel_scheme/hotel_scheme_5.png"" class=""exp-image"">
                    <div class=""question-area""></div> 
                </div>","null","","","","","","","","",""
"","","","","","html-button-response","152","538826","0.0-152.0","CE2E9BF1D1E2487E9C10BF59C9321B5A","019cf05b-19d5-7a7b-a2a1-f979578b2605","019ceff9-9f67-7034-9722-02cda2445e09","","1063","
                <div class=""stimulus-container"">
                    <img src=""images/schematic_sequence/hotel_scheme/hotel_scheme_5.png"" class=""exp-image"">
                    <div class=""question-area"">
                        <p style=""font-size: 20px; font-weight: bold; margin: 0;"">Is there a person in this image?</p>
                    </div>
                </div>","0","main_experiment_trial","5","hotel_scheme","schematic_sequence","","","","",""
"","","","","","html-keyboard-response","153","543829","0.0-153.0","CE2E9BF1D1E2487E9C10BF59C9321B5A","019cf05b-19d5-7a7b-a2a1-f979578b2605","019ceff9-9f67-7034-9722-02cda2445e09","","null","
                <div class=""stimulus-container"">
                    <img src=""images/schematic_sequence/hotel_scheme/hotel_scheme_6.png"" class=""exp-image"">
                    <div class=""question-area""></div> 
                </div>","null","","","","","","","","",""
"","","","","","html-button-response","154","546276","0.0-154.0","CE2E9BF1D1E2487E9C10BF59C9321B5A","019cf05b-19d5-7a7b-a2a1-f979578b2605","019ceff9-9f67-7034-9722-02cda2445e09","","2446","
                <div class=""stimulus-container"">
                    <img src=""images/schematic_sequence/hotel_scheme/hotel_scheme_6.png"" class=""exp-image"">
                    <div class=""question-area"">
                        <p style=""font-size: 20px; font-weight: bold; margin: 0;"">Is there a person in this image?</p>
                    </div>
                </div>","0","main_experiment_trial","6","hotel_scheme","schematic_sequence","","","","",""
"","","","","","html-keyboard-response","155","551279","0.0-155.0","CE2E9BF1D1E2487E9C10BF59C9321B5A","019cf05b-19d5-7a7b-a2a1-f979578b2605","019ceff9-9f67-7034-9722-02cda2445e09","","null","
                <div class=""stimulus-container"">
                    <img src=""images/schematic_sequence/hotel_scheme/hotel_scheme_7.png"" class=""exp-image"">
                    <div class=""question-area""></div> 
                </div>","null","","","","","","","","",""
"","","","","","html-button-response","156","553059","0.0-156.0","CE2E9BF1D1E2487E9C10BF59C9321B5A","019cf05b-19d5-7a7b-a2a1-f979578b2605","019ceff9-9f67-7034-9722-02cda2445e09","","1780","
                <div class=""stimulus-container"">
                    <img src=""images/schematic_sequence/hotel_scheme/hotel_scheme_7.png"" class=""exp-image"">
                    <div class=""question-area"">
                        <p style=""font-size: 20px; font-weight: bold; margin: 0;"">Is there a person in this image?</p>
                    </div>
                </div>","0","main_experiment_trial","7","hotel_scheme","schematic_sequence","","","","",""
"","","","","","html-keyboard-response","157","558061","0.0-157.0","CE2E9BF1D1E2487E9C10BF59C9321B5A","019cf05b-19d5-7a7b-a2a1-f979578b2605","019ceff9-9f67-7034-9722-02cda2445e09","","null","
                <div class=""stimulus-container"">
                    <img src=""images/schematic_sequence/hotel_scheme/hotel_scheme_8.png"" class=""exp-image"">
                    <div class=""question-area""></div> 
                </div>","null","","","","","","","","",""
"","","","","","html-button-response","158","559642","0.0-158.0","CE2E9BF1D1E2487E9C10BF59C9321B5A","019cf05b-19d5-7a7b-a2a1-f979578b2605","019ceff9-9f67-7034-9722-02cda2445e09","","1579","
                <div class=""stimulus-container"">
                    <img src=""images/schematic_sequence/hotel_scheme/hotel_scheme_8.png"" class=""exp-image"">
                    <div class=""question-area"">
                        <p style=""font-size: 20px; font-weight: bold; margin: 0;"">Is there a person in this image?</p>
                    </div>
                </div>","0","main_experiment_trial","8","hotel_scheme","schematic_sequence","","","","",""
"","","","","","html-keyboard-response","159","564644","0.0-159.0","CE2E9BF1D1E2487E9C10BF59C9321B5A","019cf05b-19d5-7a7b-a2a1-f979578b2605","019ceff9-9f67-7034-9722-02cda2445e09","","null","
                <div class=""stimulus-container"">
                    <img src=""images/schematic_sequence/hotel_scheme/hotel_scheme_9.png"" class=""exp-image"">
                    <div class=""question-area""></div> 
                </div>","null","","","","","","","","",""
"","","","","","html-button-response","160","565943","0.0-160.0","CE2E9BF1D1E2487E9C10BF59C9321B5A","019cf05b-19d5-7a7b-a2a1-f979578b2605","019ceff9-9f67-7034-9722-02cda2445e09","","1298","
                <div class=""stimulus-container"">
                    <img src=""images/schematic_sequence/hotel_scheme/hotel_scheme_9.png"" class=""exp-image"">
                    <div class=""question-area"">
                        <p style=""font-size: 20px; font-weight: bold; margin: 0;"">Is there a person in this image?</p>
                    </div>
                </div>","0","main_experiment_trial","9","hotel_scheme","schematic_sequence","","","","",""
"","","","","","html-keyboard-response","161","570946","0.0-161.0","CE2E9BF1D1E2487E9C10BF59C9321B5A","019cf05b-19d5-7a7b-a2a1-f979578b2605","019ceff9-9f67-7034-9722-02cda2445e09","","null","
                <div class=""stimulus-container"">
                    <img src=""images/schematic_sequence/hotel_scheme/hotel_scheme_ten.png"" class=""exp-image"">
                    <div class=""question-area""></div> 
                </div>","null","","","","","","","","",""
"","","","","","html-button-response","162","571475","0.0-162.0","CE2E9BF1D1E2487E9C10BF59C9321B5A","019cf05b-19d5-7a7b-a2a1-f979578b2605","019ceff9-9f67-7034-9722-02cda2445e09","","528","
                <div class=""stimulus-container"">
                    <img src=""images/schematic_sequence/hotel_scheme/hotel_scheme_ten.png"" class=""exp-image"">
                    <div class=""question-area"">
                        <p style=""font-size: 20px; font-weight: bold; margin: 0;"">Is there a person in this image?</p>
                    </div>
                </div>","0","main_experiment_trial","ten","hotel_scheme","schematic_sequence","","","","",""
"","","","","","html-keyboard-response","163","572478","0.0-163.0","CE2E9BF1D1E2487E9C10BF59C9321B5A","019cf05b-19d5-7a7b-a2a1-f979578b2605","019ceff9-9f67-7034-9722-02cda2445e09","","null","<div style=""background-color: white; width: 100vw; height: 100vh;""></div>","null","","","","","","","","",""
"","","","","","html-keyboard-response","164","577480","0.0-164.0","CE2E9BF1D1E2487E9C10BF59C9321B5A","019cf05b-19d5-7a7b-a2a1-f979578b2605","019ceff9-9f67-7034-9722-02cda2445e09","","null","
                <div class=""stimulus-container"">
                    <img src=""images/causal_sequence/museum_causal/museum_causal_1.png"" class=""exp-image"">
                    <div class=""question-area""></div> 
                </div>","null","","","","","","","","",""
"","","","","","html-button-response","165","577876","0.0-165.0","CE2E9BF1D1E2487E9C10BF59C9321B5A","019cf05b-19d5-7a7b-a2a1-f979578b2605","019ceff9-9f67-7034-9722-02cda2445e09","","395","
                <div class=""stimulus-container"">
                    <img src=""images/causal_sequence/museum_causal/museum_causal_1.png"" class=""exp-image"">
                    <div class=""question-area"">
                        <p style=""font-size: 20px; font-weight: bold; margin: 0;"">Is there a person in this image?</p>
                    </div>
                </div>","0","main_experiment_trial","1","museum_causal","causal_sequence","","","","",""
"","","","","","html-keyboard-response","166","582878","0.0-166.0","CE2E9BF1D1E2487E9C10BF59C9321B5A","019cf05b-19d5-7a7b-a2a1-f979578b2605","019ceff9-9f67-7034-9722-02cda2445e09","","null","
                <div class=""stimulus-container"">
                    <img src=""images/causal_sequence/museum_causal/museum_causal_2.png"" class=""exp-image"">
                    <div class=""question-area""></div> 
                </div>","null","","","","","","","","",""
"","","","","","html-button-response","167","583459","0.0-167.0","CE2E9BF1D1E2487E9C10BF59C9321B5A","019cf05b-19d5-7a7b-a2a1-f979578b2605","019ceff9-9f67-7034-9722-02cda2445e09","","580","
                <div class=""stimulus-container"">
                    <img src=""images/causal_sequence/museum_causal/museum_causal_2.png"" class=""exp-image"">
                    <div class=""question-area"">
                        <p style=""font-size: 20px; font-weight: bold; margin: 0;"">Is there a person in this image?</p>
                    </div>
                </div>","0","main_experiment_trial","2","museum_causal","causal_sequence","","","","",""
"","","","","","html-keyboard-response","168","588462","0.0-168.0","CE2E9BF1D1E2487E9C10BF59C9321B5A","019cf05b-19d5-7a7b-a2a1-f979578b2605","019ceff9-9f67-7034-9722-02cda2445e09","","null","
                <div class=""stimulus-container"">
                    <img src=""images/causal_sequence/museum_causal/museum_causal_3.png"" class=""exp-image"">
                    <div class=""question-area""></div> 
                </div>","null","","","","","","","","",""
"","","","","","html-button-response","169","589559","0.0-169.0","CE2E9BF1D1E2487E9C10BF59C9321B5A","019cf05b-19d5-7a7b-a2a1-f979578b2605","019ceff9-9f67-7034-9722-02cda2445e09","","1096","
                <div class=""stimulus-container"">
                    <img src=""images/causal_sequence/museum_causal/museum_causal_3.png"" class=""exp-image"">
                    <div class=""question-area"">
                        <p style=""font-size: 20px; font-weight: bold; margin: 0;"">Is there a person in this image?</p>
                    </div>
                </div>","0","main_experiment_trial","3","museum_causal","causal_sequence","","","","",""
"","","","","","html-keyboard-response","170","594562","0.0-170.0","CE2E9BF1D1E2487E9C10BF59C9321B5A","019cf05b-19d5-7a7b-a2a1-f979578b2605","019ceff9-9f67-7034-9722-02cda2445e09","","null","
                <div class=""stimulus-container"">
                    <img src=""images/causal_sequence/museum_causal/museum_causal_4.png"" class=""exp-image"">
                    <div class=""question-area""></div> 
                </div>","null","","","","","","","","",""
"","","","","","html-button-response","171","595375","0.0-171.0","CE2E9BF1D1E2487E9C10BF59C9321B5A","019cf05b-19d5-7a7b-a2a1-f979578b2605","019ceff9-9f67-7034-9722-02cda2445e09","","812","
                <div class=""stimulus-container"">
                    <img src=""images/causal_sequence/museum_causal/museum_causal_4.png"" class=""exp-image"">
                    <div class=""question-area"">
                        <p style=""font-size: 20px; font-weight: bold; margin: 0;"">Is there a person in this image?</p>
                    </div>
                </div>","1","main_experiment_trial","4","museum_causal","causal_sequence","","","","",""
"","","","","","html-keyboard-response","172","600378","0.0-172.0","CE2E9BF1D1E2487E9C10BF59C9321B5A","019cf05b-19d5-7a7b-a2a1-f979578b2605","019ceff9-9f67-7034-9722-02cda2445e09","","null","
                <div class=""stimulus-container"">
                    <img src=""images/causal_sequence/museum_causal/museum_causal_5.png"" class=""exp-image"">
                    <div class=""question-area""></div> 
                </div>","null","","","","","","","","",""
"","","","","","html-button-response","173","601159","0.0-173.0","CE2E9BF1D1E2487E9C10BF59C9321B5A","019cf05b-19d5-7a7b-a2a1-f979578b2605","019ceff9-9f67-7034-9722-02cda2445e09","","780","
                <div class=""stimulus-container"">
                    <img src=""images/causal_sequence/museum_causal/museum_causal_5.png"" class=""exp-image"">
                    <div class=""question-area"">
                        <p style=""font-size: 20px; font-weight: bold; margin: 0;"">Is there a person in this image?</p>
                    </div>
                </div>","0","main_experiment_trial","5","museum_causal","causal_sequence","","","","",""
"","","","","","html-keyboard-response","174","606162","0.0-174.0","CE2E9BF1D1E2487E9C10BF59C9321B5A","019cf05b-19d5-7a7b-a2a1-f979578b2605","019ceff9-9f67-7034-9722-02cda2445e09","","null","
                <div class=""stimulus-container"">
                    <img src=""images/causal_sequence/museum_causal/museum_causal_6.png"" class=""exp-image"">
                    <div class=""question-area""></div> 
                </div>","null","","","","","","","","",""
"","","","","","html-button-response","175","607442","0.0-175.0","CE2E9BF1D1E2487E9C10BF59C9321B5A","019cf05b-19d5-7a7b-a2a1-f979578b2605","019ceff9-9f67-7034-9722-02cda2445e09","","1280","
                <div class=""stimulus-container"">
                    <img src=""images/causal_sequence/museum_causal/museum_causal_6.png"" class=""exp-image"">
                    <div class=""question-area"">
                        <p style=""font-size: 20px; font-weight: bold; margin: 0;"">Is there a person in this image?</p>
                    </div>
                </div>","0","main_experiment_trial","6","museum_causal","causal_sequence","","","","",""
"","","","","","html-keyboard-response","176","612444","0.0-176.0","CE2E9BF1D1E2487E9C10BF59C9321B5A","019cf05b-19d5-7a7b-a2a1-f979578b2605","019ceff9-9f67-7034-9722-02cda2445e09","","null","
                <div class=""stimulus-container"">
                    <img src=""images/causal_sequence/museum_causal/museum_causal_7.png"" class=""exp-image"">
                    <div class=""question-area""></div> 
                </div>","null","","","","","","","","",""
"","","","","","html-button-response","177","613292","0.0-177.0","CE2E9BF1D1E2487E9C10BF59C9321B5A","019cf05b-19d5-7a7b-a2a1-f979578b2605","019ceff9-9f67-7034-9722-02cda2445e09","","847","
                <div class=""stimulus-container"">
                    <img src=""images/causal_sequence/museum_causal/museum_causal_7.png"" class=""exp-image"">
                    <div class=""question-area"">
                        <p style=""font-size: 20px; font-weight: bold; margin: 0;"">Is there a person in this image?</p>
                    </div>
                </div>","1","main_experiment_trial","7","museum_causal","causal_sequence","","","","",""
"","","","","","html-keyboard-response","178","618294","0.0-178.0","CE2E9BF1D1E2487E9C10BF59C9321B5A","019cf05b-19d5-7a7b-a2a1-f979578b2605","019ceff9-9f67-7034-9722-02cda2445e09","","null","
                <div class=""stimulus-container"">
                    <img src=""images/causal_sequence/museum_causal/museum_causal_8.png"" class=""exp-image"">
                    <div class=""question-area""></div> 
                </div>","null","","","","","","","","",""
"","","","","","html-button-response","179","620343","0.0-179.0","CE2E9BF1D1E2487E9C10BF59C9321B5A","019cf05b-19d5-7a7b-a2a1-f979578b2605","019ceff9-9f67-7034-9722-02cda2445e09","","2048","
                <div class=""stimulus-container"">
                    <img src=""images/causal_sequence/museum_causal/museum_causal_8.png"" class=""exp-image"">
                    <div class=""question-area"">
                        <p style=""font-size: 20px; font-weight: bold; margin: 0;"">Is there a person in this image?</p>
                    </div>
                </div>","0","main_experiment_trial","8","museum_causal","causal_sequence","","","","",""
"","","","","","html-keyboard-response","180","625344","0.0-180.0","CE2E9BF1D1E2487E9C10BF59C9321B5A","019cf05b-19d5-7a7b-a2a1-f979578b2605","019ceff9-9f67-7034-9722-02cda2445e09","","null","
                <div class=""stimulus-container"">
                    <img src=""images/causal_sequence/museum_causal/museum_causal_9.png"" class=""exp-image"">
                    <div class=""question-area""></div> 
                </div>","null","","","","","","","","",""
"","","","","","html-button-response","181","626075","0.0-181.0","CE2E9BF1D1E2487E9C10BF59C9321B5A","019cf05b-19d5-7a7b-a2a1-f979578b2605","019ceff9-9f67-7034-9722-02cda2445e09","","730","
                <div class=""stimulus-container"">
                    <img src=""images/causal_sequence/museum_causal/museum_causal_9.png"" class=""exp-image"">
                    <div class=""question-area"">
                        <p style=""font-size: 20px; font-weight: bold; margin: 0;"">Is there a person in this image?</p>
                    </div>
                </div>","1","main_experiment_trial","9","museum_causal","causal_sequence","","","","",""
"","","","","","html-keyboard-response","182","631077","0.0-182.0","CE2E9BF1D1E2487E9C10BF59C9321B5A","019cf05b-19d5-7a7b-a2a1-f979578b2605","019ceff9-9f67-7034-9722-02cda2445e09","","null","
                <div class=""stimulus-container"">
                    <img src=""images/causal_sequence/museum_causal/museum_causal_ten.png"" class=""exp-image"">
                    <div class=""question-area""></div> 
                </div>","null","","","","","","","","",""
"","","","","","html-button-response","183","631925","0.0-183.0","CE2E9BF1D1E2487E9C10BF59C9321B5A","019cf05b-19d5-7a7b-a2a1-f979578b2605","019ceff9-9f67-7034-9722-02cda2445e09","","846","
                <div class=""stimulus-container"">
                    <img src=""images/causal_sequence/museum_causal/museum_causal_ten.png"" class=""exp-image"">
