"success","timeout","failed_images","failed_audio","failed_video","trial_type","trial_index","time_elapsed","internal_node_id","subject_id","study_id","session_id","view_history","rt","stimulus","response","task","image_index","folder","sequence_type","valuable_image_index","reward_type","chosen_image_index","target_X","correct_choice"
"true","false","[]","[]","[]","preload","0","8115","0.0-0.0","A84491FD56F94C5C97FB801DFEFABBAD","019cf80f-877b-75af-9d59-dda2cc5c076a","019cf80d-4266-7117-8a51-54e13c84aca4","","","","","","","","","","","","",""
"","","","","","instructions","1","31568","0.0-1.0","A84491FD56F94C5C97FB801DFEFABBAD","019cf80f-877b-75af-9d59-dda2cc5c076a","019cf80d-4266-7117-8a51-54e13c84aca4","[{""page_index"":0,""viewing_time"":23453}]","23453","","","","","","","","","","",""
"","","","","","instructions","2","35759","0.0-2.0","A84491FD56F94C5C97FB801DFEFABBAD","019cf80f-877b-75af-9d59-dda2cc5c076a","019cf80d-4266-7117-8a51-54e13c84aca4","[{""page_index"":0,""viewing_time"":4190}]","4190","","","","","","","","","","",""
"true","","","","","fullscreen","3","41387","0.0-3.0","A84491FD56F94C5C97FB801DFEFABBAD","019cf80f-877b-75af-9d59-dda2cc5c076a","019cf80d-4266-7117-8a51-54e13c84aca4","","4626","","","","","","","","","","",""
"","","","","","instructions","4","60523","0.0-4.0","A84491FD56F94C5C97FB801DFEFABBAD","019cf80f-877b-75af-9d59-dda2cc5c076a","019cf80d-4266-7117-8a51-54e13c84aca4","[{""page_index"":0,""viewing_time"":19134}]","19134","","","","","","","","","","",""
"","","","","","instructions","5","65633","0.0-5.0","A84491FD56F94C5C97FB801DFEFABBAD","019cf80f-877b-75af-9d59-dda2cc5c076a","019cf80d-4266-7117-8a51-54e13c84aca4","[{""page_index"":0,""viewing_time"":5109}]","5109","","","","","","","","","","",""
"","","","","","html-keyboard-response","6","69709","0.0-6.0","A84491FD56F94C5C97FB801DFEFABBAD","019cf80f-877b-75af-9d59-dda2cc5c076a","019cf80d-4266-7117-8a51-54e13c84aca4","","null","
                <div class=""stimulus-container"">
                    <img src=""images/instructions/movie_1.png"" class=""exp-image"">
                    <div class=""question-area""></div> 
                </div>","null","","","","","","","","",""
"","","","","","html-button-response","7","72605","0.0-7.0","A84491FD56F94C5C97FB801DFEFABBAD","019cf80f-877b-75af-9d59-dda2cc5c076a","019cf80d-4266-7117-8a51-54e13c84aca4","","2895","
                <div class=""stimulus-container"">
                    <img src=""images/instructions/movie_1.png"" class=""exp-image"">
                    <div class=""question-area"">
                        <p style=""font-size: 20px; font-weight: bold; margin: 0;"">Was there a person in this image?</p>
                    </div>
                </div>","0","example_question","1","","","","","","",""
"","","","","","html-keyboard-response","8","76606","0.0-8.0","A84491FD56F94C5C97FB801DFEFABBAD","019cf80f-877b-75af-9d59-dda2cc5c076a","019cf80d-4266-7117-8a51-54e13c84aca4","","null","
                <div class=""stimulus-container"">
                    <img src=""images/instructions/movie_2.png"" class=""exp-image"">
                    <div class=""question-area""></div> 
                </div>","null","","","","","","","","",""
"","","","","","html-button-response","9","79928","0.0-9.0","A84491FD56F94C5C97FB801DFEFABBAD","019cf80f-877b-75af-9d59-dda2cc5c076a","019cf80d-4266-7117-8a51-54e13c84aca4","","null","
                <div class=""stimulus-container"">
                    <img src=""images/instructions/movie_2.png"" class=""exp-image"">
                    <div class=""question-area"">
                        <p style=""font-size: 20px; font-weight: bold; margin: 0;"">Was there a person in this image?</p>
                    </div>
                </div>","null","example_question","2","","","","","","",""
"","","","","","html-keyboard-response","10","83983","0.0-10.0","A84491FD56F94C5C97FB801DFEFABBAD","019cf80f-877b-75af-9d59-dda2cc5c076a","019cf80d-4266-7117-8a51-54e13c84aca4","","null","
                <div class=""stimulus-container"">
                    <img src=""images/instructions/movie_3.png"" class=""exp-image"">
                    <div class=""question-area""></div> 
                </div>","null","","","","","","","","",""
"","","","","","html-button-response","11","84660","0.0-11.0","A84491FD56F94C5C97FB801DFEFABBAD","019cf80f-877b-75af-9d59-dda2cc5c076a","019cf80d-4266-7117-8a51-54e13c84aca4","","675","
                <div class=""stimulus-container"">
                    <img src=""images/instructions/movie_3.png"" class=""exp-image"">
                    <div class=""question-area"">
                        <p style=""font-size: 20px; font-weight: bold; margin: 0;"">Was there a person in this image?</p>
                    </div>
                </div>","0","example_question","3","","","","","","",""
"","","","","","html-keyboard-response","12","88661","0.0-12.0","A84491FD56F94C5C97FB801DFEFABBAD","019cf80f-877b-75af-9d59-dda2cc5c076a","019cf80d-4266-7117-8a51-54e13c84aca4","","null","
                <div class=""stimulus-container"">
                    <img src=""images/instructions/movie_4.png"" class=""exp-image"">
                    <div class=""question-area""></div> 
                </div>","null","","","","","","","","",""
"","","","","","html-button-response","13","89077","0.0-13.0","A84491FD56F94C5C97FB801DFEFABBAD","019cf80f-877b-75af-9d59-dda2cc5c076a","019cf80d-4266-7117-8a51-54e13c84aca4","","415","
                <div class=""stimulus-container"">
                    <img src=""images/instructions/movie_4.png"" class=""exp-image"">
                    <div class=""question-area"">
                        <p style=""font-size: 20px; font-weight: bold; margin: 0;"">Was there a person in this image?</p>
                    </div>
                </div>","0","example_question","4","","","","","","",""
"","","","","","instructions","14","101796","0.0-14.0","A84491FD56F94C5C97FB801DFEFABBAD","019cf80f-877b-75af-9d59-dda2cc5c076a","019cf80d-4266-7117-8a51-54e13c84aca4","[{""page_index"":0,""viewing_time"":12717}]","12717","","","","","","","","","","",""
"","","","","","instructions","15","112108","0.0-15.0","A84491FD56F94C5C97FB801DFEFABBAD","019cf80f-877b-75af-9d59-dda2cc5c076a","019cf80d-4266-7117-8a51-54e13c84aca4","[{""page_index"":0,""viewing_time"":10313}]","10313","","","","","","","","","","",""
"","","","","","html-keyboard-response","16","113110","0.0-16.0","A84491FD56F94C5C97FB801DFEFABBAD","019cf80f-877b-75af-9d59-dda2cc5c076a","019cf80d-4266-7117-8a51-54e13c84aca4","","null","<div style=""background-color: white; width: 100vw; height: 100vh;""></div>","null","","","","","","","","",""
"","","","","","html-keyboard-response","17","118110","0.0-17.0","A84491FD56F94C5C97FB801DFEFABBAD","019cf80f-877b-75af-9d59-dda2cc5c076a","019cf80d-4266-7117-8a51-54e13c84aca4","","null","
                <div class=""stimulus-container"">
                    <img src=""images/schematic_sequence/interview_scheme/interview_scheme_1.png"" class=""exp-image"">
                    <div class=""question-area""></div> 
                </div>","null","","","","","","","","",""
"","","","","","html-button-response","18","118899","0.0-18.0","A84491FD56F94C5C97FB801DFEFABBAD","019cf80f-877b-75af-9d59-dda2cc5c076a","019cf80d-4266-7117-8a51-54e13c84aca4","","789","
                <div class=""stimulus-container"">
                    <img src=""images/schematic_sequence/interview_scheme/interview_scheme_1.png"" class=""exp-image"">
                    <div class=""question-area"">
                        <p style=""font-size: 20px; font-weight: bold; margin: 0;"">Is there a person in this image?</p>
                    </div>
                </div>","1","main_experiment_trial","1","interview_scheme","schematic_sequence","","","","",""
"","","","","","html-keyboard-response","19","123900","0.0-19.0","A84491FD56F94C5C97FB801DFEFABBAD","019cf80f-877b-75af-9d59-dda2cc5c076a","019cf80d-4266-7117-8a51-54e13c84aca4","","null","
                <div class=""stimulus-container"">
                    <img src=""images/schematic_sequence/interview_scheme/interview_scheme_2.png"" class=""exp-image"">
                    <div class=""question-area""></div> 
                </div>","null","","","","","","","","",""
"","","","","","html-button-response","20","124632","0.0-20.0","A84491FD56F94C5C97FB801DFEFABBAD","019cf80f-877b-75af-9d59-dda2cc5c076a","019cf80d-4266-7117-8a51-54e13c84aca4","","732","
                <div class=""stimulus-container"">
                    <img src=""images/schematic_sequence/interview_scheme/interview_scheme_2.png"" class=""exp-image"">
                    <div class=""question-area"">
                        <p style=""font-size: 20px; font-weight: bold; margin: 0;"">Is there a person in this image?</p>
                    </div>
                </div>","1","main_experiment_trial","2","interview_scheme","schematic_sequence","","","","",""
"","","","","","html-keyboard-response","21","129634","0.0-21.0","A84491FD56F94C5C97FB801DFEFABBAD","019cf80f-877b-75af-9d59-dda2cc5c076a","019cf80d-4266-7117-8a51-54e13c84aca4","","null","
                <div class=""stimulus-container"">
                    <img src=""images/schematic_sequence/interview_scheme/interview_scheme_3.png"" class=""exp-image"">
                    <div class=""question-area""></div> 
                </div>","null","","","","","","","","",""
"","","","","","html-button-response","22","130127","0.0-22.0","A84491FD56F94C5C97FB801DFEFABBAD","019cf80f-877b-75af-9d59-dda2cc5c076a","019cf80d-4266-7117-8a51-54e13c84aca4","","492","
                <div class=""stimulus-container"">
                    <img src=""images/schematic_sequence/interview_scheme/interview_scheme_3.png"" class=""exp-image"">
                    <div class=""question-area"">
                        <p style=""font-size: 20px; font-weight: bold; margin: 0;"">Is there a person in this image?</p>
                    </div>
                </div>","1","main_experiment_trial","3","interview_scheme","schematic_sequence","","","","",""
"","","","","","html-keyboard-response","23","135128","0.0-23.0","A84491FD56F94C5C97FB801DFEFABBAD","019cf80f-877b-75af-9d59-dda2cc5c076a","019cf80d-4266-7117-8a51-54e13c84aca4","","null","
                <div class=""stimulus-container"">
                    <img src=""images/schematic_sequence/interview_scheme/interview_scheme_4.png"" class=""exp-image"">
                    <div class=""question-area""></div> 
                </div>","null","","","","","","","","",""
"","","","","","html-button-response","24","135611","0.0-24.0","A84491FD56F94C5C97FB801DFEFABBAD","019cf80f-877b-75af-9d59-dda2cc5c076a","019cf80d-4266-7117-8a51-54e13c84aca4","","483","
                <div class=""stimulus-container"">
                    <img src=""images/schematic_sequence/interview_scheme/interview_scheme_4.png"" class=""exp-image"">
                    <div class=""question-area"">
                        <p style=""font-size: 20px; font-weight: bold; margin: 0;"">Is there a person in this image?</p>
                    </div>
                </div>","1","main_experiment_trial","4","interview_scheme","schematic_sequence","","","","",""
"","","","","","html-keyboard-response","25","140613","0.0-25.0","A84491FD56F94C5C97FB801DFEFABBAD","019cf80f-877b-75af-9d59-dda2cc5c076a","019cf80d-4266-7117-8a51-54e13c84aca4","","null","
                <div class=""stimulus-container"">
                    <img src=""images/schematic_sequence/interview_scheme/interview_scheme_5.png"" class=""exp-image"">
                    <div class=""question-area""></div> 
                </div>","null","","","","","","","","",""
"","","","","","html-button-response","26","141163","0.0-26.0","A84491FD56F94C5C97FB801DFEFABBAD","019cf80f-877b-75af-9d59-dda2cc5c076a","019cf80d-4266-7117-8a51-54e13c84aca4","","550","
                <div class=""stimulus-container"">
                    <img src=""images/schematic_sequence/interview_scheme/interview_scheme_5.png"" class=""exp-image"">
                    <div class=""question-area"">
                        <p style=""font-size: 20px; font-weight: bold; margin: 0;"">Is there a person in this image?</p>
                    </div>
                </div>","0","main_experiment_trial","5","interview_scheme","schematic_sequence","","","","",""
"","","","","","html-keyboard-response","27","146166","0.0-27.0","A84491FD56F94C5C97FB801DFEFABBAD","019cf80f-877b-75af-9d59-dda2cc5c076a","019cf80d-4266-7117-8a51-54e13c84aca4","","null","
                <div class=""stimulus-container"">
                    <img src=""images/schematic_sequence/interview_scheme/interview_scheme_6.png"" class=""exp-image"">
                    <div class=""question-area""></div> 
                </div>","null","","","","","","","","",""
"","","","","","html-button-response","28","146687","0.0-28.0","A84491FD56F94C5C97FB801DFEFABBAD","019cf80f-877b-75af-9d59-dda2cc5c076a","019cf80d-4266-7117-8a51-54e13c84aca4","","520","
                <div class=""stimulus-container"">
                    <img src=""images/schematic_sequence/interview_scheme/interview_scheme_6.png"" class=""exp-image"">
                    <div class=""question-area"">
                        <p style=""font-size: 20px; font-weight: bold; margin: 0;"">Is there a person in this image?</p>
                    </div>
                </div>","0","main_experiment_trial","6","interview_scheme","schematic_sequence","","","","",""
"","","","","","html-keyboard-response","29","151687","0.0-29.0","A84491FD56F94C5C97FB801DFEFABBAD","019cf80f-877b-75af-9d59-dda2cc5c076a","019cf80d-4266-7117-8a51-54e13c84aca4","","null","
                <div class=""stimulus-container"">
                    <img src=""images/schematic_sequence/interview_scheme/interview_scheme_7.png"" class=""exp-image"">
                    <div class=""question-area""></div> 
                </div>","null","","","","","","","","",""
"","","","","","html-button-response","30","152470","0.0-30.0","A84491FD56F94C5C97FB801DFEFABBAD","019cf80f-877b-75af-9d59-dda2cc5c076a","019cf80d-4266-7117-8a51-54e13c84aca4","","782","
                <div class=""stimulus-container"">
                    <img src=""images/schematic_sequence/interview_scheme/interview_scheme_7.png"" class=""exp-image"">
                    <div class=""question-area"">
                        <p style=""font-size: 20px; font-weight: bold; margin: 0;"">Is there a person in this image?</p>
                    </div>
                </div>","0","main_experiment_trial","7","interview_scheme","schematic_sequence","","","","",""
"","","","","","html-keyboard-response","31","157518","0.0-31.0","A84491FD56F94C5C97FB801DFEFABBAD","019cf80f-877b-75af-9d59-dda2cc5c076a","019cf80d-4266-7117-8a51-54e13c84aca4","","null","
                <div class=""stimulus-container"">
                    <img src=""images/schematic_sequence/interview_scheme/interview_scheme_8.png"" class=""exp-image"">
                    <div class=""question-area""></div> 
                </div>","null","","","","","","","","",""
"","","","","","html-button-response","32","158146","0.0-32.0","A84491FD56F94C5C97FB801DFEFABBAD","019cf80f-877b-75af-9d59-dda2cc5c076a","019cf80d-4266-7117-8a51-54e13c84aca4","","627","
                <div class=""stimulus-container"">
                    <img src=""images/schematic_sequence/interview_scheme/interview_scheme_8.png"" class=""exp-image"">
                    <div class=""question-area"">
                        <p style=""font-size: 20px; font-weight: bold; margin: 0;"">Is there a person in this image?</p>
                    </div>
                </div>","0","main_experiment_trial","8","interview_scheme","schematic_sequence","","","","",""
"","","","","","html-keyboard-response","33","163147","0.0-33.0","A84491FD56F94C5C97FB801DFEFABBAD","019cf80f-877b-75af-9d59-dda2cc5c076a","019cf80d-4266-7117-8a51-54e13c84aca4","","null","
                <div class=""stimulus-container"">
                    <img src=""images/schematic_sequence/interview_scheme/interview_scheme_9.png"" class=""exp-image"">
                    <div class=""question-area""></div> 
                </div>","null","","","","","","","","",""
"","","","","","html-button-response","34","163974","0.0-34.0","A84491FD56F94C5C97FB801DFEFABBAD","019cf80f-877b-75af-9d59-dda2cc5c076a","019cf80d-4266-7117-8a51-54e13c84aca4","","826","
                <div class=""stimulus-container"">
                    <img src=""images/schematic_sequence/interview_scheme/interview_scheme_9.png"" class=""exp-image"">
                    <div class=""question-area"">
                        <p style=""font-size: 20px; font-weight: bold; margin: 0;"">Is there a person in this image?</p>
                    </div>
                </div>","0","main_experiment_trial","9","interview_scheme","schematic_sequence","","","","",""
"","","","","","html-keyboard-response","35","168976","0.0-35.0","A84491FD56F94C5C97FB801DFEFABBAD","019cf80f-877b-75af-9d59-dda2cc5c076a","019cf80d-4266-7117-8a51-54e13c84aca4","","null","
                <div class=""stimulus-container"">
                    <img src=""images/schematic_sequence/interview_scheme/interview_scheme_ten.png"" class=""exp-image"">
                    <div class=""question-area""></div> 
                </div>","null","","","","","","","","",""
"","","","","","html-button-response","36","169734","0.0-36.0","A84491FD56F94C5C97FB801DFEFABBAD","019cf80f-877b-75af-9d59-dda2cc5c076a","019cf80d-4266-7117-8a51-54e13c84aca4","","757","
                <div class=""stimulus-container"">
                    <img src=""images/schematic_sequence/interview_scheme/interview_scheme_ten.png"" class=""exp-image"">
                    <div class=""question-area"">
                        <p style=""font-size: 20px; font-weight: bold; margin: 0;"">Is there a person in this image?</p>
                    </div>
                </div>","0","main_experiment_trial","ten","interview_scheme","schematic_sequence","","","","",""
"","","","","","html-keyboard-response","37","170736","0.0-37.0","A84491FD56F94C5C97FB801DFEFABBAD","019cf80f-877b-75af-9d59-dda2cc5c076a","019cf80d-4266-7117-8a51-54e13c84aca4","","null","<div style=""background-color: white; width: 100vw; height: 100vh;""></div>","null","","","","","","","","",""
"","","","","","html-keyboard-response","38","175736","0.0-38.0","A84491FD56F94C5C97FB801DFEFABBAD","019cf80f-877b-75af-9d59-dda2cc5c076a","019cf80d-4266-7117-8a51-54e13c84aca4","","null","
                <div class=""stimulus-container"">
                    <img src=""images/semantic_sequence/self_care_activities_semantic/self_care_activities_semantic_1.png"" class=""exp-image"">
                    <div class=""question-area""></div> 
                </div>","null","","","","","","","","",""
"","","","","","html-button-response","39","177808","0.0-39.0","A84491FD56F94C5C97FB801DFEFABBAD","019cf80f-877b-75af-9d59-dda2cc5c076a","019cf80d-4266-7117-8a51-54e13c84aca4","","2072","
                <div class=""stimulus-container"">
                    <img src=""images/semantic_sequence/self_care_activities_semantic/self_care_activities_semantic_1.png"" class=""exp-image"">
                    <div class=""question-area"">
                        <p style=""font-size: 20px; font-weight: bold; margin: 0;"">Is there a person in this image?</p>
                    </div>
                </div>","0","main_experiment_trial","1","self_care_activities_semantic","semantic_sequence","","","","",""
"","","","","","html-keyboard-response","40","182810","0.0-40.0","A84491FD56F94C5C97FB801DFEFABBAD","019cf80f-877b-75af-9d59-dda2cc5c076a","019cf80d-4266-7117-8a51-54e13c84aca4","","null","
                <div class=""stimulus-container"">
                    <img src=""images/semantic_sequence/self_care_activities_semantic/self_care_activities_semantic_2.png"" class=""exp-image"">
                    <div class=""question-area""></div> 
                </div>","null","","","","","","","","",""
"","","","","","html-button-response","41","183310","0.0-41.0","A84491FD56F94C5C97FB801DFEFABBAD","019cf80f-877b-75af-9d59-dda2cc5c076a","019cf80d-4266-7117-8a51-54e13c84aca4","","500","
                <div class=""stimulus-container"">
                    <img src=""images/semantic_sequence/self_care_activities_semantic/self_care_activities_semantic_2.png"" class=""exp-image"">
                    <div class=""question-area"">
                        <p style=""font-size: 20px; font-weight: bold; margin: 0;"">Is there a person in this image?</p>
                    </div>
                </div>","0","main_experiment_trial","2","self_care_activities_semantic","semantic_sequence","","","","",""
"","","","","","html-keyboard-response","42","188320","0.0-42.0","A84491FD56F94C5C97FB801DFEFABBAD","019cf80f-877b-75af-9d59-dda2cc5c076a","019cf80d-4266-7117-8a51-54e13c84aca4","","null","
                <div class=""stimulus-container"">
                    <img src=""images/semantic_sequence/self_care_activities_semantic/self_care_activities_semantic_3.png"" class=""exp-image"">
                    <div class=""question-area""></div> 
                </div>","null","","","","","","","","",""
"","","","","","html-button-response","43","188723","0.0-43.0","A84491FD56F94C5C97FB801DFEFABBAD","019cf80f-877b-75af-9d59-dda2cc5c076a","019cf80d-4266-7117-8a51-54e13c84aca4","","402","
                <div class=""stimulus-container"">
                    <img src=""images/semantic_sequence/self_care_activities_semantic/self_care_activities_semantic_3.png"" class=""exp-image"">
                    <div class=""question-area"">
                        <p style=""font-size: 20px; font-weight: bold; margin: 0;"">Is there a person in this image?</p>
                    </div>
                </div>","0","main_experiment_trial","3","self_care_activities_semantic","semantic_sequence","","","","",""
"","","","","","html-keyboard-response","44","193793","0.0-44.0","A84491FD56F94C5C97FB801DFEFABBAD","019cf80f-877b-75af-9d59-dda2cc5c076a","019cf80d-4266-7117-8a51-54e13c84aca4","","null","
                <div class=""stimulus-container"">
                    <img src=""images/semantic_sequence/self_care_activities_semantic/self_care_activities_semantic_4.png"" class=""exp-image"">
                    <div class=""question-area""></div> 
                </div>","null","","","","","","","","",""
"","","","","","html-button-response","45","194222","0.0-45.0","A84491FD56F94C5C97FB801DFEFABBAD","019cf80f-877b-75af-9d59-dda2cc5c076a","019cf80d-4266-7117-8a51-54e13c84aca4","","429","
                <div class=""stimulus-container"">
                    <img src=""images/semantic_sequence/self_care_activities_semantic/self_care_activities_semantic_4.png"" class=""exp-image"">
                    <div class=""question-area"">
                        <p style=""font-size: 20px; font-weight: bold; margin: 0;"">Is there a person in this image?</p>
                    </div>
                </div>","0","main_experiment_trial","4","self_care_activities_semantic","semantic_sequence","","","","",""
"","","","","","html-keyboard-response","46","199223","0.0-46.0","A84491FD56F94C5C97FB801DFEFABBAD","019cf80f-877b-75af-9d59-dda2cc5c076a","019cf80d-4266-7117-8a51-54e13c84aca4","","null","
                <div class=""stimulus-container"">
                    <img src=""images/semantic_sequence/self_care_activities_semantic/self_care_activities_semantic_5.png"" class=""exp-image"">
                    <div class=""question-area""></div> 
                </div>","null","","","","","","","","",""
"","","","","","html-button-response","47","199778","0.0-47.0","A84491FD56F94C5C97FB801DFEFABBAD","019cf80f-877b-75af-9d59-dda2cc5c076a","019cf80d-4266-7117-8a51-54e13c84aca4","","555","
                <div class=""stimulus-container"">
                    <img src=""images/semantic_sequence/self_care_activities_semantic/self_care_activities_semantic_5.png"" class=""exp-image"">
                    <div class=""question-area"">
                        <p style=""font-size: 20px; font-weight: bold; margin: 0;"">Is there a person in this image?</p>
                    </div>
                </div>","0","main_experiment_trial","5","self_care_activities_semantic","semantic_sequence","","","","",""
"","","","","","html-keyboard-response","48","204779","0.0-48.0","A84491FD56F94C5C97FB801DFEFABBAD","019cf80f-877b-75af-9d59-dda2cc5c076a","019cf80d-4266-7117-8a51-54e13c84aca4","","null","
                <div class=""stimulus-container"">
                    <img src=""images/semantic_sequence/self_care_activities_semantic/self_care_activities_semantic_6.png"" class=""exp-image"">
                    <div class=""question-area""></div> 
                </div>","null","","","","","","","","",""
"","","","","","html-button-response","49","205358","0.0-49.0","A84491FD56F94C5C97FB801DFEFABBAD","019cf80f-877b-75af-9d59-dda2cc5c076a","019cf80d-4266-7117-8a51-54e13c84aca4","","579","
                <div class=""stimulus-container"">
                    <img src=""images/semantic_sequence/self_care_activities_semantic/self_care_activities_semantic_6.png"" class=""exp-image"">
                    <div class=""question-area"">
                        <p style=""font-size: 20px; font-weight: bold; margin: 0;"">Is there a person in this image?</p>
                    </div>
                </div>","0","main_experiment_trial","6","self_care_activities_semantic","semantic_sequence","","","","",""
"","","","","","html-keyboard-response","50","210359","0.0-50.0","A84491FD56F94C5C97FB801DFEFABBAD","019cf80f-877b-75af-9d59-dda2cc5c076a","019cf80d-4266-7117-8a51-54e13c84aca4","","null","
                <div class=""stimulus-container"">
                    <img src=""images/semantic_sequence/self_care_activities_semantic/self_care_activities_semantic_7.png"" class=""exp-image"">
                    <div class=""question-area""></div> 
                </div>","null","","","","","","","","",""
"","","","","","html-button-response","51","210778","0.0-51.0","A84491FD56F94C5C97FB801DFEFABBAD","019cf80f-877b-75af-9d59-dda2cc5c076a","019cf80d-4266-7117-8a51-54e13c84aca4","","418","
                <div class=""stimulus-container"">
                    <img src=""images/semantic_sequence/self_care_activities_semantic/self_care_activities_semantic_7.png"" class=""exp-image"">
                    <div class=""question-area"">
                        <p style=""font-size: 20px; font-weight: bold; margin: 0;"">Is there a person in this image?</p>
                    </div>
                </div>","0","main_experiment_trial","7","self_care_activities_semantic","semantic_sequence","","","","",""
"","","","","","html-keyboard-response","52","216138","0.0-52.0","A84491FD56F94C5C97FB801DFEFABBAD","019cf80f-877b-75af-9d59-dda2cc5c076a","019cf80d-4266-7117-8a51-54e13c84aca4","","null","
                <div class=""stimulus-container"">
                    <img src=""images/semantic_sequence/self_care_activities_semantic/self_care_activities_semantic_8.png"" class=""exp-image"">
                    <div class=""question-area""></div> 
                </div>","null","","","","","","","","",""
"","","","","","html-button-response","53","216541","0.0-53.0","A84491FD56F94C5C97FB801DFEFABBAD","019cf80f-877b-75af-9d59-dda2cc5c076a","019cf80d-4266-7117-8a51-54e13c84aca4","","402","
                <div class=""stimulus-container"">
                    <img src=""images/semantic_sequence/self_care_activities_semantic/self_care_activities_semantic_8.png"" class=""exp-image"">
                    <div class=""question-area"">
                        <p style=""font-size: 20px; font-weight: bold; margin: 0;"">Is there a person in this image?</p>
                    </div>
                </div>","0","main_experiment_trial","8","self_care_activities_semantic","semantic_sequence","","","","",""
"","","","","","html-keyboard-response","54","221610","0.0-54.0","A84491FD56F94C5C97FB801DFEFABBAD","019cf80f-877b-75af-9d59-dda2cc5c076a","019cf80d-4266-7117-8a51-54e13c84aca4","","null","
                <div class=""stimulus-container"">
                    <img src=""images/semantic_sequence/self_care_activities_semantic/self_care_activities_semantic_9.png"" class=""exp-image"">
                    <div class=""question-area""></div> 
                </div>","null","","","","","","","","",""
"","","","","","html-button-response","55","222203","0.0-55.0","A84491FD56F94C5C97FB801DFEFABBAD","019cf80f-877b-75af-9d59-dda2cc5c076a","019cf80d-4266-7117-8a51-54e13c84aca4","","590","
                <div class=""stimulus-container"">
                    <img src=""images/semantic_sequence/self_care_activities_semantic/self_care_activities_semantic_9.png"" class=""exp-image"">
                    <div class=""question-area"">
                        <p style=""font-size: 20px; font-weight: bold; margin: 0;"">Is there a person in this image?</p>
                    </div>
                </div>","0","main_experiment_trial","9","self_care_activities_semantic","semantic_sequence","","","","",""
"","","","","","html-keyboard-response","56","227203","0.0-56.0","A84491FD56F94C5C97FB801DFEFABBAD","019cf80f-877b-75af-9d59-dda2cc5c076a","019cf80d-4266-7117-8a51-54e13c84aca4","","null","
                <div class=""stimulus-container"">
                    <img src=""images/semantic_sequence/self_care_activities_semantic/self_care_activities_semantic_ten.png"" class=""exp-image"">
                    <div class=""question-area""></div> 
                </div>","null","","","","","","","","",""
"","","","","","html-button-response","57","227778","0.0-57.0","A84491FD56F94C5C97FB801DFEFABBAD","019cf80f-877b-75af-9d59-dda2cc5c076a","019cf80d-4266-7117-8a51-54e13c84aca4","","574","
                <div class=""stimulus-container"">
                    <img src=""images/semantic_sequence/self_care_activities_semantic/self_care_activities_semantic_ten.png"" class=""exp-image"">
                    <div class=""question-area"">
                        <p style=""font-size: 20px; font-weight: bold; margin: 0;"">Is there a person in this image?</p>
                    </div>
                </div>","0","main_experiment_trial","ten","self_care_activities_semantic","semantic_sequence","","","","",""
"","","","","","html-keyboard-response","58","228779","0.0-58.0","A84491FD56F94C5C97FB801DFEFABBAD","019cf80f-877b-75af-9d59-dda2cc5c076a","019cf80d-4266-7117-8a51-54e13c84aca4","","null","<div style=""background-color: white; width: 100vw; height: 100vh;""></div>","null","","","","","","","","",""
"","","","","","html-keyboard-response","59","233780","0.0-59.0","A84491FD56F94C5C97FB801DFEFABBAD","019cf80f-877b-75af-9d59-dda2cc5c076a","019cf80d-4266-7117-8a51-54e13c84aca4","","null","
                <div class=""stimulus-container"">
                    <img src=""images/schematic_sequence/flight_scheme/flight_scheme_1.png"" class=""exp-image"">
                    <div class=""question-area""></div> 
                </div>","null","","","","","","","","",""
"","","","","","html-button-response","60","234191","0.0-60.0","A84491FD56F94C5C97FB801DFEFABBAD","019cf80f-877b-75af-9d59-dda2cc5c076a","019cf80d-4266-7117-8a51-54e13c84aca4","","409","
                <div class=""stimulus-container"">
                    <img src=""images/schematic_sequence/flight_scheme/flight_scheme_1.png"" class=""exp-image"">
                    <div class=""question-area"">
                        <p style=""font-size: 20px; font-weight: bold; margin: 0;"">Is there a person in this image?</p>
                    </div>
                </div>","1","main_experiment_trial","1","flight_scheme","schematic_sequence","","","","",""
"","","","","","html-keyboard-response","61","239204","0.0-61.0","A84491FD56F94C5C97FB801DFEFABBAD","019cf80f-877b-75af-9d59-dda2cc5c076a","019cf80d-4266-7117-8a51-54e13c84aca4","","null","
                <div class=""stimulus-container"">
                    <img src=""images/schematic_sequence/flight_scheme/flight_scheme_2.png"" class=""exp-image"">
                    <div class=""question-area""></div> 
                </div>","null","","","","","","","","",""
"","","","","","html-button-response","62","239650","0.0-62.0","A84491FD56F94C5C97FB801DFEFABBAD","019cf80f-877b-75af-9d59-dda2cc5c076a","019cf80d-4266-7117-8a51-54e13c84aca4","","446","
                <div class=""stimulus-container"">
                    <img src=""images/schematic_sequence/flight_scheme/flight_scheme_2.png"" class=""exp-image"">
                    <div class=""question-area"">
                        <p style=""font-size: 20px; font-weight: bold; margin: 0;"">Is there a person in this image?</p>
                    </div>
                </div>","1","main_experiment_trial","2","flight_scheme","schematic_sequence","","","","",""
"","","","","","html-keyboard-response","63","245181","0.0-63.0","A84491FD56F94C5C97FB801DFEFABBAD","019cf80f-877b-75af-9d59-dda2cc5c076a","019cf80d-4266-7117-8a51-54e13c84aca4","","null","
                <div class=""stimulus-container"">
                    <img src=""images/schematic_sequence/flight_scheme/flight_scheme_3.png"" class=""exp-image"">
                    <div class=""question-area""></div> 
                </div>","null","","","","","","","","",""
"","","","","","html-button-response","64","245622","0.0-64.0","A84491FD56F94C5C97FB801DFEFABBAD","019cf80f-877b-75af-9d59-dda2cc5c076a","019cf80d-4266-7117-8a51-54e13c84aca4","","441","
                <div class=""stimulus-container"">
                    <img src=""images/schematic_sequence/flight_scheme/flight_scheme_3.png"" class=""exp-image"">
                    <div class=""question-area"">
                        <p style=""font-size: 20px; font-weight: bold; margin: 0;"">Is there a person in this image?</p>
                    </div>
                </div>","0","main_experiment_trial","3","flight_scheme","schematic_sequence","","","","",""
"","","","","","html-keyboard-response","65","250623","0.0-65.0","A84491FD56F94C5C97FB801DFEFABBAD","019cf80f-877b-75af-9d59-dda2cc5c076a","019cf80d-4266-7117-8a51-54e13c84aca4","","null","
                <div class=""stimulus-container"">
                    <img src=""images/schematic_sequence/flight_scheme/flight_scheme_4.png"" class=""exp-image"">
                    <div class=""question-area""></div> 
                </div>","null","","","","","","","","",""
"","","","","","html-button-response","66","251006","0.0-66.0","A84491FD56F94C5C97FB801DFEFABBAD","019cf80f-877b-75af-9d59-dda2cc5c076a","019cf80d-4266-7117-8a51-54e13c84aca4","","381","
                <div class=""stimulus-container"">
                    <img src=""images/schematic_sequence/flight_scheme/flight_scheme_4.png"" class=""exp-image"">
                    <div class=""question-area"">
                        <p style=""font-size: 20px; font-weight: bold; margin: 0;"">Is there a person in this image?</p>
                    </div>
                </div>","0","main_experiment_trial","4","flight_scheme","schematic_sequence","","","","",""
"","","","","","html-keyboard-response","67","256631","0.0-67.0","A84491FD56F94C5C97FB801DFEFABBAD","019cf80f-877b-75af-9d59-dda2cc5c076a","019cf80d-4266-7117-8a51-54e13c84aca4","","null","
                <div class=""stimulus-container"">
                    <img src=""images/schematic_sequence/flight_scheme/flight_scheme_5.png"" class=""exp-image"">
                    <div class=""question-area""></div> 
                </div>","null","","","","","","","","",""
"","","","","","html-button-response","68","257069","0.0-68.0","A84491FD56F94C5C97FB801DFEFABBAD","019cf80f-877b-75af-9d59-dda2cc5c076a","019cf80d-4266-7117-8a51-54e13c84aca4","","438","
                <div class=""stimulus-container"">
                    <img src=""images/schematic_sequence/flight_scheme/flight_scheme_5.png"" class=""exp-image"">
                    <div class=""question-area"">
                        <p style=""font-size: 20px; font-weight: bold; margin: 0;"">Is there a person in this image?</p>
                    </div>
                </div>","0","main_experiment_trial","5","flight_scheme","schematic_sequence","","","","",""
"","","","","","html-keyboard-response","69","262625","0.0-69.0","A84491FD56F94C5C97FB801DFEFABBAD","019cf80f-877b-75af-9d59-dda2cc5c076a","019cf80d-4266-7117-8a51-54e13c84aca4","","null","
                <div class=""stimulus-container"">
                    <img src=""images/schematic_sequence/flight_scheme/flight_scheme_6.png"" class=""exp-image"">
                    <div class=""question-area""></div> 
                </div>","null","","","","","","","","",""
"","","","","","html-button-response","70","263070","0.0-70.0","A84491FD56F94C5C97FB801DFEFABBAD","019cf80f-877b-75af-9d59-dda2cc5c076a","019cf80d-4266-7117-8a51-54e13c84aca4","","444","
                <div class=""stimulus-container"">
                    <img src=""images/schematic_sequence/flight_scheme/flight_scheme_6.png"" class=""exp-image"">
                    <div class=""question-area"">
                        <p style=""font-size: 20px; font-weight: bold; margin: 0;"">Is there a person in this image?</p>
                    </div>
                </div>","1","main_experiment_trial","6","flight_scheme","schematic_sequence","","","","",""
"","","","","","html-keyboard-response","71","268071","0.0-71.0","A84491FD56F94C5C97FB801DFEFABBAD","019cf80f-877b-75af-9d59-dda2cc5c076a","019cf80d-4266-7117-8a51-54e13c84aca4","","null","
                <div class=""stimulus-container"">
                    <img src=""images/schematic_sequence/flight_scheme/flight_scheme_7.png"" class=""exp-image"">
                    <div class=""question-area""></div> 
                </div>","null","","","","","","","","",""
"","","","","","html-button-response","72","268578","0.0-72.0","A84491FD56F94C5C97FB801DFEFABBAD","019cf80f-877b-75af-9d59-dda2cc5c076a","019cf80d-4266-7117-8a51-54e13c84aca4","","506","
                <div class=""stimulus-container"">
                    <img src=""images/schematic_sequence/flight_scheme/flight_scheme_7.png"" class=""exp-image"">
                    <div class=""question-area"">
                        <p style=""font-size: 20px; font-weight: bold; margin: 0;"">Is there a person in this image?</p>
                    </div>
                </div>","1","main_experiment_trial","7","flight_scheme","schematic_sequence","","","","",""
"","","","","","html-keyboard-response","73","273690","0.0-73.0","A84491FD56F94C5C97FB801DFEFABBAD","019cf80f-877b-75af-9d59-dda2cc5c076a","019cf80d-4266-7117-8a51-54e13c84aca4","","null","
                <div class=""stimulus-container"">
                    <img src=""images/schematic_sequence/flight_scheme/flight_scheme_8.png"" class=""exp-image"">
                    <div class=""question-area""></div> 
                </div>","null","","","","","","","","",""
"","","","","","html-button-response","74","274161","0.0-74.0","A84491FD56F94C5C97FB801DFEFABBAD","019cf80f-877b-75af-9d59-dda2cc5c076a","019cf80d-4266-7117-8a51-54e13c84aca4","","471","
                <div class=""stimulus-container"">
                    <img src=""images/schematic_sequence/flight_scheme/flight_scheme_8.png"" class=""exp-image"">
                    <div class=""question-area"">
                        <p style=""font-size: 20px; font-weight: bold; margin: 0;"">Is there a person in this image?</p>
                    </div>
                </div>","1","main_experiment_trial","8","flight_scheme","schematic_sequence","","","","",""
"","","","","","html-keyboard-response","75","279222","0.0-75.0","A84491FD56F94C5C97FB801DFEFABBAD","019cf80f-877b-75af-9d59-dda2cc5c076a","019cf80d-4266-7117-8a51-54e13c84aca4","","null","
                <div class=""stimulus-container"">
                    <img src=""images/schematic_sequence/flight_scheme/flight_scheme_9.png"" class=""exp-image"">
                    <div class=""question-area""></div> 
                </div>","null","","","","","","","","",""
"","","","","","html-button-response","76","280346","0.0-76.0","A84491FD56F94C5C97FB801DFEFABBAD","019cf80f-877b-75af-9d59-dda2cc5c076a","019cf80d-4266-7117-8a51-54e13c84aca4","","1124","
                <div class=""stimulus-container"">
                    <img src=""images/schematic_sequence/flight_scheme/flight_scheme_9.png"" class=""exp-image"">
                    <div class=""question-area"">
                        <p style=""font-size: 20px; font-weight: bold; margin: 0;"">Is there a person in this image?</p>
                    </div>
                </div>","0","main_experiment_trial","9","flight_scheme","schematic_sequence","","","","",""
"","","","","","html-keyboard-response","77","285410","0.0-77.0","A84491FD56F94C5C97FB801DFEFABBAD","019cf80f-877b-75af-9d59-dda2cc5c076a","019cf80d-4266-7117-8a51-54e13c84aca4","","null","
                <div class=""stimulus-container"">
                    <img src=""images/schematic_sequence/flight_scheme/flight_scheme_ten.png"" class=""exp-image"">
                    <div class=""question-area""></div> 
                </div>","null","","","","","","","","",""
"","","","","","html-button-response","78","286157","0.0-78.0","A84491FD56F94C5C97FB801DFEFABBAD","019cf80f-877b-75af-9d59-dda2cc5c076a","019cf80d-4266-7117-8a51-54e13c84aca4","","747","
                <div class=""stimulus-container"">
                    <img src=""images/schematic_sequence/flight_scheme/flight_scheme_ten.png"" class=""exp-image"">
                    <div class=""question-area"">
                        <p style=""font-size: 20px; font-weight: bold; margin: 0;"">Is there a person in this image?</p>
                    </div>
                </div>","0","main_experiment_trial","ten","flight_scheme","schematic_sequence","","","","",""
"","","","","","html-keyboard-response","79","287159","0.0-79.0","A84491FD56F94C5C97FB801DFEFABBAD","019cf80f-877b-75af-9d59-dda2cc5c076a","019cf80d-4266-7117-8a51-54e13c84aca4","","null","<div style=""background-color: white; width: 100vw; height: 100vh;""></div>","null","","","","","","","","",""
"","","","","","html-keyboard-response","80","292159","0.0-80.0","A84491FD56F94C5C97FB801DFEFABBAD","019cf80f-877b-75af-9d59-dda2cc5c076a","019cf80d-4266-7117-8a51-54e13c84aca4","","null","
                <div class=""stimulus-container"">
                    <img src=""images/schematic_sequence/restaurant_scheme/restaurant_scheme_1.png"" class=""exp-image"">
                    <div class=""question-area""></div> 
                </div>","null","","","","","","","","",""
"","","","","","html-button-response","81","292849","0.0-81.0","A84491FD56F94C5C97FB801DFEFABBAD","019cf80f-877b-75af-9d59-dda2cc5c076a","019cf80d-4266-7117-8a51-54e13c84aca4","","690","
                <div class=""stimulus-container"">
                    <img src=""images/schematic_sequence/restaurant_scheme/restaurant_scheme_1.png"" class=""exp-image"">
                    <div class=""question-area"">
                        <p style=""font-size: 20px; font-weight: bold; margin: 0;"">Is there a person in this image?</p>
                    </div>
                </div>","0","main_experiment_trial","1","restaurant_scheme","schematic_sequence","","","","",""
"","","","","","html-keyboard-response","82","297851","0.0-82.0","A84491FD56F94C5C97FB801DFEFABBAD","019cf80f-877b-75af-9d59-dda2cc5c076a","019cf80d-4266-7117-8a51-54e13c84aca4","","null","
                <div class=""stimulus-container"">
                    <img src=""images/schematic_sequence/restaurant_scheme/restaurant_scheme_2.png"" class=""exp-image"">
                    <div class=""question-area""></div> 
                </div>","null","","","","","","","","",""
"","","","","","html-button-response","83","298273","0.0-83.0","A84491FD56F94C5C97FB801DFEFABBAD","019cf80f-877b-75af-9d59-dda2cc5c076a","019cf80d-4266-7117-8a51-54e13c84aca4","","422","
                <div class=""stimulus-container"">
                    <img src=""images/schematic_sequence/restaurant_scheme/restaurant_scheme_2.png"" class=""exp-image"">
                    <div class=""question-area"">
                        <p style=""font-size: 20px; font-weight: bold; margin: 0;"">Is there a person in this image?</p>
                    </div>
                </div>","1","main_experiment_trial","2","restaurant_scheme","schematic_sequence","","","","",""
"","","","","","html-keyboard-response","84","303287","0.0-84.0","A84491FD56F94C5C97FB801DFEFABBAD","019cf80f-877b-75af-9d59-dda2cc5c076a","019cf80d-4266-7117-8a51-54e13c84aca4","","null","
                <div class=""stimulus-container"">
                    <img src=""images/schematic_sequence/restaurant_scheme/restaurant_scheme_3.png"" class=""exp-image"">
                    <div class=""question-area""></div> 
                </div>","null","","","","","","","","",""
"","","","","","html-button-response","85","303766","0.0-85.0","A84491FD56F94C5C97FB801DFEFABBAD","019cf80f-877b-75af-9d59-dda2cc5c076a","019cf80d-4266-7117-8a51-54e13c84aca4","","477","
                <div class=""stimulus-container"">
                    <img src=""images/schematic_sequence/restaurant_scheme/restaurant_scheme_3.png"" class=""exp-image"">
                    <div class=""question-area"">
                        <p style=""font-size: 20px; font-weight: bold; margin: 0;"">Is there a person in this image?</p>
                    </div>
                </div>","1","main_experiment_trial","3","restaurant_scheme","schematic_sequence","","","","",""
"","","","","","html-keyboard-response","86","308767","0.0-86.0","A84491FD56F94C5C97FB801DFEFABBAD","019cf80f-877b-75af-9d59-dda2cc5c076a","019cf80d-4266-7117-8a51-54e13c84aca4","","null","
                <div class=""stimulus-container"">
                    <img src=""images/schematic_sequence/restaurant_scheme/restaurant_scheme_4.png"" class=""exp-image"">
                    <div class=""question-area""></div> 
                </div>","null","","","","","","","","",""
"","","","","","html-button-response","87","309208","0.0-87.0","A84491FD56F94C5C97FB801DFEFABBAD","019cf80f-877b-75af-9d59-dda2cc5c076a","019cf80d-4266-7117-8a51-54e13c84aca4","","441","
                <div class=""stimulus-container"">
                    <img src=""images/schematic_sequence/restaurant_scheme/restaurant_scheme_4.png"" class=""exp-image"">
                    <div class=""question-area"">
                        <p style=""font-size: 20px; font-weight: bold; margin: 0;"">Is there a person in this image?</p>
                    </div>
                </div>","0","main_experiment_trial","4","restaurant_scheme","schematic_sequence","","","","",""
"","","","","","html-keyboard-response","88","314209","0.0-88.0","A84491FD56F94C5C97FB801DFEFABBAD","019cf80f-877b-75af-9d59-dda2cc5c076a","019cf80d-4266-7117-8a51-54e13c84aca4","","null","
                <div class=""stimulus-container"">
                    <img src=""images/schematic_sequence/restaurant_scheme/restaurant_scheme_5.png"" class=""exp-image"">
                    <div class=""question-area""></div> 
                </div>","null","","","","","","","","",""
"","","","","","html-button-response","89","314662","0.0-89.0","A84491FD56F94C5C97FB801DFEFABBAD","019cf80f-877b-75af-9d59-dda2cc5c076a","019cf80d-4266-7117-8a51-54e13c84aca4","","452","
                <div class=""stimulus-container"">
                    <img src=""images/schematic_sequence/restaurant_scheme/restaurant_scheme_5.png"" class=""exp-image"">
                    <div class=""question-area"">
                        <p style=""font-size: 20px; font-weight: bold; margin: 0;"">Is there a person in this image?</p>
                    </div>
                </div>","0","main_experiment_trial","5","restaurant_scheme","schematic_sequence","","","","",""
"","","","","","html-keyboard-response","90","319932","0.0-90.0","A84491FD56F94C5C97FB801DFEFABBAD","019cf80f-877b-75af-9d59-dda2cc5c076a","019cf80d-4266-7117-8a51-54e13c84aca4","","null","
                <div class=""stimulus-container"">
                    <img src=""images/schematic_sequence/restaurant_scheme/restaurant_scheme_6.png"" class=""exp-image"">
                    <div class=""question-area""></div> 
                </div>","null","","","","","","","","",""
"","","","","","html-button-response","91","320661","0.0-91.0","A84491FD56F94C5C97FB801DFEFABBAD","019cf80f-877b-75af-9d59-dda2cc5c076a","019cf80d-4266-7117-8a51-54e13c84aca4","","728","
                <div class=""stimulus-container"">
                    <img src=""images/schematic_sequence/restaurant_scheme/restaurant_scheme_6.png"" class=""exp-image"">
                    <div class=""question-area"">
                        <p style=""font-size: 20px; font-weight: bold; margin: 0;"">Is there a person in this image?</p>
                    </div>
                </div>","1","main_experiment_trial","6","restaurant_scheme","schematic_sequence","","","","",""
"","","","","","html-keyboard-response","92","325662","0.0-92.0","A84491FD56F94C5C97FB801DFEFABBAD","019cf80f-877b-75af-9d59-dda2cc5c076a","019cf80d-4266-7117-8a51-54e13c84aca4","","null","
                <div class=""stimulus-container"">
                    <img src=""images/schematic_sequence/restaurant_scheme/restaurant_scheme_7.png"" class=""exp-image"">
                    <div class=""question-area""></div> 
                </div>","null","","","","","","","","",""
"","","","","","html-button-response","93","326148","0.0-93.0","A84491FD56F94C5C97FB801DFEFABBAD","019cf80f-877b-75af-9d59-dda2cc5c076a","019cf80d-4266-7117-8a51-54e13c84aca4","","486","
                <div class=""stimulus-container"">
                    <img src=""images/schematic_sequence/restaurant_scheme/restaurant_scheme_7.png"" class=""exp-image"">
                    <div class=""question-area"">
                        <p style=""font-size: 20px; font-weight: bold; margin: 0;"">Is there a person in this image?</p>
                    </div>
                </div>","1","main_experiment_trial","7","restaurant_scheme","schematic_sequence","","","","",""
"","","","","","html-keyboard-response","94","331266","0.0-94.0","A84491FD56F94C5C97FB801DFEFABBAD","019cf80f-877b-75af-9d59-dda2cc5c076a","019cf80d-4266-7117-8a51-54e13c84aca4","","null","
                <div class=""stimulus-container"">
                    <img src=""images/schematic_sequence/restaurant_scheme/restaurant_scheme_8.png"" class=""exp-image"">
                    <div class=""question-area""></div> 
                </div>","null","","","","","","","","",""
"","","","","","html-button-response","95","332456","0.0-95.0","A84491FD56F94C5C97FB801DFEFABBAD","019cf80f-877b-75af-9d59-dda2cc5c076a","019cf80d-4266-7117-8a51-54e13c84aca4","","1190","
                <div class=""stimulus-container"">
                    <img src=""images/schematic_sequence/restaurant_scheme/restaurant_scheme_8.png"" class=""exp-image"">
                    <div class=""question-area"">
                        <p style=""font-size: 20px; font-weight: bold; margin: 0;"">Is there a person in this image?</p>
                    </div>
                </div>","1","main_experiment_trial","8","restaurant_scheme","schematic_sequence","","","","",""
"","","","","","html-keyboard-response","96","337458","0.0-96.0","A84491FD56F94C5C97FB801DFEFABBAD","019cf80f-877b-75af-9d59-dda2cc5c076a","019cf80d-4266-7117-8a51-54e13c84aca4","","null","
                <div class=""stimulus-container"">
                    <img src=""images/schematic_sequence/restaurant_scheme/restaurant_scheme_9.png"" class=""exp-image"">
                    <div class=""question-area""></div> 
                </div>","null","","","","","","","","",""
"","","","","","html-button-response","97","338805","0.0-97.0","A84491FD56F94C5C97FB801DFEFABBAD","019cf80f-877b-75af-9d59-dda2cc5c076a","019cf80d-4266-7117-8a51-54e13c84aca4","","1346","
                <div class=""stimulus-container"">
                    <img src=""images/schematic_sequence/restaurant_scheme/restaurant_scheme_9.png"" class=""exp-image"">
                    <div class=""question-area"">
                        <p style=""font-size: 20px; font-weight: bold; margin: 0;"">Is there a person in this image?</p>
                    </div>
                </div>","0","main_experiment_trial","9","restaurant_scheme","schematic_sequence","","","","",""
"","","","","","html-keyboard-response","98","343820","0.0-98.0","A84491FD56F94C5C97FB801DFEFABBAD","019cf80f-877b-75af-9d59-dda2cc5c076a","019cf80d-4266-7117-8a51-54e13c84aca4","","null","
                <div class=""stimulus-container"">
                    <img src=""images/schematic_sequence/restaurant_scheme/restaurant_scheme_ten.png"" class=""exp-image"">
                    <div class=""question-area""></div> 
                </div>","null","","","","","","","","",""
"","","","","","html-button-response","99","344897","0.0-99.0","A84491FD56F94C5C97FB801DFEFABBAD","019cf80f-877b-75af-9d59-dda2cc5c076a","019cf80d-4266-7117-8a51-54e13c84aca4","","1076","
                <div class=""stimulus-container"">
                    <img src=""images/schematic_sequence/restaurant_scheme/restaurant_scheme_ten.png"" class=""exp-image"">
                    <div class=""question-area"">
                        <p style=""font-size: 20px; font-weight: bold; margin: 0;"">Is there a person in this image?</p>
                    </div>
                </div>","0","main_experiment_trial","ten","restaurant_scheme","schematic_sequence","","","","",""
"","","","","","html-keyboard-response","100","345898","0.0-100.0","A84491FD56F94C5C97FB801DFEFABBAD","019cf80f-877b-75af-9d59-dda2cc5c076a","019cf80d-4266-7117-8a51-54e13c84aca4","","null","<div style=""background-color: white; width: 100vw; height: 100vh;""></div>","null","","","","","","","","",""
"","","","","","html-keyboard-response","101","350904","0.0-101.0","A84491FD56F94C5C97FB801DFEFABBAD","019cf80f-877b-75af-9d59-dda2cc5c076a","019cf80d-4266-7117-8a51-54e13c84aca4","","null","
                <div class=""stimulus-container"">
                    <img src=""images/semantic_sequence/visiting_cities_semantic/visiting_cities_semantic_1.png"" class=""exp-image"">
                    <div class=""question-area""></div> 
                </div>","null","","","","","","","","",""
"","","","","","html-button-response","102","351660","0.0-102.0","A84491FD56F94C5C97FB801DFEFABBAD","019cf80f-877b-75af-9d59-dda2cc5c076a","019cf80d-4266-7117-8a51-54e13c84aca4","","756","
                <div class=""stimulus-container"">
                    <img src=""images/semantic_sequence/visiting_cities_semantic/visiting_cities_semantic_1.png"" class=""exp-image"">
                    <div class=""question-area"">
                        <p style=""font-size: 20px; font-weight: bold; margin: 0;"">Is there a person in this image?</p>
                    </div>
                </div>","0","main_experiment_trial","1","visiting_cities_semantic","semantic_sequence","","","","",""
"","","","","","html-keyboard-response","103","356661","0.0-103.0","A84491FD56F94C5C97FB801DFEFABBAD","019cf80f-877b-75af-9d59-dda2cc5c076a","019cf80d-4266-7117-8a51-54e13c84aca4","","null","
                <div class=""stimulus-container"">
                    <img src=""images/semantic_sequence/visiting_cities_semantic/visiting_cities_semantic_2.png"" class=""exp-image"">
                    <div class=""question-area""></div> 
                </div>","null","","","","","","","","",""
"","","","","","html-button-response","104","357624","0.0-104.0","A84491FD56F94C5C97FB801DFEFABBAD","019cf80f-877b-75af-9d59-dda2cc5c076a","019cf80d-4266-7117-8a51-54e13c84aca4","","962","
                <div class=""stimulus-container"">
                    <img src=""images/semantic_sequence/visiting_cities_semantic/visiting_cities_semantic_2.png"" class=""exp-image"">
                    <div class=""question-area"">
                        <p style=""font-size: 20px; font-weight: bold; margin: 0;"">Is there a person in this image?</p>
                    </div>
                </div>","1","main_experiment_trial","2","visiting_cities_semantic","semantic_sequence","","","","",""
"","","","","","html-keyboard-response","105","362664","0.0-105.0","A84491FD56F94C5C97FB801DFEFABBAD","019cf80f-877b-75af-9d59-dda2cc5c076a","019cf80d-4266-7117-8a51-54e13c84aca4","","null","
                <div class=""stimulus-container"">
                    <img src=""images/semantic_sequence/visiting_cities_semantic/visiting_cities_semantic_3.png"" class=""exp-image"">
                    <div class=""question-area""></div> 
                </div>","null","","","","","","","","",""
"","","","","","html-button-response","106","363168","0.0-106.0","A84491FD56F94C5C97FB801DFEFABBAD","019cf80f-877b-75af-9d59-dda2cc5c076a","019cf80d-4266-7117-8a51-54e13c84aca4","","503","
                <div class=""stimulus-container"">
                    <img src=""images/semantic_sequence/visiting_cities_semantic/visiting_cities_semantic_3.png"" class=""exp-image"">
                    <div class=""question-area"">
                        <p style=""font-size: 20px; font-weight: bold; margin: 0;"">Is there a person in this image?</p>
                    </div>
                </div>","1","main_experiment_trial","3","visiting_cities_semantic","semantic_sequence","","","","",""
"","","","","","html-keyboard-response","107","368169","0.0-107.0","A84491FD56F94C5C97FB801DFEFABBAD","019cf80f-877b-75af-9d59-dda2cc5c076a","019cf80d-4266-7117-8a51-54e13c84aca4","","null","
                <div class=""stimulus-container"">
                    <img src=""images/semantic_sequence/visiting_cities_semantic/visiting_cities_semantic_4.png"" class=""exp-image"">
                    <div class=""question-area""></div> 
                </div>","null","","","","","","","","",""
"","","","","","html-button-response","108","368588","0.0-108.0","A84491FD56F94C5C97FB801DFEFABBAD","019cf80f-877b-75af-9d59-dda2cc5c076a","019cf80d-4266-7117-8a51-54e13c84aca4","","418","
                <div class=""stimulus-container"">
                    <img src=""images/semantic_sequence/visiting_cities_semantic/visiting_cities_semantic_4.png"" class=""exp-image"">
                    <div class=""question-area"">
                        <p style=""font-size: 20px; font-weight: bold; margin: 0;"">Is there a person in this image?</p>
                    </div>
                </div>","1","main_experiment_trial","4","visiting_cities_semantic","semantic_sequence","","","","",""
"","","","","","html-keyboard-response","109","373681","0.0-109.0","A84491FD56F94C5C97FB801DFEFABBAD","019cf80f-877b-75af-9d59-dda2cc5c076a","019cf80d-4266-7117-8a51-54e13c84aca4","","null","
                <div class=""stimulus-container"">
                    <img src=""images/semantic_sequence/visiting_cities_semantic/visiting_cities_semantic_5.png"" class=""exp-image"">
                    <div class=""question-area""></div> 
                </div>","null","","","","","","","","",""
"","","","","","html-button-response","110","374726","0.0-110.0","A84491FD56F94C5C97FB801DFEFABBAD","019cf80f-877b-75af-9d59-dda2cc5c076a","019cf80d-4266-7117-8a51-54e13c84aca4","","1044","
                <div class=""stimulus-container"">
                    <img src=""images/semantic_sequence/visiting_cities_semantic/visiting_cities_semantic_5.png"" class=""exp-image"">
                    <div class=""question-area"">
                        <p style=""font-size: 20px; font-weight: bold; margin: 0;"">Is there a person in this image?</p>
                    </div>
                </div>","1","main_experiment_trial","5","visiting_cities_semantic","semantic_sequence","","","","",""
"","","","","","html-keyboard-response","111","379892","0.0-111.0","A84491FD56F94C5C97FB801DFEFABBAD","019cf80f-877b-75af-9d59-dda2cc5c076a","019cf80d-4266-7117-8a51-54e13c84aca4","","null","
                <div class=""stimulus-container"">
                    <img src=""images/semantic_sequence/visiting_cities_semantic/visiting_cities_semantic_6.png"" class=""exp-image"">
                    <div class=""question-area""></div> 
                </div>","null","","","","","","","","",""
"","","","","","html-button-response","112","381885","0.0-112.0","A84491FD56F94C5C97FB801DFEFABBAD","019cf80f-877b-75af-9d59-dda2cc5c076a","019cf80d-4266-7117-8a51-54e13c84aca4","","1993","
                <div class=""stimulus-container"">
                    <img src=""images/semantic_sequence/visiting_cities_semantic/visiting_cities_semantic_6.png"" class=""exp-image"">
                    <div class=""question-area"">
                        <p style=""font-size: 20px; font-weight: bold; margin: 0;"">Is there a person in this image?</p>
                    </div>
                </div>","1","main_experiment_trial","6","visiting_cities_semantic","semantic_sequence","","","","",""
"","","","","","html-keyboard-response","113","386886","0.0-113.0","A84491FD56F94C5C97FB801DFEFABBAD","019cf80f-877b-75af-9d59-dda2cc5c076a","019cf80d-4266-7117-8a51-54e13c84aca4","","null","
                <div class=""stimulus-container"">
                    <img src=""images/semantic_sequence/visiting_cities_semantic/visiting_cities_semantic_7.png"" class=""exp-image"">
                    <div class=""question-area""></div> 
                </div>","null","","","","","","","","",""
"","","","","","html-button-response","114","387913","0.0-114.0","A84491FD56F94C5C97FB801DFEFABBAD","019cf80f-877b-75af-9d59-dda2cc5c076a","019cf80d-4266-7117-8a51-54e13c84aca4","","1026","
                <div class=""stimulus-container"">
                    <img src=""images/semantic_sequence/visiting_cities_semantic/visiting_cities_semantic_7.png"" class=""exp-image"">
                    <div class=""question-area"">
                        <p style=""font-size: 20px; font-weight: bold; margin: 0;"">Is there a person in this image?</p>
                    </div>
                </div>","0","main_experiment_trial","7","visiting_cities_semantic","semantic_sequence","","","","",""
"","","","","","html-keyboard-response","115","392916","0.0-115.0","A84491FD56F94C5C97FB801DFEFABBAD","019cf80f-877b-75af-9d59-dda2cc5c076a","019cf80d-4266-7117-8a51-54e13c84aca4","","null","
                <div class=""stimulus-container"">
                    <img src=""images/semantic_sequence/visiting_cities_semantic/visiting_cities_semantic_8.png"" class=""exp-image"">
                    <div class=""question-area""></div> 
                </div>","null","","","","","","","","",""
"","","","","","html-button-response","116","393524","0.0-116.0","A84491FD56F94C5C97FB801DFEFABBAD","019cf80f-877b-75af-9d59-dda2cc5c076a","019cf80d-4266-7117-8a51-54e13c84aca4","","607","
                <div class=""stimulus-container"">
                    <img src=""images/semantic_sequence/visiting_cities_semantic/visiting_cities_semantic_8.png"" class=""exp-image"">
                    <div class=""question-area"">
                        <p style=""font-size: 20px; font-weight: bold; margin: 0;"">Is there a person in this image?</p>
                    </div>
                </div>","0","main_experiment_trial","8","visiting_cities_semantic","semantic_sequence","","","","",""
"","","","","","html-keyboard-response","117","398525","0.0-117.0","A84491FD56F94C5C97FB801DFEFABBAD","019cf80f-877b-75af-9d59-dda2cc5c076a","019cf80d-4266-7117-8a51-54e13c84aca4","","null","
                <div class=""stimulus-container"">
                    <img src=""images/semantic_sequence/visiting_cities_semantic/visiting_cities_semantic_9.png"" class=""exp-image"">
                    <div class=""question-area""></div> 
                </div>","null","","","","","","","","",""
"","","","","","html-button-response","118","399077","0.0-118.0","A84491FD56F94C5C97FB801DFEFABBAD","019cf80f-877b-75af-9d59-dda2cc5c076a","019cf80d-4266-7117-8a51-54e13c84aca4","","551","
                <div class=""stimulus-container"">
                    <img src=""images/semantic_sequence/visiting_cities_semantic/visiting_cities_semantic_9.png"" class=""exp-image"">
                    <div class=""question-area"">
                        <p style=""font-size: 20px; font-weight: bold; margin: 0;"">Is there a person in this image?</p>
                    </div>
                </div>","0","main_experiment_trial","9","visiting_cities_semantic","semantic_sequence","","","","",""
"","","","","","html-keyboard-response","119","404280","0.0-119.0","A84491FD56F94C5C97FB801DFEFABBAD","019cf80f-877b-75af-9d59-dda2cc5c076a","019cf80d-4266-7117-8a51-54e13c84aca4","","null","
                <div class=""stimulus-container"">
                    <img src=""images/semantic_sequence/visiting_cities_semantic/visiting_cities_semantic_ten.png"" class=""exp-image"">
                    <div class=""question-area""></div> 
                </div>","null","","","","","","","","",""
"","","","","","html-button-response","120","404875","0.0-120.0","A84491FD56F94C5C97FB801DFEFABBAD","019cf80f-877b-75af-9d59-dda2cc5c076a","019cf80d-4266-7117-8a51-54e13c84aca4","","594","
                <div class=""stimulus-container"">
                    <img src=""images/semantic_sequence/visiting_cities_semantic/visiting_cities_semantic_ten.png"" class=""exp-image"">
                    <div class=""question-area"">
                        <p style=""font-size: 20px; font-weight: bold; margin: 0;"">Is there a person in this image?</p>
                    </div>
                </div>","0","main_experiment_trial","ten","visiting_cities_semantic","semantic_sequence","","","","",""
"","","","","","html-keyboard-response","121","405876","0.0-121.0","A84491FD56F94C5C97FB801DFEFABBAD","019cf80f-877b-75af-9d59-dda2cc5c076a","019cf80d-4266-7117-8a51-54e13c84aca4","","null","<div style=""background-color: white; width: 100vw; height: 100vh;""></div>","null","","","","","","","","",""
"","","","","","html-keyboard-response","122","410981","0.0-122.0","A84491FD56F94C5C97FB801DFEFABBAD","019cf80f-877b-75af-9d59-dda2cc5c076a","019cf80d-4266-7117-8a51-54e13c84aca4","","null","
                <div class=""stimulus-container"">
                    <img src=""images/schematic_sequence/dinner_party_scheme/dinner_party_scheme_1.png"" class=""exp-image"">
                    <div class=""question-area""></div> 
                </div>","null","","","","","","","","",""
"","","","","","html-button-response","123","411652","0.0-123.0","A84491FD56F94C5C97FB801DFEFABBAD","019cf80f-877b-75af-9d59-dda2cc5c076a","019cf80d-4266-7117-8a51-54e13c84aca4","","672","
                <div class=""stimulus-container"">
                    <img src=""images/schematic_sequence/dinner_party_scheme/dinner_party_scheme_1.png"" class=""exp-image"">
                    <div class=""question-area"">
                        <p style=""font-size: 20px; font-weight: bold; margin: 0;"">Is there a person in this image?</p>
                    </div>
                </div>","0","main_experiment_trial","1","dinner_party_scheme","schematic_sequence","","","","",""
"","","","","","html-keyboard-response","124","416653","0.0-124.0","A84491FD56F94C5C97FB801DFEFABBAD","019cf80f-877b-75af-9d59-dda2cc5c076a","019cf80d-4266-7117-8a51-54e13c84aca4","","null","
                <div class=""stimulus-container"">
                    <img src=""images/schematic_sequence/dinner_party_scheme/dinner_party_scheme_2.png"" class=""exp-image"">
                    <div class=""question-area""></div> 
                </div>","null","","","","","","","","",""
"","","","","","html-button-response","125","417301","0.0-125.0","A84491FD56F94C5C97FB801DFEFABBAD","019cf80f-877b-75af-9d59-dda2cc5c076a","019cf80d-4266-7117-8a51-54e13c84aca4","","647","
                <div class=""stimulus-container"">
                    <img src=""images/schematic_sequence/dinner_party_scheme/dinner_party_scheme_2.png"" class=""exp-image"">
                    <div class=""question-area"">
                        <p style=""font-size: 20px; font-weight: bold; margin: 0;"">Is there a person in this image?</p>
                    </div>
                </div>","0","main_experiment_trial","2","dinner_party_scheme","schematic_sequence","","","","",""
"","","","","","html-keyboard-response","126","422311","0.0-126.0","A84491FD56F94C5C97FB801DFEFABBAD","019cf80f-877b-75af-9d59-dda2cc5c076a","019cf80d-4266-7117-8a51-54e13c84aca4","","null","
                <div class=""stimulus-container"">
                    <img src=""images/schematic_sequence/dinner_party_scheme/dinner_party_scheme_3.png"" class=""exp-image"">
                    <div class=""question-area""></div> 
                </div>","null","","","","","","","","",""
"","","","","","html-button-response","127","422765","0.0-127.0","A84491FD56F94C5C97FB801DFEFABBAD","019cf80f-877b-75af-9d59-dda2cc5c076a","019cf80d-4266-7117-8a51-54e13c84aca4","","453","
                <div class=""stimulus-container"">
                    <img src=""images/schematic_sequence/dinner_party_scheme/dinner_party_scheme_3.png"" class=""exp-image"">
                    <div class=""question-area"">
                        <p style=""font-size: 20px; font-weight: bold; margin: 0;"">Is there a person in this image?</p>
                    </div>
                </div>","0","main_experiment_trial","3","dinner_party_scheme","schematic_sequence","","","","",""
"","","","","","html-keyboard-response","128","427765","0.0-128.0","A84491FD56F94C5C97FB801DFEFABBAD","019cf80f-877b-75af-9d59-dda2cc5c076a","019cf80d-4266-7117-8a51-54e13c84aca4","","null","
                <div class=""stimulus-container"">
                    <img src=""images/schematic_sequence/dinner_party_scheme/dinner_party_scheme_4.png"" class=""exp-image"">
                    <div class=""question-area""></div> 
                </div>","null","","","","","","","","",""
"","","","","","html-button-response","129","428524","0.0-129.0","A84491FD56F94C5C97FB801DFEFABBAD","019cf80f-877b-75af-9d59-dda2cc5c076a","019cf80d-4266-7117-8a51-54e13c84aca4","","758","
                <div class=""stimulus-container"">
                    <img src=""images/schematic_sequence/dinner_party_scheme/dinner_party_scheme_4.png"" class=""exp-image"">
                    <div class=""question-area"">
                        <p style=""font-size: 20px; font-weight: bold; margin: 0;"">Is there a person in this image?</p>
                    </div>
                </div>","0","main_experiment_trial","4","dinner_party_scheme","schematic_sequence","","","","",""
"","","","","","html-keyboard-response","130","433635","0.0-130.0","A84491FD56F94C5C97FB801DFEFABBAD","019cf80f-877b-75af-9d59-dda2cc5c076a","019cf80d-4266-7117-8a51-54e13c84aca4","","null","
                <div class=""stimulus-container"">
                    <img src=""images/schematic_sequence/dinner_party_scheme/dinner_party_scheme_5.png"" class=""exp-image"">
                    <div class=""question-area""></div> 
                </div>","null","","","","","","","","",""
"","","","","","html-button-response","131","434292","0.0-131.0","A84491FD56F94C5C97FB801DFEFABBAD","019cf80f-877b-75af-9d59-dda2cc5c076a","019cf80d-4266-7117-8a51-54e13c84aca4","","656","
                <div class=""stimulus-container"">
                    <img src=""images/schematic_sequence/dinner_party_scheme/dinner_party_scheme_5.png"" class=""exp-image"">
                    <div class=""question-area"">
                        <p style=""font-size: 20px; font-weight: bold; margin: 0;"">Is there a person in this image?</p>
                    </div>
                </div>","0","main_experiment_trial","5","dinner_party_scheme","schematic_sequence","","","","",""
"","","","","","html-keyboard-response","132","439332","0.0-132.0","A84491FD56F94C5C97FB801DFEFABBAD","019cf80f-877b-75af-9d59-dda2cc5c076a","019cf80d-4266-7117-8a51-54e13c84aca4","","null","
                <div class=""stimulus-container"">
                    <img src=""images/schematic_sequence/dinner_party_scheme/dinner_party_scheme_6.png"" class=""exp-image"">
                    <div class=""question-area""></div> 
                </div>","null","","","","","","","","",""
"","","","","","html-button-response","133","440848","0.0-133.0","A84491FD56F94C5C97FB801DFEFABBAD","019cf80f-877b-75af-9d59-dda2cc5c076a","019cf80d-4266-7117-8a51-54e13c84aca4","","1516","
                <div class=""stimulus-container"">
                    <img src=""images/schematic_sequence/dinner_party_scheme/dinner_party_scheme_6.png"" class=""exp-image"">
                    <div class=""question-area"">
                        <p style=""font-size: 20px; font-weight: bold; margin: 0;"">Is there a person in this image?</p>
                    </div>
                </div>","0","main_experiment_trial","6","dinner_party_scheme","schematic_sequence","","","","",""
"","","","","","html-keyboard-response","134","445859","0.0-134.0","A84491FD56F94C5C97FB801DFEFABBAD","019cf80f-877b-75af-9d59-dda2cc5c076a","019cf80d-4266-7117-8a51-54e13c84aca4","","null","
                <div class=""stimulus-container"">
                    <img src=""images/schematic_sequence/dinner_party_scheme/dinner_party_scheme_7.png"" class=""exp-image"">
                    <div class=""question-area""></div> 
                </div>","null","","","","","","","","",""
"","","","","","html-button-response","135","446420","0.0-135.0","A84491FD56F94C5C97FB801DFEFABBAD","019cf80f-877b-75af-9d59-dda2cc5c076a","019cf80d-4266-7117-8a51-54e13c84aca4","","561","
                <div class=""stimulus-container"">
                    <img src=""images/schematic_sequence/dinner_party_scheme/dinner_party_scheme_7.png"" class=""exp-image"">
                    <div class=""question-area"">
                        <p style=""font-size: 20px; font-weight: bold; margin: 0;"">Is there a person in this image?</p>
                    </div>
                </div>","0","main_experiment_trial","7","dinner_party_scheme","schematic_sequence","","","","",""
"","","","","","html-keyboard-response","136","451420","0.0-136.0","A84491FD56F94C5C97FB801DFEFABBAD","019cf80f-877b-75af-9d59-dda2cc5c076a","019cf80d-4266-7117-8a51-54e13c84aca4","","null","
                <div class=""stimulus-container"">
                    <img src=""images/schematic_sequence/dinner_party_scheme/dinner_party_scheme_8.png"" class=""exp-image"">
                    <div class=""question-area""></div> 
                </div>","null","","","","","","","","",""
"","","","","","html-button-response","137","452491","0.0-137.0","A84491FD56F94C5C97FB801DFEFABBAD","019cf80f-877b-75af-9d59-dda2cc5c076a","019cf80d-4266-7117-8a51-54e13c84aca4","","1070","
                <div class=""stimulus-container"">
                    <img src=""images/schematic_sequence/dinner_party_scheme/dinner_party_scheme_8.png"" class=""exp-image"">
                    <div class=""question-area"">
                        <p style=""font-size: 20px; font-weight: bold; margin: 0;"">Is there a person in this image?</p>
                    </div>
                </div>","0","main_experiment_trial","8","dinner_party_scheme","schematic_sequence","","","","",""
"","","","","","html-keyboard-response","138","457492","0.0-138.0","A84491FD56F94C5C97FB801DFEFABBAD","019cf80f-877b-75af-9d59-dda2cc5c076a","019cf80d-4266-7117-8a51-54e13c84aca4","","null","
                <div class=""stimulus-container"">
                    <img src=""images/schematic_sequence/dinner_party_scheme/dinner_party_scheme_9.png"" class=""exp-image"">
                    <div class=""question-area""></div> 
                </div>","null","","","","","","","","",""
"","","","","","html-button-response","139","458576","0.0-139.0","A84491FD56F94C5C97FB801DFEFABBAD","019cf80f-877b-75af-9d59-dda2cc5c076a","019cf80d-4266-7117-8a51-54e13c84aca4","","1083","
                <div class=""stimulus-container"">
                    <img src=""images/schematic_sequence/dinner_party_scheme/dinner_party_scheme_9.png"" class=""exp-image"">
                    <div class=""question-area"">
                        <p style=""font-size: 20px; font-weight: bold; margin: 0;"">Is there a person in this image?</p>
                    </div>
                </div>","0","main_experiment_trial","9","dinner_party_scheme","schematic_sequence","","","","",""
"","","","","","html-keyboard-response","140","463577","0.0-140.0","A84491FD56F94C5C97FB801DFEFABBAD","019cf80f-877b-75af-9d59-dda2cc5c076a","019cf80d-4266-7117-8a51-54e13c84aca4","","null","
                <div class=""stimulus-container"">
                    <img src=""images/schematic_sequence/dinner_party_scheme/dinner_party_scheme_ten.png"" class=""exp-image"">
                    <div class=""question-area""></div> 
                </div>","null","","","","","","","","",""
"","","","","","html-button-response","141","464508","0.0-141.0","A84491FD56F94C5C97FB801DFEFABBAD","019cf80f-877b-75af-9d59-dda2cc5c076a","019cf80d-4266-7117-8a51-54e13c84aca4","","930","
                <div class=""stimulus-container"">
                    <img src=""images/schematic_sequence/dinner_party_scheme/dinner_party_scheme_ten.png"" class=""exp-image"">
                    <div class=""question-area"">
                        <p style=""font-size: 20px; font-weight: bold; margin: 0;"">Is there a person in this image?</p>
                    </div>
                </div>","0","main_experiment_trial","ten","dinner_party_scheme","schematic_sequence","","","","",""
"","","","","","html-keyboard-response","142","465578","0.0-142.0","A84491FD56F94C5C97FB801DFEFABBAD","019cf80f-877b-75af-9d59-dda2cc5c076a","019cf80d-4266-7117-8a51-54e13c84aca4","","null","<div style=""background-color: white; width: 100vw; height: 100vh;""></div>","null","","","","","","","","",""
"","","","","","html-keyboard-response","143","470814","0.0-143.0","A84491FD56F94C5C97FB801DFEFABBAD","019cf80f-877b-75af-9d59-dda2cc5c076a","019cf80d-4266-7117-8a51-54e13c84aca4","","null","
                <div class=""stimulus-container"">
                    <img src=""images/schematic_sequence/hotel_scheme/hotel_scheme_1.png"" class=""exp-image"">
                    <div class=""question-area""></div> 
                </div>","null","","","","","","","","",""
"","","","","","html-button-response","144","471692","0.0-144.0","A84491FD56F94C5C97FB801DFEFABBAD","019cf80f-877b-75af-9d59-dda2cc5c076a","019cf80d-4266-7117-8a51-54e13c84aca4","","877","
                <div class=""stimulus-container"">
                    <img src=""images/schematic_sequence/hotel_scheme/hotel_scheme_1.png"" class=""exp-image"">
                    <div class=""question-area"">
                        <p style=""font-size: 20px; font-weight: bold; margin: 0;"">Is there a person in this image?</p>
                    </div>
                </div>","1","main_experiment_trial","1","hotel_scheme","schematic_sequence","","","","",""
"","","","","","html-keyboard-response","145","476792","0.0-145.0","A84491FD56F94C5C97FB801DFEFABBAD","019cf80f-877b-75af-9d59-dda2cc5c076a","019cf80d-4266-7117-8a51-54e13c84aca4","","null","
                <div class=""stimulus-container"">
                    <img src=""images/schematic_sequence/hotel_scheme/hotel_scheme_2.png"" class=""exp-image"">
                    <div class=""question-area""></div> 
                </div>","null","","","","","","","","",""
"","","","","","html-button-response","146","477360","0.0-146.0","A84491FD56F94C5C97FB801DFEFABBAD","019cf80f-877b-75af-9d59-dda2cc5c076a","019cf80d-4266-7117-8a51-54e13c84aca4","","568","
                <div class=""stimulus-container"">
                    <img src=""images/schematic_sequence/hotel_scheme/hotel_scheme_2.png"" class=""exp-image"">
                    <div class=""question-area"">
                        <p style=""font-size: 20px; font-weight: bold; margin: 0;"">Is there a person in this image?</p>
                    </div>
                </div>","0","main_experiment_trial","2","hotel_scheme","schematic_sequence","","","","",""
"","","","","","html-keyboard-response","147","482439","0.0-147.0","A84491FD56F94C5C97FB801DFEFABBAD","019cf80f-877b-75af-9d59-dda2cc5c076a","019cf80d-4266-7117-8a51-54e13c84aca4","","null","
                <div class=""stimulus-container"">
                    <img src=""images/schematic_sequence/hotel_scheme/hotel_scheme_3.png"" class=""exp-image"">
                    <div class=""question-area""></div> 
                </div>","null","","","","","","","","",""
"","","","","","html-button-response","148","483000","0.0-148.0","A84491FD56F94C5C97FB801DFEFABBAD","019cf80f-877b-75af-9d59-dda2cc5c076a","019cf80d-4266-7117-8a51-54e13c84aca4","","560","
                <div class=""stimulus-container"">
                    <img src=""images/schematic_sequence/hotel_scheme/hotel_scheme_3.png"" class=""exp-image"">
                    <div class=""question-area"">
                        <p style=""font-size: 20px; font-weight: bold; margin: 0;"">Is there a person in this image?</p>
                    </div>
                </div>","0","main_experiment_trial","3","hotel_scheme","schematic_sequence","","","","",""
"","","","","","html-keyboard-response","149","488000","0.0-149.0","A84491FD56F94C5C97FB801DFEFABBAD","019cf80f-877b-75af-9d59-dda2cc5c076a","019cf80d-4266-7117-8a51-54e13c84aca4","","null","
                <div class=""stimulus-container"">
                    <img src=""images/schematic_sequence/hotel_scheme/hotel_scheme_4.png"" class=""exp-image"">
                    <div class=""question-area""></div> 
                </div>","null","","","","","","","","",""
"","","","","","html-button-response","150","489741","0.0-150.0","A84491FD56F94C5C97FB801DFEFABBAD","019cf80f-877b-75af-9d59-dda2cc5c076a","019cf80d-4266-7117-8a51-54e13c84aca4","","1740","
                <div class=""stimulus-container"">
                    <img src=""images/schematic_sequence/hotel_scheme/hotel_scheme_4.png"" class=""exp-image"">
                    <div class=""question-area"">
                        <p style=""font-size: 20px; font-weight: bold; margin: 0;"">Is there a person in this image?</p>
                    </div>
                </div>","1","main_experiment_trial","4","hotel_scheme","schematic_sequence","","","","",""
"","","","","","html-keyboard-response","151","494800","0.0-151.0","A84491FD56F94C5C97FB801DFEFABBAD","019cf80f-877b-75af-9d59-dda2cc5c076a","019cf80d-4266-7117-8a51-54e13c84aca4","","null","
                <div class=""stimulus-container"">
                    <img src=""images/schematic_sequence/hotel_scheme/hotel_scheme_5.png"" class=""exp-image"">
                    <div class=""question-area""></div> 
                </div>","null","","","","","","","","",""
"","","","","","html-button-response","152","495624","0.0-152.0","A84491FD56F94C5C97FB801DFEFABBAD","019cf80f-877b-75af-9d59-dda2cc5c076a","019cf80d-4266-7117-8a51-54e13c84aca4","","823","
                <div class=""stimulus-container"">
                    <img src=""images/schematic_sequence/hotel_scheme/hotel_scheme_5.png"" class=""exp-image"">
                    <div class=""question-area"">
                        <p style=""font-size: 20px; font-weight: bold; margin: 0;"">Is there a person in this image?</p>
                    </div>
                </div>","0","main_experiment_trial","5","hotel_scheme","schematic_sequence","","","","",""
"","","","","","html-keyboard-response","153","501107","0.0-153.0","A84491FD56F94C5C97FB801DFEFABBAD","019cf80f-877b-75af-9d59-dda2cc5c076a","019cf80d-4266-7117-8a51-54e13c84aca4","","null","
                <div class=""stimulus-container"">
                    <img src=""images/schematic_sequence/hotel_scheme/hotel_scheme_6.png"" class=""exp-image"">
                    <div class=""question-area""></div> 
                </div>","null","","","","","","","","",""
"","","","","","html-button-response","154","501749","0.0-154.0","A84491FD56F94C5C97FB801DFEFABBAD","019cf80f-877b-75af-9d59-dda2cc5c076a","019cf80d-4266-7117-8a51-54e13c84aca4","","641","
                <div class=""stimulus-container"">
                    <img src=""images/schematic_sequence/hotel_scheme/hotel_scheme_6.png"" class=""exp-image"">
                    <div class=""question-area"">
                        <p style=""font-size: 20px; font-weight: bold; margin: 0;"">Is there a person in this image?</p>
                    </div>
                </div>","0","main_experiment_trial","6","hotel_scheme","schematic_sequence","","","","",""
"","","","","","html-keyboard-response","155","506831","0.0-155.0","A84491FD56F94C5C97FB801DFEFABBAD","019cf80f-877b-75af-9d59-dda2cc5c076a","019cf80d-4266-7117-8a51-54e13c84aca4","","null","
                <div class=""stimulus-container"">
                    <img src=""images/schematic_sequence/hotel_scheme/hotel_scheme_7.png"" class=""exp-image"">
                    <div class=""question-area""></div> 
                </div>","null","","","","","","","","",""
"","","","","","html-button-response","156","507859","0.0-156.0","A84491FD56F94C5C97FB801DFEFABBAD","019cf80f-877b-75af-9d59-dda2cc5c076a","019cf80d-4266-7117-8a51-54e13c84aca4","","1027","
                <div class=""stimulus-container"">
                    <img src=""images/schematic_sequence/hotel_scheme/hotel_scheme_7.png"" class=""exp-image"">
                    <div class=""question-area"">
                        <p style=""font-size: 20px; font-weight: bold; margin: 0;"">Is there a person in this image?</p>
                    </div>
                </div>","0","main_experiment_trial","7","hotel_scheme","schematic_sequence","","","","",""
"","","","","","html-keyboard-response","157","512875","0.0-157.0","A84491FD56F94C5C97FB801DFEFABBAD","019cf80f-877b-75af-9d59-dda2cc5c076a","019cf80d-4266-7117-8a51-54e13c84aca4","","null","
                <div class=""stimulus-container"">
                    <img src=""images/schematic_sequence/hotel_scheme/hotel_scheme_8.png"" class=""exp-image"">
                    <div class=""question-area""></div> 
                </div>","null","","","","","","","","",""
"","","","","","html-button-response","158","513739","0.0-158.0","A84491FD56F94C5C97FB801DFEFABBAD","019cf80f-877b-75af-9d59-dda2cc5c076a","019cf80d-4266-7117-8a51-54e13c84aca4","","863","
                <div class=""stimulus-container"">
                    <img src=""images/schematic_sequence/hotel_scheme/hotel_scheme_8.png"" class=""exp-image"">
                    <div class=""question-area"">
                        <p style=""font-size: 20px; font-weight: bold; margin: 0;"">Is there a person in this image?</p>
                    </div>
                </div>","0","main_experiment_trial","8","hotel_scheme","schematic_sequence","","","","",""
"","","","","","html-keyboard-response","159","518740","0.0-159.0","A84491FD56F94C5C97FB801DFEFABBAD","019cf80f-877b-75af-9d59-dda2cc5c076a","019cf80d-4266-7117-8a51-54e13c84aca4","","null","
                <div class=""stimulus-container"">
                    <img src=""images/schematic_sequence/hotel_scheme/hotel_scheme_9.png"" class=""exp-image"">
                    <div class=""question-area""></div> 
                </div>","null","","","","","","","","",""
"","","","","","html-button-response","160","519483","0.0-160.0","A84491FD56F94C5C97FB801DFEFABBAD","019cf80f-877b-75af-9d59-dda2cc5c076a","019cf80d-4266-7117-8a51-54e13c84aca4","","743","
                <div class=""stimulus-container"">
                    <img src=""images/schematic_sequence/hotel_scheme/hotel_scheme_9.png"" class=""exp-image"">
                    <div class=""question-area"">
                        <p style=""font-size: 20px; font-weight: bold; margin: 0;"">Is there a person in this image?</p>
                    </div>
                </div>","0","main_experiment_trial","9","hotel_scheme","schematic_sequence","","","","",""
"","","","","","html-keyboard-response","161","524495","0.0-161.0","A84491FD56F94C5C97FB801DFEFABBAD","019cf80f-877b-75af-9d59-dda2cc5c076a","019cf80d-4266-7117-8a51-54e13c84aca4","","null","
                <div class=""stimulus-container"">
                    <img src=""images/schematic_sequence/hotel_scheme/hotel_scheme_ten.png"" class=""exp-image"">
                    <div class=""question-area""></div> 
                </div>","null","","","","","","","","",""
"","","","","","html-button-response","162","525768","0.0-162.0","A84491FD56F94C5C97FB801DFEFABBAD","019cf80f-877b-75af-9d59-dda2cc5c076a","019cf80d-4266-7117-8a51-54e13c84aca4","","1273","
                <div class=""stimulus-container"">
                    <img src=""images/schematic_sequence/hotel_scheme/hotel_scheme_ten.png"" class=""exp-image"">
                    <div class=""question-area"">
                        <p style=""font-size: 20px; font-weight: bold; margin: 0;"">Is there a person in this image?</p>
                    </div>
                </div>","0","main_experiment_trial","ten","hotel_scheme","schematic_sequence","","","","",""
"","","","","","html-keyboard-response","163","526768","0.0-163.0","A84491FD56F94C5C97FB801DFEFABBAD","019cf80f-877b-75af-9d59-dda2cc5c076a","019cf80d-4266-7117-8a51-54e13c84aca4","","null","<div style=""background-color: white; width: 100vw; height: 100vh;""></div>","null","","","","","","","","",""
"","","","","","html-keyboard-response","164","531791","0.0-164.0","A84491FD56F94C5C97FB801DFEFABBAD","019cf80f-877b-75af-9d59-dda2cc5c076a","019cf80d-4266-7117-8a51-54e13c84aca4","","null","
                <div class=""stimulus-container"">
                    <img src=""images/semantic_sequence/maintaining_a_car_semantic/maintaining_a_car_semantic_1.png"" class=""exp-image"">
                    <div class=""question-area""></div> 
                </div>","null","","","","","","","","",""
"","","","","","html-button-response","165","533067","0.0-165.0","A84491FD56F94C5C97FB801DFEFABBAD","019cf80f-877b-75af-9d59-dda2cc5c076a","019cf80d-4266-7117-8a51-54e13c84aca4","","1276","
                <div class=""stimulus-container"">
                    <img src=""images/semantic_sequence/maintaining_a_car_semantic/maintaining_a_car_semantic_1.png"" class=""exp-image"">
                    <div class=""question-area"">
                        <p style=""font-size: 20px; font-weight: bold; margin: 0;"">Is there a person in this image?</p>
                    </div>
                </div>","0","main_experiment_trial","1","maintaining_a_car_semantic","semantic_sequence","","","","",""
"","","","","","html-keyboard-response","166","538323","0.0-166.0","A84491FD56F94C5C97FB801DFEFABBAD","019cf80f-877b-75af-9d59-dda2cc5c076a","019cf80d-4266-7117-8a51-54e13c84aca4","","null","
                <div class=""stimulus-container"">
                    <img src=""images/semantic_sequence/maintaining_a_car_semantic/maintaining_a_car_semantic_2.png"" class=""exp-image"">
                    <div class=""question-area""></div> 
                </div>","null","","","","","","","","",""
"","","","","","html-button-response","167","539927","0.0-167.0","A84491FD56F94C5C97FB801DFEFABBAD","019cf80f-877b-75af-9d59-dda2cc5c076a","019cf80d-4266-7117-8a51-54e13c84aca4","","1603","
                <div class=""stimulus-container"">
                    <img src=""images/semantic_sequence/maintaining_a_car_semantic/maintaining_a_car_semantic_2.png"" class=""exp-image"">
                    <div class=""question-area"">
                        <p style=""font-size: 20px; font-weight: bold; margin: 0;"">Is there a person in this image?</p>
                    </div>
                </div>","0","main_experiment_trial","2","maintaining_a_car_semantic","semantic_sequence","","","","",""
"","","","","","html-keyboard-response","168","545066","0.0-168.0","A84491FD56F94C5C97FB801DFEFABBAD","019cf80f-877b-75af-9d59-dda2cc5c076a","019cf80d-4266-7117-8a51-54e13c84aca4","","null","
                <div class=""stimulus-container"">
                    <img src=""images/semantic_sequence/maintaining_a_car_semantic/maintaining_a_car_semantic_3.png"" class=""exp-image"">
                    <div class=""question-area""></div> 
                </div>","null","","","","","","","","",""
"","","","","","html-button-response","169","545683","0.0-169.0","A84491FD56F94C5C97FB801DFEFABBAD","019cf80f-877b-75af-9d59-dda2cc5c076a","019cf80d-4266-7117-8a51-54e13c84aca4","","617","
                <div class=""stimulus-container"">
                    <img src=""images/semantic_sequence/maintaining_a_car_semantic/maintaining_a_car_semantic_3.png"" class=""exp-image"">
                    <div class=""question-area"">
                        <p style=""font-size: 20px; font-weight: bold; margin: 0;"">Is there a person in this image?</p>
                    </div>
                </div>","0","main_experiment_trial","3","maintaining_a_car_semantic","semantic_sequence","","","","",""
"","","","","","html-keyboard-response","170","550719","0.0-170.0","A84491FD56F94C5C97FB801DFEFABBAD","019cf80f-877b-75af-9d59-dda2cc5c076a","019cf80d-4266-7117-8a51-54e13c84aca4","","null","
                <div class=""stimulus-container"">
                    <img src=""images/semantic_sequence/maintaining_a_car_semantic/maintaining_a_car_semantic_4.png"" class=""exp-image"">
                    <div class=""question-area""></div> 
                </div>","null","","","","","","","","",""
"","","","","","html-button-response","171","551732","0.0-171.0","A84491FD56F94C5C97FB801DFEFABBAD","019cf80f-877b-75af-9d59-dda2cc5c076a","019cf80d-4266-7117-8a51-54e13c84aca4","","1012","
                <div class=""stimulus-container"">
                    <img src=""images/semantic_sequence/maintaining_a_car_semantic/maintaining_a_car_semantic_4.png"" class=""exp-image"">
                    <div class=""question-area"">
                        <p style=""font-size: 20px; font-weight: bold; margin: 0;"">Is there a person in this image?</p>
                    </div>
                </div>","0","main_experiment_trial","4","maintaining_a_car_semantic","semantic_sequence","","","","",""
"","","","","","html-keyboard-response","172","556732","0.0-172.0","A84491FD56F94C5C97FB801DFEFABBAD","019cf80f-877b-75af-9d59-dda2cc5c076a","019cf80d-4266-7117-8a51-54e13c84aca4","","null","
                <div class=""stimulus-container"">
                    <img src=""images/semantic_sequence/maintaining_a_car_semantic/maintaining_a_car_semantic_5.png"" class=""exp-image"">
                    <div class=""question-area""></div> 
                </div>","null","","","","","","","","",""
"","","","","","html-button-response","173","558383","0.0-173.0","A84491FD56F94C5C97FB801DFEFABBAD","019cf80f-877b-75af-9d59-dda2cc5c076a","019cf80d-4266-7117-8a51-54e13c84aca4","","1651","
                <div class=""stimulus-container"">
                    <img src=""images/semantic_sequence/maintaining_a_car_semantic/maintaining_a_car_semantic_5.png"" class=""exp-image"">
                    <div class=""question-area"">
                        <p style=""font-size: 20px; font-weight: bold; margin: 0;"">Is there a person in this image?</p>
                    </div>
                </div>","0","main_experiment_trial","5","maintaining_a_car_semantic","semantic_sequence","","","","",""
"","","","","","html-keyboard-response","174","563393","0.0-174.0","A84491FD56F94C5C97FB801DFEFABBAD","019cf80f-877b-75af-9d59-dda2cc5c076a","019cf80d-4266-7117-8a51-54e13c84aca4","","null","
                <div class=""stimulus-container"">
                    <img src=""images/semantic_sequence/maintaining_a_car_semantic/maintaining_a_car_semantic_6.png"" class=""exp-image"">
                    <div class=""question-area""></div> 
                </div>","null","","","","","","","","",""
"","","","","","html-button-response","175","564131","0.0-175.0","A84491FD56F94C5C97FB801DFEFABBAD","019cf80f-877b-75af-9d59-dda2cc5c076a","019cf80d-4266-7117-8a51-54e13c84aca4","","737","
                <div class=""stimulus-container"">
                    <img src=""images/semantic_sequence/maintaining_a_car_semantic/maintaining_a_car_semantic_6.png"" class=""exp-image"">
                    <div class=""question-area"">
                        <p style=""font-size: 20px; font-weight: bold; margin: 0;"">Is there a person in this image?</p>
                    </div>
                </div>","0","main_experiment_trial","6","maintaining_a_car_semantic","semantic_sequence","","","","",""
"","","","","","html-keyboard-response","176","569133","0.0-176.0","A84491FD56F94C5C97FB801DFEFABBAD","019cf80f-877b-75af-9d59-dda2cc5c076a","019cf80d-4266-7117-8a51-54e13c84aca4","","null","
                <div class=""stimulus-container"">
                    <img src=""images/semantic_sequence/maintaining_a_car_semantic/maintaining_a_car_semantic_7.png"" class=""exp-image"">
                    <div class=""question-area""></div> 
                </div>","null","","","","","","","","",""
"","","","","","html-button-response","177","569859","0.0-177.0","A84491FD56F94C5C97FB801DFEFABBAD","019cf80f-877b-75af-9d59-dda2cc5c076a","019cf80d-4266-7117-8a51-54e13c84aca4","","725","
                <div class=""stimulus-container"">
                    <img src=""images/semantic_sequence/maintaining_a_car_semantic/maintaining_a_car_semantic_7.png"" class=""exp-image"">
                    <div class=""question-area"">
                        <p style=""font-size: 20px; font-weight: bold; margin: 0;"">Is there a person in this image?</p>
                    </div>
                </div>","0","main_experiment_trial","7","maintaining_a_car_semantic","semantic_sequence","","","","",""
"","","","","","html-keyboard-response","178","574860","0.0-178.0","A84491FD56F94C5C97FB801DFEFABBAD","019cf80f-877b-75af-9d59-dda2cc5c076a","019cf80d-4266-7117-8a51-54e13c84aca4","","null","
                <div class=""stimulus-container"">
                    <img src=""images/semantic_sequence/maintaining_a_car_semantic/maintaining_a_car_semantic_8.png"" class=""exp-image"">
                    <div class=""question-area""></div> 
                </div>","null","","","","","","","","",""
"","","","","","html-button-response","179","576551","0.0-179.0","A84491FD56F94C5C97FB801DFEFABBAD","019cf80f-877b-75af-9d59-dda2cc5c076a","019cf80d-4266-7117-8a51-54e13c84aca4","","1691","
                <div class=""stimulus-container"">
                    <img src=""images/semantic_sequence/maintaining_a_car_semantic/maintaining_a_car_semantic_8.png"" class=""exp-image"">
                    <div class=""question-area"">
                        <p style=""font-size: 20px; font-weight: bold; margin: 0;"">Is there a person in this image?</p>
                    </div>
                </div>","0","main_experiment_trial","8","maintaining_a_car_semantic","semantic_sequence","","","","",""
"","","","","","html-keyboard-response","180","581562","0.0-180.0","A84491FD56F94C5C97FB801DFEFABBAD","019cf80f-877b-75af-9d59-dda2cc5c076a","019cf80d-4266-7117-8a51-54e13c84aca4","","null","
                <div class=""stimulus-container"">
                    <img src=""images/semantic_sequence/maintaining_a_car_semantic/maintaining_a_car_semantic_9.png"" class=""exp-image"">
