"success","timeout","failed_images","failed_audio","failed_video","trial_type","trial_index","time_elapsed","internal_node_id","subject_id","study_id","session_id","view_history","rt","stimulus","response","task","image_index","folder","sequence_type","valuable_image_index","reward_type","chosen_image_index","target_X","correct_choice"
"true","false","[]","[]","[]","preload","0","3489","0.0-0.0","2A955BCC15B949D58486DBD2A72BC21C","019cf812-4e73-7620-ae24-09ca970b3d0c","019cf80d-4266-7117-8a51-54e13c84aca4","","","","","","","","","","","","",""
"","","","","","instructions","1","5809","0.0-1.0","2A955BCC15B949D58486DBD2A72BC21C","019cf812-4e73-7620-ae24-09ca970b3d0c","019cf80d-4266-7117-8a51-54e13c84aca4","[{""page_index"":0,""viewing_time"":2319}]","2320","","","","","","","","","","",""
"","","","","","instructions","2","8588","0.0-2.0","2A955BCC15B949D58486DBD2A72BC21C","019cf812-4e73-7620-ae24-09ca970b3d0c","019cf80d-4266-7117-8a51-54e13c84aca4","[{""page_index"":0,""viewing_time"":2777}]","2778","","","","","","","","","","",""
"true","","","","","fullscreen","3","11509","0.0-3.0","2A955BCC15B949D58486DBD2A72BC21C","019cf812-4e73-7620-ae24-09ca970b3d0c","019cf80d-4266-7117-8a51-54e13c84aca4","","1917","","","","","","","","","","",""
"","","","","","instructions","4","15055","0.0-4.0","2A955BCC15B949D58486DBD2A72BC21C","019cf812-4e73-7620-ae24-09ca970b3d0c","019cf80d-4266-7117-8a51-54e13c84aca4","[{""page_index"":0,""viewing_time"":3546}]","3547","","","","","","","","","","",""
"","","","","","instructions","5","17171","0.0-5.0","2A955BCC15B949D58486DBD2A72BC21C","019cf812-4e73-7620-ae24-09ca970b3d0c","019cf80d-4266-7117-8a51-54e13c84aca4","[{""page_index"":0,""viewing_time"":2115}]","2115","","","","","","","","","","",""
"","","","","","html-keyboard-response","6","21175","0.0-6.0","2A955BCC15B949D58486DBD2A72BC21C","019cf812-4e73-7620-ae24-09ca970b3d0c","019cf80d-4266-7117-8a51-54e13c84aca4","","null","
                <div class=""stimulus-container"">
                    <img src=""images/instructions/movie_1.png"" class=""exp-image"">
                    <div class=""question-area""></div> 
                </div>","null","","","","","","","","",""
"","","","","","html-button-response","7","23609","0.0-7.0","2A955BCC15B949D58486DBD2A72BC21C","019cf812-4e73-7620-ae24-09ca970b3d0c","019cf80d-4266-7117-8a51-54e13c84aca4","","2430","
                <div class=""stimulus-container"">
                    <img src=""images/instructions/movie_1.png"" class=""exp-image"">
                    <div class=""question-area"">
                        <p style=""font-size: 20px; font-weight: bold; margin: 0;"">Was there a person in this image?</p>
                    </div>
                </div>","0","example_question","1","","","","","","",""
"","","","","","html-keyboard-response","8","27612","0.0-8.0","2A955BCC15B949D58486DBD2A72BC21C","019cf812-4e73-7620-ae24-09ca970b3d0c","019cf80d-4266-7117-8a51-54e13c84aca4","","null","
                <div class=""stimulus-container"">
                    <img src=""images/instructions/movie_2.png"" class=""exp-image"">
                    <div class=""question-area""></div> 
                </div>","null","","","","","","","","",""
"","","","","","html-button-response","9","29192","0.0-9.0","2A955BCC15B949D58486DBD2A72BC21C","019cf812-4e73-7620-ae24-09ca970b3d0c","019cf80d-4266-7117-8a51-54e13c84aca4","","1578","
                <div class=""stimulus-container"">
                    <img src=""images/instructions/movie_2.png"" class=""exp-image"">
                    <div class=""question-area"">
                        <p style=""font-size: 20px; font-weight: bold; margin: 0;"">Was there a person in this image?</p>
                    </div>
                </div>","1","example_question","2","","","","","","",""
"","","","","","html-keyboard-response","10","33194","0.0-10.0","2A955BCC15B949D58486DBD2A72BC21C","019cf812-4e73-7620-ae24-09ca970b3d0c","019cf80d-4266-7117-8a51-54e13c84aca4","","null","
                <div class=""stimulus-container"">
                    <img src=""images/instructions/movie_3.png"" class=""exp-image"">
                    <div class=""question-area""></div> 
                </div>","null","","","","","","","","",""
"","","","","","html-button-response","11","33836","0.0-11.0","2A955BCC15B949D58486DBD2A72BC21C","019cf812-4e73-7620-ae24-09ca970b3d0c","019cf80d-4266-7117-8a51-54e13c84aca4","","639","
                <div class=""stimulus-container"">
                    <img src=""images/instructions/movie_3.png"" class=""exp-image"">
                    <div class=""question-area"">
                        <p style=""font-size: 20px; font-weight: bold; margin: 0;"">Was there a person in this image?</p>
                    </div>
                </div>","0","example_question","3","","","","","","",""
"","","","","","html-keyboard-response","12","37838","0.0-12.0","2A955BCC15B949D58486DBD2A72BC21C","019cf812-4e73-7620-ae24-09ca970b3d0c","019cf80d-4266-7117-8a51-54e13c84aca4","","null","
                <div class=""stimulus-container"">
                    <img src=""images/instructions/movie_4.png"" class=""exp-image"">
                    <div class=""question-area""></div> 
                </div>","null","","","","","","","","",""
"","","","","","html-button-response","13","38354","0.0-13.0","2A955BCC15B949D58486DBD2A72BC21C","019cf812-4e73-7620-ae24-09ca970b3d0c","019cf80d-4266-7117-8a51-54e13c84aca4","","513","
                <div class=""stimulus-container"">
                    <img src=""images/instructions/movie_4.png"" class=""exp-image"">
                    <div class=""question-area"">
                        <p style=""font-size: 20px; font-weight: bold; margin: 0;"">Was there a person in this image?</p>
                    </div>
                </div>","0","example_question","4","","","","","","",""
"","","","","","instructions","14","40540","0.0-14.0","2A955BCC15B949D58486DBD2A72BC21C","019cf812-4e73-7620-ae24-09ca970b3d0c","019cf80d-4266-7117-8a51-54e13c84aca4","[{""page_index"":0,""viewing_time"":2184}]","2184","","","","","","","","","","",""
"","","","","","instructions","15","42188","0.0-15.0","2A955BCC15B949D58486DBD2A72BC21C","019cf812-4e73-7620-ae24-09ca970b3d0c","019cf80d-4266-7117-8a51-54e13c84aca4","[{""page_index"":0,""viewing_time"":1646}]","1646","","","","","","","","","","",""
"","","","","","html-keyboard-response","16","43189","0.0-16.0","2A955BCC15B949D58486DBD2A72BC21C","019cf812-4e73-7620-ae24-09ca970b3d0c","019cf80d-4266-7117-8a51-54e13c84aca4","","null","<div style=""background-color: white; width: 100vw; height: 100vh;""></div>","null","","","","","","","","",""
"","","","","","html-keyboard-response","17","48191","0.0-17.0","2A955BCC15B949D58486DBD2A72BC21C","019cf812-4e73-7620-ae24-09ca970b3d0c","019cf80d-4266-7117-8a51-54e13c84aca4","","null","
                <div class=""stimulus-container"">
                    <img src=""images/semantic_sequence/cat_care_semantic/cat_care_semantic_1.png"" class=""exp-image"">
                    <div class=""question-area""></div> 
                </div>","null","","","","","","","","",""
"","","","","","html-button-response","18","49220","0.0-18.0","2A955BCC15B949D58486DBD2A72BC21C","019cf812-4e73-7620-ae24-09ca970b3d0c","019cf80d-4266-7117-8a51-54e13c84aca4","","1027","
                <div class=""stimulus-container"">
                    <img src=""images/semantic_sequence/cat_care_semantic/cat_care_semantic_1.png"" class=""exp-image"">
                    <div class=""question-area"">
                        <p style=""font-size: 20px; font-weight: bold; margin: 0;"">Is there a person in this image?</p>
                    </div>
                </div>","0","main_experiment_trial","1","cat_care_semantic","semantic_sequence","","","","",""
"","","","","","html-keyboard-response","19","54222","0.0-19.0","2A955BCC15B949D58486DBD2A72BC21C","019cf812-4e73-7620-ae24-09ca970b3d0c","019cf80d-4266-7117-8a51-54e13c84aca4","","null","
                <div class=""stimulus-container"">
                    <img src=""images/semantic_sequence/cat_care_semantic/cat_care_semantic_2.png"" class=""exp-image"">
                    <div class=""question-area""></div> 
                </div>","null","","","","","","","","",""
"","","","","","html-button-response","20","54888","0.0-20.0","2A955BCC15B949D58486DBD2A72BC21C","019cf812-4e73-7620-ae24-09ca970b3d0c","019cf80d-4266-7117-8a51-54e13c84aca4","","663","
                <div class=""stimulus-container"">
                    <img src=""images/semantic_sequence/cat_care_semantic/cat_care_semantic_2.png"" class=""exp-image"">
                    <div class=""question-area"">
                        <p style=""font-size: 20px; font-weight: bold; margin: 0;"">Is there a person in this image?</p>
                    </div>
                </div>","0","main_experiment_trial","2","cat_care_semantic","semantic_sequence","","","","",""
"","","","","","html-keyboard-response","21","59890","0.0-21.0","2A955BCC15B949D58486DBD2A72BC21C","019cf812-4e73-7620-ae24-09ca970b3d0c","019cf80d-4266-7117-8a51-54e13c84aca4","","null","
                <div class=""stimulus-container"">
                    <img src=""images/semantic_sequence/cat_care_semantic/cat_care_semantic_3.png"" class=""exp-image"">
                    <div class=""question-area""></div> 
                </div>","null","","","","","","","","",""
"","","","","","html-button-response","22","60394","0.0-22.0","2A955BCC15B949D58486DBD2A72BC21C","019cf812-4e73-7620-ae24-09ca970b3d0c","019cf80d-4266-7117-8a51-54e13c84aca4","","501","
                <div class=""stimulus-container"">
                    <img src=""images/semantic_sequence/cat_care_semantic/cat_care_semantic_3.png"" class=""exp-image"">
                    <div class=""question-area"">
                        <p style=""font-size: 20px; font-weight: bold; margin: 0;"">Is there a person in this image?</p>
                    </div>
                </div>","0","main_experiment_trial","3","cat_care_semantic","semantic_sequence","","","","",""
"","","","","","html-keyboard-response","23","65396","0.0-23.0","2A955BCC15B949D58486DBD2A72BC21C","019cf812-4e73-7620-ae24-09ca970b3d0c","019cf80d-4266-7117-8a51-54e13c84aca4","","null","
                <div class=""stimulus-container"">
                    <img src=""images/semantic_sequence/cat_care_semantic/cat_care_semantic_4.png"" class=""exp-image"">
                    <div class=""question-area""></div> 
                </div>","null","","","","","","","","",""
"","","","","","html-button-response","24","66216","0.0-24.0","2A955BCC15B949D58486DBD2A72BC21C","019cf812-4e73-7620-ae24-09ca970b3d0c","019cf80d-4266-7117-8a51-54e13c84aca4","","817","
                <div class=""stimulus-container"">
                    <img src=""images/semantic_sequence/cat_care_semantic/cat_care_semantic_4.png"" class=""exp-image"">
                    <div class=""question-area"">
                        <p style=""font-size: 20px; font-weight: bold; margin: 0;"">Is there a person in this image?</p>
                    </div>
                </div>","0","main_experiment_trial","4","cat_care_semantic","semantic_sequence","","","","",""
"","","","","","html-keyboard-response","25","71218","0.0-25.0","2A955BCC15B949D58486DBD2A72BC21C","019cf812-4e73-7620-ae24-09ca970b3d0c","019cf80d-4266-7117-8a51-54e13c84aca4","","null","
                <div class=""stimulus-container"">
                    <img src=""images/semantic_sequence/cat_care_semantic/cat_care_semantic_5.png"" class=""exp-image"">
                    <div class=""question-area""></div> 
                </div>","null","","","","","","","","",""
"","","","","","html-button-response","26","72352","0.0-26.0","2A955BCC15B949D58486DBD2A72BC21C","019cf812-4e73-7620-ae24-09ca970b3d0c","019cf80d-4266-7117-8a51-54e13c84aca4","","1131","
                <div class=""stimulus-container"">
                    <img src=""images/semantic_sequence/cat_care_semantic/cat_care_semantic_5.png"" class=""exp-image"">
                    <div class=""question-area"">
                        <p style=""font-size: 20px; font-weight: bold; margin: 0;"">Is there a person in this image?</p>
                    </div>
                </div>","0","main_experiment_trial","5","cat_care_semantic","semantic_sequence","","","","",""
"","","","","","html-keyboard-response","27","77354","0.0-27.0","2A955BCC15B949D58486DBD2A72BC21C","019cf812-4e73-7620-ae24-09ca970b3d0c","019cf80d-4266-7117-8a51-54e13c84aca4","","null","
                <div class=""stimulus-container"">
                    <img src=""images/semantic_sequence/cat_care_semantic/cat_care_semantic_6.png"" class=""exp-image"">
                    <div class=""question-area""></div> 
                </div>","null","","","","","","","","",""
"","","","","","html-button-response","28","78124","0.0-28.0","2A955BCC15B949D58486DBD2A72BC21C","019cf812-4e73-7620-ae24-09ca970b3d0c","019cf80d-4266-7117-8a51-54e13c84aca4","","767","
                <div class=""stimulus-container"">
                    <img src=""images/semantic_sequence/cat_care_semantic/cat_care_semantic_6.png"" class=""exp-image"">
                    <div class=""question-area"">
                        <p style=""font-size: 20px; font-weight: bold; margin: 0;"">Is there a person in this image?</p>
                    </div>
                </div>","0","main_experiment_trial","6","cat_care_semantic","semantic_sequence","","","","",""
"","","","","","html-keyboard-response","29","83126","0.0-29.0","2A955BCC15B949D58486DBD2A72BC21C","019cf812-4e73-7620-ae24-09ca970b3d0c","019cf80d-4266-7117-8a51-54e13c84aca4","","null","
                <div class=""stimulus-container"">
                    <img src=""images/semantic_sequence/cat_care_semantic/cat_care_semantic_7.png"" class=""exp-image"">
                    <div class=""question-area""></div> 
                </div>","null","","","","","","","","",""
"","","","","","html-button-response","30","83482","0.0-30.0","2A955BCC15B949D58486DBD2A72BC21C","019cf812-4e73-7620-ae24-09ca970b3d0c","019cf80d-4266-7117-8a51-54e13c84aca4","","353","
                <div class=""stimulus-container"">
                    <img src=""images/semantic_sequence/cat_care_semantic/cat_care_semantic_7.png"" class=""exp-image"">
                    <div class=""question-area"">
                        <p style=""font-size: 20px; font-weight: bold; margin: 0;"">Is there a person in this image?</p>
                    </div>
                </div>","0","main_experiment_trial","7","cat_care_semantic","semantic_sequence","","","","",""
"","","","","","html-keyboard-response","31","88484","0.0-31.0","2A955BCC15B949D58486DBD2A72BC21C","019cf812-4e73-7620-ae24-09ca970b3d0c","019cf80d-4266-7117-8a51-54e13c84aca4","","null","
                <div class=""stimulus-container"">
                    <img src=""images/semantic_sequence/cat_care_semantic/cat_care_semantic_8.png"" class=""exp-image"">
                    <div class=""question-area""></div> 
                </div>","null","","","","","","","","",""
"","","","","","html-button-response","32","89082","0.0-32.0","2A955BCC15B949D58486DBD2A72BC21C","019cf812-4e73-7620-ae24-09ca970b3d0c","019cf80d-4266-7117-8a51-54e13c84aca4","","595","
                <div class=""stimulus-container"">
                    <img src=""images/semantic_sequence/cat_care_semantic/cat_care_semantic_8.png"" class=""exp-image"">
                    <div class=""question-area"">
                        <p style=""font-size: 20px; font-weight: bold; margin: 0;"">Is there a person in this image?</p>
                    </div>
                </div>","0","main_experiment_trial","8","cat_care_semantic","semantic_sequence","","","","",""
"","","","","","html-keyboard-response","33","94084","0.0-33.0","2A955BCC15B949D58486DBD2A72BC21C","019cf812-4e73-7620-ae24-09ca970b3d0c","019cf80d-4266-7117-8a51-54e13c84aca4","","null","
                <div class=""stimulus-container"">
                    <img src=""images/semantic_sequence/cat_care_semantic/cat_care_semantic_9.png"" class=""exp-image"">
                    <div class=""question-area""></div> 
                </div>","null","","","","","","","","",""
"","","","","","html-button-response","34","94516","0.0-34.0","2A955BCC15B949D58486DBD2A72BC21C","019cf812-4e73-7620-ae24-09ca970b3d0c","019cf80d-4266-7117-8a51-54e13c84aca4","","429","
                <div class=""stimulus-container"">
                    <img src=""images/semantic_sequence/cat_care_semantic/cat_care_semantic_9.png"" class=""exp-image"">
                    <div class=""question-area"">
                        <p style=""font-size: 20px; font-weight: bold; margin: 0;"">Is there a person in this image?</p>
                    </div>
                </div>","0","main_experiment_trial","9","cat_care_semantic","semantic_sequence","","","","",""
"","","","","","html-keyboard-response","35","99518","0.0-35.0","2A955BCC15B949D58486DBD2A72BC21C","019cf812-4e73-7620-ae24-09ca970b3d0c","019cf80d-4266-7117-8a51-54e13c84aca4","","null","
                <div class=""stimulus-container"">
                    <img src=""images/semantic_sequence/cat_care_semantic/cat_care_semantic_ten.png"" class=""exp-image"">
                    <div class=""question-area""></div> 
                </div>","null","","","","","","","","",""
"","","","","","html-button-response","36","100296","0.0-36.0","2A955BCC15B949D58486DBD2A72BC21C","019cf812-4e73-7620-ae24-09ca970b3d0c","019cf80d-4266-7117-8a51-54e13c84aca4","","775","
                <div class=""stimulus-container"">
                    <img src=""images/semantic_sequence/cat_care_semantic/cat_care_semantic_ten.png"" class=""exp-image"">
                    <div class=""question-area"">
                        <p style=""font-size: 20px; font-weight: bold; margin: 0;"">Is there a person in this image?</p>
                    </div>
                </div>","1","main_experiment_trial","ten","cat_care_semantic","semantic_sequence","","","","",""
"","","","","","html-keyboard-response","37","101298","0.0-37.0","2A955BCC15B949D58486DBD2A72BC21C","019cf812-4e73-7620-ae24-09ca970b3d0c","019cf80d-4266-7117-8a51-54e13c84aca4","","null","<div style=""background-color: white; width: 100vw; height: 100vh;""></div>","null","","","","","","","","",""
"","","","","","html-keyboard-response","38","106300","0.0-38.0","2A955BCC15B949D58486DBD2A72BC21C","019cf812-4e73-7620-ae24-09ca970b3d0c","019cf80d-4266-7117-8a51-54e13c84aca4","","null","
                <div class=""stimulus-container"">
                    <img src=""images/semantic_sequence/market_semantic/market_semantic_1.png"" class=""exp-image"">
                    <div class=""question-area""></div> 
                </div>","null","","","","","","","","",""
"","","","","","html-button-response","39","107150","0.0-39.0","2A955BCC15B949D58486DBD2A72BC21C","019cf812-4e73-7620-ae24-09ca970b3d0c","019cf80d-4266-7117-8a51-54e13c84aca4","","847","
                <div class=""stimulus-container"">
                    <img src=""images/semantic_sequence/market_semantic/market_semantic_1.png"" class=""exp-image"">
                    <div class=""question-area"">
                        <p style=""font-size: 20px; font-weight: bold; margin: 0;"">Is there a person in this image?</p>
                    </div>
                </div>","1","main_experiment_trial","1","market_semantic","semantic_sequence","","","","",""
"","","","","","html-keyboard-response","40","112152","0.0-40.0","2A955BCC15B949D58486DBD2A72BC21C","019cf812-4e73-7620-ae24-09ca970b3d0c","019cf80d-4266-7117-8a51-54e13c84aca4","","null","
                <div class=""stimulus-container"">
                    <img src=""images/semantic_sequence/market_semantic/market_semantic_2.png"" class=""exp-image"">
                    <div class=""question-area""></div> 
                </div>","null","","","","","","","","",""
"","","","","","html-button-response","41","112828","0.0-41.0","2A955BCC15B949D58486DBD2A72BC21C","019cf812-4e73-7620-ae24-09ca970b3d0c","019cf80d-4266-7117-8a51-54e13c84aca4","","674","
                <div class=""stimulus-container"">
                    <img src=""images/semantic_sequence/market_semantic/market_semantic_2.png"" class=""exp-image"">
                    <div class=""question-area"">
                        <p style=""font-size: 20px; font-weight: bold; margin: 0;"">Is there a person in this image?</p>
                    </div>
                </div>","1","main_experiment_trial","2","market_semantic","semantic_sequence","","","","",""
"","","","","","html-keyboard-response","42","117830","0.0-42.0","2A955BCC15B949D58486DBD2A72BC21C","019cf812-4e73-7620-ae24-09ca970b3d0c","019cf80d-4266-7117-8a51-54e13c84aca4","","null","
                <div class=""stimulus-container"">
                    <img src=""images/semantic_sequence/market_semantic/market_semantic_3.png"" class=""exp-image"">
                    <div class=""question-area""></div> 
                </div>","null","","","","","","","","",""
"","","","","","html-button-response","43","118380","0.0-43.0","2A955BCC15B949D58486DBD2A72BC21C","019cf812-4e73-7620-ae24-09ca970b3d0c","019cf80d-4266-7117-8a51-54e13c84aca4","","548","
                <div class=""stimulus-container"">
                    <img src=""images/semantic_sequence/market_semantic/market_semantic_3.png"" class=""exp-image"">
                    <div class=""question-area"">
                        <p style=""font-size: 20px; font-weight: bold; margin: 0;"">Is there a person in this image?</p>
                    </div>
                </div>","1","main_experiment_trial","3","market_semantic","semantic_sequence","","","","",""
"","","","","","html-keyboard-response","44","123383","0.0-44.0","2A955BCC15B949D58486DBD2A72BC21C","019cf812-4e73-7620-ae24-09ca970b3d0c","019cf80d-4266-7117-8a51-54e13c84aca4","","null","
                <div class=""stimulus-container"">
                    <img src=""images/semantic_sequence/market_semantic/market_semantic_4.png"" class=""exp-image"">
                    <div class=""question-area""></div> 
                </div>","null","","","","","","","","",""
"","","","","","html-button-response","45","124176","0.0-45.0","2A955BCC15B949D58486DBD2A72BC21C","019cf812-4e73-7620-ae24-09ca970b3d0c","019cf80d-4266-7117-8a51-54e13c84aca4","","790","
                <div class=""stimulus-container"">
                    <img src=""images/semantic_sequence/market_semantic/market_semantic_4.png"" class=""exp-image"">
                    <div class=""question-area"">
                        <p style=""font-size: 20px; font-weight: bold; margin: 0;"">Is there a person in this image?</p>
                    </div>
                </div>","0","main_experiment_trial","4","market_semantic","semantic_sequence","","","","",""
"","","","","","html-keyboard-response","46","129178","0.0-46.0","2A955BCC15B949D58486DBD2A72BC21C","019cf812-4e73-7620-ae24-09ca970b3d0c","019cf80d-4266-7117-8a51-54e13c84aca4","","null","
                <div class=""stimulus-container"">
                    <img src=""images/semantic_sequence/market_semantic/market_semantic_5.png"" class=""exp-image"">
                    <div class=""question-area""></div> 
                </div>","null","","","","","","","","",""
"","","","","","html-button-response","47","129640","0.0-47.0","2A955BCC15B949D58486DBD2A72BC21C","019cf812-4e73-7620-ae24-09ca970b3d0c","019cf80d-4266-7117-8a51-54e13c84aca4","","459","
                <div class=""stimulus-container"">
                    <img src=""images/semantic_sequence/market_semantic/market_semantic_5.png"" class=""exp-image"">
                    <div class=""question-area"">
                        <p style=""font-size: 20px; font-weight: bold; margin: 0;"">Is there a person in this image?</p>
                    </div>
                </div>","1","main_experiment_trial","5","market_semantic","semantic_sequence","","","","",""
"","","","","","html-keyboard-response","48","134642","0.0-48.0","2A955BCC15B949D58486DBD2A72BC21C","019cf812-4e73-7620-ae24-09ca970b3d0c","019cf80d-4266-7117-8a51-54e13c84aca4","","null","
                <div class=""stimulus-container"">
                    <img src=""images/semantic_sequence/market_semantic/market_semantic_6.png"" class=""exp-image"">
                    <div class=""question-area""></div> 
                </div>","null","","","","","","","","",""
"","","","","","html-button-response","49","135064","0.0-49.0","2A955BCC15B949D58486DBD2A72BC21C","019cf812-4e73-7620-ae24-09ca970b3d0c","019cf80d-4266-7117-8a51-54e13c84aca4","","419","
                <div class=""stimulus-container"">
                    <img src=""images/semantic_sequence/market_semantic/market_semantic_6.png"" class=""exp-image"">
                    <div class=""question-area"">
                        <p style=""font-size: 20px; font-weight: bold; margin: 0;"">Is there a person in this image?</p>
                    </div>
                </div>","1","main_experiment_trial","6","market_semantic","semantic_sequence","","","","",""
"","","","","","html-keyboard-response","50","140066","0.0-50.0","2A955BCC15B949D58486DBD2A72BC21C","019cf812-4e73-7620-ae24-09ca970b3d0c","019cf80d-4266-7117-8a51-54e13c84aca4","","null","
                <div class=""stimulus-container"">
                    <img src=""images/semantic_sequence/market_semantic/market_semantic_7.png"" class=""exp-image"">
                    <div class=""question-area""></div> 
                </div>","null","","","","","","","","",""
"","","","","","html-button-response","51","141121","0.0-51.0","2A955BCC15B949D58486DBD2A72BC21C","019cf812-4e73-7620-ae24-09ca970b3d0c","019cf80d-4266-7117-8a51-54e13c84aca4","","1053","
                <div class=""stimulus-container"">
                    <img src=""images/semantic_sequence/market_semantic/market_semantic_7.png"" class=""exp-image"">
                    <div class=""question-area"">
                        <p style=""font-size: 20px; font-weight: bold; margin: 0;"">Is there a person in this image?</p>
                    </div>
                </div>","0","main_experiment_trial","7","market_semantic","semantic_sequence","","","","",""
"","","","","","html-keyboard-response","52","146124","0.0-52.0","2A955BCC15B949D58486DBD2A72BC21C","019cf812-4e73-7620-ae24-09ca970b3d0c","019cf80d-4266-7117-8a51-54e13c84aca4","","null","
                <div class=""stimulus-container"">
                    <img src=""images/semantic_sequence/market_semantic/market_semantic_8.png"" class=""exp-image"">
                    <div class=""question-area""></div> 
                </div>","null","","","","","","","","",""
"","","","","","html-button-response","53","147540","0.0-53.0","2A955BCC15B949D58486DBD2A72BC21C","019cf812-4e73-7620-ae24-09ca970b3d0c","019cf80d-4266-7117-8a51-54e13c84aca4","","1413","
                <div class=""stimulus-container"">
                    <img src=""images/semantic_sequence/market_semantic/market_semantic_8.png"" class=""exp-image"">
                    <div class=""question-area"">
                        <p style=""font-size: 20px; font-weight: bold; margin: 0;"">Is there a person in this image?</p>
                    </div>
                </div>","0","main_experiment_trial","8","market_semantic","semantic_sequence","","","","",""
"","","","","","html-keyboard-response","54","152542","0.0-54.0","2A955BCC15B949D58486DBD2A72BC21C","019cf812-4e73-7620-ae24-09ca970b3d0c","019cf80d-4266-7117-8a51-54e13c84aca4","","null","
                <div class=""stimulus-container"">
                    <img src=""images/semantic_sequence/market_semantic/market_semantic_9.png"" class=""exp-image"">
                    <div class=""question-area""></div> 
                </div>","null","","","","","","","","",""
"","","","","","html-button-response","55","153250","0.0-55.0","2A955BCC15B949D58486DBD2A72BC21C","019cf812-4e73-7620-ae24-09ca970b3d0c","019cf80d-4266-7117-8a51-54e13c84aca4","","706","
                <div class=""stimulus-container"">
                    <img src=""images/semantic_sequence/market_semantic/market_semantic_9.png"" class=""exp-image"">
                    <div class=""question-area"">
                        <p style=""font-size: 20px; font-weight: bold; margin: 0;"">Is there a person in this image?</p>
                    </div>
                </div>","0","main_experiment_trial","9","market_semantic","semantic_sequence","","","","",""
"","","","","","html-keyboard-response","56","158253","0.0-56.0","2A955BCC15B949D58486DBD2A72BC21C","019cf812-4e73-7620-ae24-09ca970b3d0c","019cf80d-4266-7117-8a51-54e13c84aca4","","null","
                <div class=""stimulus-container"">
                    <img src=""images/semantic_sequence/market_semantic/market_semantic_ten.png"" class=""exp-image"">
                    <div class=""question-area""></div> 
                </div>","null","","","","","","","","",""
"","","","","","html-button-response","57","159006","0.0-57.0","2A955BCC15B949D58486DBD2A72BC21C","019cf812-4e73-7620-ae24-09ca970b3d0c","019cf80d-4266-7117-8a51-54e13c84aca4","","749","
                <div class=""stimulus-container"">
                    <img src=""images/semantic_sequence/market_semantic/market_semantic_ten.png"" class=""exp-image"">
                    <div class=""question-area"">
                        <p style=""font-size: 20px; font-weight: bold; margin: 0;"">Is there a person in this image?</p>
                    </div>
                </div>","1","main_experiment_trial","ten","market_semantic","semantic_sequence","","","","",""
"","","","","","html-keyboard-response","58","160008","0.0-58.0","2A955BCC15B949D58486DBD2A72BC21C","019cf812-4e73-7620-ae24-09ca970b3d0c","019cf80d-4266-7117-8a51-54e13c84aca4","","null","<div style=""background-color: white; width: 100vw; height: 100vh;""></div>","null","","","","","","","","",""
"","","","","","html-keyboard-response","59","165010","0.0-59.0","2A955BCC15B949D58486DBD2A72BC21C","019cf812-4e73-7620-ae24-09ca970b3d0c","019cf80d-4266-7117-8a51-54e13c84aca4","","null","
                <div class=""stimulus-container"">
                    <img src=""images/semantic_sequence/using_technology_semantic/using_technology_semantic_1.png"" class=""exp-image"">
                    <div class=""question-area""></div> 
                </div>","null","","","","","","","","",""
"","","","","","html-button-response","60","165900","0.0-60.0","2A955BCC15B949D58486DBD2A72BC21C","019cf812-4e73-7620-ae24-09ca970b3d0c","019cf80d-4266-7117-8a51-54e13c84aca4","","887","
                <div class=""stimulus-container"">
                    <img src=""images/semantic_sequence/using_technology_semantic/using_technology_semantic_1.png"" class=""exp-image"">
                    <div class=""question-area"">
                        <p style=""font-size: 20px; font-weight: bold; margin: 0;"">Is there a person in this image?</p>
                    </div>
                </div>","0","main_experiment_trial","1","using_technology_semantic","semantic_sequence","","","","",""
"","","","","","html-keyboard-response","61","170902","0.0-61.0","2A955BCC15B949D58486DBD2A72BC21C","019cf812-4e73-7620-ae24-09ca970b3d0c","019cf80d-4266-7117-8a51-54e13c84aca4","","null","
                <div class=""stimulus-container"">
                    <img src=""images/semantic_sequence/using_technology_semantic/using_technology_semantic_2.png"" class=""exp-image"">
                    <div class=""question-area""></div> 
                </div>","null","","","","","","","","",""
"","","","","","html-button-response","62","172618","0.0-62.0","2A955BCC15B949D58486DBD2A72BC21C","019cf812-4e73-7620-ae24-09ca970b3d0c","019cf80d-4266-7117-8a51-54e13c84aca4","","1714","
                <div class=""stimulus-container"">
                    <img src=""images/semantic_sequence/using_technology_semantic/using_technology_semantic_2.png"" class=""exp-image"">
                    <div class=""question-area"">
                        <p style=""font-size: 20px; font-weight: bold; margin: 0;"">Is there a person in this image?</p>
                    </div>
                </div>","0","main_experiment_trial","2","using_technology_semantic","semantic_sequence","","","","",""
"","","","","","html-keyboard-response","63","177620","0.0-63.0","2A955BCC15B949D58486DBD2A72BC21C","019cf812-4e73-7620-ae24-09ca970b3d0c","019cf80d-4266-7117-8a51-54e13c84aca4","","null","
                <div class=""stimulus-container"">
                    <img src=""images/semantic_sequence/using_technology_semantic/using_technology_semantic_3.png"" class=""exp-image"">
                    <div class=""question-area""></div> 
                </div>","null","","","","","","","","",""
"","","","","","html-button-response","64","178446","0.0-64.0","2A955BCC15B949D58486DBD2A72BC21C","019cf812-4e73-7620-ae24-09ca970b3d0c","019cf80d-4266-7117-8a51-54e13c84aca4","","824","
                <div class=""stimulus-container"">
                    <img src=""images/semantic_sequence/using_technology_semantic/using_technology_semantic_3.png"" class=""exp-image"">
                    <div class=""question-area"">
                        <p style=""font-size: 20px; font-weight: bold; margin: 0;"">Is there a person in this image?</p>
                    </div>
                </div>","0","main_experiment_trial","3","using_technology_semantic","semantic_sequence","","","","",""
"","","","","","html-keyboard-response","65","183448","0.0-65.0","2A955BCC15B949D58486DBD2A72BC21C","019cf812-4e73-7620-ae24-09ca970b3d0c","019cf80d-4266-7117-8a51-54e13c84aca4","","null","
                <div class=""stimulus-container"">
                    <img src=""images/semantic_sequence/using_technology_semantic/using_technology_semantic_4.png"" class=""exp-image"">
                    <div class=""question-area""></div> 
                </div>","null","","","","","","","","",""
"","","","","","html-button-response","66","184036","0.0-66.0","2A955BCC15B949D58486DBD2A72BC21C","019cf812-4e73-7620-ae24-09ca970b3d0c","019cf80d-4266-7117-8a51-54e13c84aca4","","585","
                <div class=""stimulus-container"">
                    <img src=""images/semantic_sequence/using_technology_semantic/using_technology_semantic_4.png"" class=""exp-image"">
                    <div class=""question-area"">
                        <p style=""font-size: 20px; font-weight: bold; margin: 0;"">Is there a person in this image?</p>
                    </div>
                </div>","0","main_experiment_trial","4","using_technology_semantic","semantic_sequence","","","","",""
"","","","","","html-keyboard-response","67","189039","0.0-67.0","2A955BCC15B949D58486DBD2A72BC21C","019cf812-4e73-7620-ae24-09ca970b3d0c","019cf80d-4266-7117-8a51-54e13c84aca4","","null","
                <div class=""stimulus-container"">
                    <img src=""images/semantic_sequence/using_technology_semantic/using_technology_semantic_5.png"" class=""exp-image"">
                    <div class=""question-area""></div> 
                </div>","null","","","","","","","","",""
"","","","","","html-button-response","68","189972","0.0-68.0","2A955BCC15B949D58486DBD2A72BC21C","019cf812-4e73-7620-ae24-09ca970b3d0c","019cf80d-4266-7117-8a51-54e13c84aca4","","931","
                <div class=""stimulus-container"">
                    <img src=""images/semantic_sequence/using_technology_semantic/using_technology_semantic_5.png"" class=""exp-image"">
                    <div class=""question-area"">
                        <p style=""font-size: 20px; font-weight: bold; margin: 0;"">Is there a person in this image?</p>
                    </div>
                </div>","0","main_experiment_trial","5","using_technology_semantic","semantic_sequence","","","","",""
"","","","","","html-keyboard-response","69","194975","0.0-69.0","2A955BCC15B949D58486DBD2A72BC21C","019cf812-4e73-7620-ae24-09ca970b3d0c","019cf80d-4266-7117-8a51-54e13c84aca4","","null","
                <div class=""stimulus-container"">
                    <img src=""images/semantic_sequence/using_technology_semantic/using_technology_semantic_6.png"" class=""exp-image"">
                    <div class=""question-area""></div> 
                </div>","null","","","","","","","","",""
"","","","","","html-button-response","70","196037","0.0-70.0","2A955BCC15B949D58486DBD2A72BC21C","019cf812-4e73-7620-ae24-09ca970b3d0c","019cf80d-4266-7117-8a51-54e13c84aca4","","1060","
                <div class=""stimulus-container"">
                    <img src=""images/semantic_sequence/using_technology_semantic/using_technology_semantic_6.png"" class=""exp-image"">
                    <div class=""question-area"">
                        <p style=""font-size: 20px; font-weight: bold; margin: 0;"">Is there a person in this image?</p>
                    </div>
                </div>","0","main_experiment_trial","6","using_technology_semantic","semantic_sequence","","","","",""
"","","","","","html-keyboard-response","71","201039","0.0-71.0","2A955BCC15B949D58486DBD2A72BC21C","019cf812-4e73-7620-ae24-09ca970b3d0c","019cf80d-4266-7117-8a51-54e13c84aca4","","null","
                <div class=""stimulus-container"">
                    <img src=""images/semantic_sequence/using_technology_semantic/using_technology_semantic_7.png"" class=""exp-image"">
                    <div class=""question-area""></div> 
                </div>","null","","","","","","","","",""
"","","","","","html-button-response","72","201744","0.0-72.0","2A955BCC15B949D58486DBD2A72BC21C","019cf812-4e73-7620-ae24-09ca970b3d0c","019cf80d-4266-7117-8a51-54e13c84aca4","","702","
                <div class=""stimulus-container"">
                    <img src=""images/semantic_sequence/using_technology_semantic/using_technology_semantic_7.png"" class=""exp-image"">
                    <div class=""question-area"">
                        <p style=""font-size: 20px; font-weight: bold; margin: 0;"">Is there a person in this image?</p>
                    </div>
                </div>","0","main_experiment_trial","7","using_technology_semantic","semantic_sequence","","","","",""
"","","","","","html-keyboard-response","73","206746","0.0-73.0","2A955BCC15B949D58486DBD2A72BC21C","019cf812-4e73-7620-ae24-09ca970b3d0c","019cf80d-4266-7117-8a51-54e13c84aca4","","null","
                <div class=""stimulus-container"">
                    <img src=""images/semantic_sequence/using_technology_semantic/using_technology_semantic_8.png"" class=""exp-image"">
                    <div class=""question-area""></div> 
                </div>","null","","","","","","","","",""
"","","","","","html-button-response","74","207428","0.0-74.0","2A955BCC15B949D58486DBD2A72BC21C","019cf812-4e73-7620-ae24-09ca970b3d0c","019cf80d-4266-7117-8a51-54e13c84aca4","","679","
                <div class=""stimulus-container"">
                    <img src=""images/semantic_sequence/using_technology_semantic/using_technology_semantic_8.png"" class=""exp-image"">
                    <div class=""question-area"">
                        <p style=""font-size: 20px; font-weight: bold; margin: 0;"">Is there a person in this image?</p>
                    </div>
                </div>","0","main_experiment_trial","8","using_technology_semantic","semantic_sequence","","","","",""
"","","","","","html-keyboard-response","75","212430","0.0-75.0","2A955BCC15B949D58486DBD2A72BC21C","019cf812-4e73-7620-ae24-09ca970b3d0c","019cf80d-4266-7117-8a51-54e13c84aca4","","null","
                <div class=""stimulus-container"">
                    <img src=""images/semantic_sequence/using_technology_semantic/using_technology_semantic_9.png"" class=""exp-image"">
                    <div class=""question-area""></div> 
                </div>","null","","","","","","","","",""
"","","","","","html-button-response","76","212851","0.0-76.0","2A955BCC15B949D58486DBD2A72BC21C","019cf812-4e73-7620-ae24-09ca970b3d0c","019cf80d-4266-7117-8a51-54e13c84aca4","","419","
                <div class=""stimulus-container"">
                    <img src=""images/semantic_sequence/using_technology_semantic/using_technology_semantic_9.png"" class=""exp-image"">
                    <div class=""question-area"">
                        <p style=""font-size: 20px; font-weight: bold; margin: 0;"">Is there a person in this image?</p>
                    </div>
                </div>","0","main_experiment_trial","9","using_technology_semantic","semantic_sequence","","","","",""
"","","","","","html-keyboard-response","77","217854","0.0-77.0","2A955BCC15B949D58486DBD2A72BC21C","019cf812-4e73-7620-ae24-09ca970b3d0c","019cf80d-4266-7117-8a51-54e13c84aca4","","null","
                <div class=""stimulus-container"">
                    <img src=""images/semantic_sequence/using_technology_semantic/using_technology_semantic_ten.png"" class=""exp-image"">
                    <div class=""question-area""></div> 
                </div>","null","","","","","","","","",""
"","","","","","html-button-response","78","218276","0.0-78.0","2A955BCC15B949D58486DBD2A72BC21C","019cf812-4e73-7620-ae24-09ca970b3d0c","019cf80d-4266-7117-8a51-54e13c84aca4","","420","
                <div class=""stimulus-container"">
                    <img src=""images/semantic_sequence/using_technology_semantic/using_technology_semantic_ten.png"" class=""exp-image"">
                    <div class=""question-area"">
                        <p style=""font-size: 20px; font-weight: bold; margin: 0;"">Is there a person in this image?</p>
                    </div>
                </div>","0","main_experiment_trial","ten","using_technology_semantic","semantic_sequence","","","","",""
"","","","","","html-keyboard-response","79","219279","0.0-79.0","2A955BCC15B949D58486DBD2A72BC21C","019cf812-4e73-7620-ae24-09ca970b3d0c","019cf80d-4266-7117-8a51-54e13c84aca4","","null","<div style=""background-color: white; width: 100vw; height: 100vh;""></div>","null","","","","","","","","",""
"","","","","","html-keyboard-response","80","224281","0.0-80.0","2A955BCC15B949D58486DBD2A72BC21C","019cf812-4e73-7620-ae24-09ca970b3d0c","019cf80d-4266-7117-8a51-54e13c84aca4","","null","
                <div class=""stimulus-container"">
                    <img src=""images/semantic_sequence/physical_activity_semantic/physical_activity_semantic_1.png"" class=""exp-image"">
                    <div class=""question-area""></div> 
                </div>","null","","","","","","","","",""
"","","","","","html-button-response","81","224956","0.0-81.0","2A955BCC15B949D58486DBD2A72BC21C","019cf812-4e73-7620-ae24-09ca970b3d0c","019cf80d-4266-7117-8a51-54e13c84aca4","","673","
                <div class=""stimulus-container"">
                    <img src=""images/semantic_sequence/physical_activity_semantic/physical_activity_semantic_1.png"" class=""exp-image"">
                    <div class=""question-area"">
                        <p style=""font-size: 20px; font-weight: bold; margin: 0;"">Is there a person in this image?</p>
                    </div>
                </div>","0","main_experiment_trial","1","physical_activity_semantic","semantic_sequence","","","","",""
"","","","","","html-keyboard-response","82","229958","0.0-82.0","2A955BCC15B949D58486DBD2A72BC21C","019cf812-4e73-7620-ae24-09ca970b3d0c","019cf80d-4266-7117-8a51-54e13c84aca4","","null","
                <div class=""stimulus-container"">
                    <img src=""images/semantic_sequence/physical_activity_semantic/physical_activity_semantic_2.png"" class=""exp-image"">
                    <div class=""question-area""></div> 
                </div>","null","","","","","","","","",""
"","","","","","html-button-response","83","231744","0.0-83.0","2A955BCC15B949D58486DBD2A72BC21C","019cf812-4e73-7620-ae24-09ca970b3d0c","019cf80d-4266-7117-8a51-54e13c84aca4","","1784","
                <div class=""stimulus-container"">
                    <img src=""images/semantic_sequence/physical_activity_semantic/physical_activity_semantic_2.png"" class=""exp-image"">
                    <div class=""question-area"">
                        <p style=""font-size: 20px; font-weight: bold; margin: 0;"">Is there a person in this image?</p>
                    </div>
                </div>","0","main_experiment_trial","2","physical_activity_semantic","semantic_sequence","","","","",""
"","","","","","html-keyboard-response","84","236746","0.0-84.0","2A955BCC15B949D58486DBD2A72BC21C","019cf812-4e73-7620-ae24-09ca970b3d0c","019cf80d-4266-7117-8a51-54e13c84aca4","","null","
                <div class=""stimulus-container"">
                    <img src=""images/semantic_sequence/physical_activity_semantic/physical_activity_semantic_3.png"" class=""exp-image"">
                    <div class=""question-area""></div> 
                </div>","null","","","","","","","","",""
"","","","","","html-button-response","85","237849","0.0-85.0","2A955BCC15B949D58486DBD2A72BC21C","019cf812-4e73-7620-ae24-09ca970b3d0c","019cf80d-4266-7117-8a51-54e13c84aca4","","1100","
                <div class=""stimulus-container"">
                    <img src=""images/semantic_sequence/physical_activity_semantic/physical_activity_semantic_3.png"" class=""exp-image"">
                    <div class=""question-area"">
                        <p style=""font-size: 20px; font-weight: bold; margin: 0;"">Is there a person in this image?</p>
                    </div>
                </div>","0","main_experiment_trial","3","physical_activity_semantic","semantic_sequence","","","","",""
"","","","","","html-keyboard-response","86","242852","0.0-86.0","2A955BCC15B949D58486DBD2A72BC21C","019cf812-4e73-7620-ae24-09ca970b3d0c","019cf80d-4266-7117-8a51-54e13c84aca4","","null","
                <div class=""stimulus-container"">
                    <img src=""images/semantic_sequence/physical_activity_semantic/physical_activity_semantic_4.png"" class=""exp-image"">
                    <div class=""question-area""></div> 
                </div>","null","","","","","","","","",""
"","","","","","html-button-response","87","243397","0.0-87.0","2A955BCC15B949D58486DBD2A72BC21C","019cf812-4e73-7620-ae24-09ca970b3d0c","019cf80d-4266-7117-8a51-54e13c84aca4","","544","
                <div class=""stimulus-container"">
                    <img src=""images/semantic_sequence/physical_activity_semantic/physical_activity_semantic_4.png"" class=""exp-image"">
                    <div class=""question-area"">
                        <p style=""font-size: 20px; font-weight: bold; margin: 0;"">Is there a person in this image?</p>
                    </div>
                </div>","0","main_experiment_trial","4","physical_activity_semantic","semantic_sequence","","","","",""
"","","","","","html-keyboard-response","88","248400","0.0-88.0","2A955BCC15B949D58486DBD2A72BC21C","019cf812-4e73-7620-ae24-09ca970b3d0c","019cf80d-4266-7117-8a51-54e13c84aca4","","null","
                <div class=""stimulus-container"">
                    <img src=""images/semantic_sequence/physical_activity_semantic/physical_activity_semantic_5.png"" class=""exp-image"">
                    <div class=""question-area""></div> 
                </div>","null","","","","","","","","",""
"","","","","","html-button-response","89","248884","0.0-89.0","2A955BCC15B949D58486DBD2A72BC21C","019cf812-4e73-7620-ae24-09ca970b3d0c","019cf80d-4266-7117-8a51-54e13c84aca4","","481","
                <div class=""stimulus-container"">
                    <img src=""images/semantic_sequence/physical_activity_semantic/physical_activity_semantic_5.png"" class=""exp-image"">
                    <div class=""question-area"">
                        <p style=""font-size: 20px; font-weight: bold; margin: 0;"">Is there a person in this image?</p>
                    </div>
                </div>","0","main_experiment_trial","5","physical_activity_semantic","semantic_sequence","","","","",""
"","","","","","html-keyboard-response","90","253886","0.0-90.0","2A955BCC15B949D58486DBD2A72BC21C","019cf812-4e73-7620-ae24-09ca970b3d0c","019cf80d-4266-7117-8a51-54e13c84aca4","","null","
                <div class=""stimulus-container"">
                    <img src=""images/semantic_sequence/physical_activity_semantic/physical_activity_semantic_6.png"" class=""exp-image"">
                    <div class=""question-area""></div> 
                </div>","null","","","","","","","","",""
"","","","","","html-button-response","91","254262","0.0-91.0","2A955BCC15B949D58486DBD2A72BC21C","019cf812-4e73-7620-ae24-09ca970b3d0c","019cf80d-4266-7117-8a51-54e13c84aca4","","373","
                <div class=""stimulus-container"">
                    <img src=""images/semantic_sequence/physical_activity_semantic/physical_activity_semantic_6.png"" class=""exp-image"">
                    <div class=""question-area"">
                        <p style=""font-size: 20px; font-weight: bold; margin: 0;"">Is there a person in this image?</p>
                    </div>
                </div>","0","main_experiment_trial","6","physical_activity_semantic","semantic_sequence","","","","",""
"","","","","","html-keyboard-response","92","259264","0.0-92.0","2A955BCC15B949D58486DBD2A72BC21C","019cf812-4e73-7620-ae24-09ca970b3d0c","019cf80d-4266-7117-8a51-54e13c84aca4","","null","
                <div class=""stimulus-container"">
                    <img src=""images/semantic_sequence/physical_activity_semantic/physical_activity_semantic_7.png"" class=""exp-image"">
                    <div class=""question-area""></div> 
                </div>","null","","","","","","","","",""
"","","","","","html-button-response","93","260932","0.0-93.0","2A955BCC15B949D58486DBD2A72BC21C","019cf812-4e73-7620-ae24-09ca970b3d0c","019cf80d-4266-7117-8a51-54e13c84aca4","","1666","
                <div class=""stimulus-container"">
                    <img src=""images/semantic_sequence/physical_activity_semantic/physical_activity_semantic_7.png"" class=""exp-image"">
                    <div class=""question-area"">
                        <p style=""font-size: 20px; font-weight: bold; margin: 0;"">Is there a person in this image?</p>
                    </div>
                </div>","0","main_experiment_trial","7","physical_activity_semantic","semantic_sequence","","","","",""
"","","","","","html-keyboard-response","94","265934","0.0-94.0","2A955BCC15B949D58486DBD2A72BC21C","019cf812-4e73-7620-ae24-09ca970b3d0c","019cf80d-4266-7117-8a51-54e13c84aca4","","null","
                <div class=""stimulus-container"">
                    <img src=""images/semantic_sequence/physical_activity_semantic/physical_activity_semantic_8.png"" class=""exp-image"">
                    <div class=""question-area""></div> 
                </div>","null","","","","","","","","",""
"","","","","","html-button-response","95","266600","0.0-95.0","2A955BCC15B949D58486DBD2A72BC21C","019cf812-4e73-7620-ae24-09ca970b3d0c","019cf80d-4266-7117-8a51-54e13c84aca4","","663","
                <div class=""stimulus-container"">
                    <img src=""images/semantic_sequence/physical_activity_semantic/physical_activity_semantic_8.png"" class=""exp-image"">
                    <div class=""question-area"">
                        <p style=""font-size: 20px; font-weight: bold; margin: 0;"">Is there a person in this image?</p>
                    </div>
                </div>","0","main_experiment_trial","8","physical_activity_semantic","semantic_sequence","","","","",""
"","","","","","html-keyboard-response","96","271602","0.0-96.0","2A955BCC15B949D58486DBD2A72BC21C","019cf812-4e73-7620-ae24-09ca970b3d0c","019cf80d-4266-7117-8a51-54e13c84aca4","","null","
                <div class=""stimulus-container"">
                    <img src=""images/semantic_sequence/physical_activity_semantic/physical_activity_semantic_9.png"" class=""exp-image"">
                    <div class=""question-area""></div> 
                </div>","null","","","","","","","","",""
"","","","","","html-button-response","97","272393","0.0-97.0","2A955BCC15B949D58486DBD2A72BC21C","019cf812-4e73-7620-ae24-09ca970b3d0c","019cf80d-4266-7117-8a51-54e13c84aca4","","789","
                <div class=""stimulus-container"">
                    <img src=""images/semantic_sequence/physical_activity_semantic/physical_activity_semantic_9.png"" class=""exp-image"">
                    <div class=""question-area"">
                        <p style=""font-size: 20px; font-weight: bold; margin: 0;"">Is there a person in this image?</p>
                    </div>
                </div>","0","main_experiment_trial","9","physical_activity_semantic","semantic_sequence","","","","",""
"","","","","","html-keyboard-response","98","277396","0.0-98.0","2A955BCC15B949D58486DBD2A72BC21C","019cf812-4e73-7620-ae24-09ca970b3d0c","019cf80d-4266-7117-8a51-54e13c84aca4","","null","
                <div class=""stimulus-container"">
                    <img src=""images/semantic_sequence/physical_activity_semantic/physical_activity_semantic_ten.png"" class=""exp-image"">
                    <div class=""question-area""></div> 
                </div>","null","","","","","","","","",""
"","","","","","html-button-response","99","277866","0.0-99.0","2A955BCC15B949D58486DBD2A72BC21C","019cf812-4e73-7620-ae24-09ca970b3d0c","019cf80d-4266-7117-8a51-54e13c84aca4","","467","
                <div class=""stimulus-container"">
                    <img src=""images/semantic_sequence/physical_activity_semantic/physical_activity_semantic_ten.png"" class=""exp-image"">
                    <div class=""question-area"">
                        <p style=""font-size: 20px; font-weight: bold; margin: 0;"">Is there a person in this image?</p>
                    </div>
                </div>","0","main_experiment_trial","ten","physical_activity_semantic","semantic_sequence","","","","",""
"","","","","","html-keyboard-response","100","278867","0.0-100.0","2A955BCC15B949D58486DBD2A72BC21C","019cf812-4e73-7620-ae24-09ca970b3d0c","019cf80d-4266-7117-8a51-54e13c84aca4","","null","<div style=""background-color: white; width: 100vw; height: 100vh;""></div>","null","","","","","","","","",""
"","","","","","html-keyboard-response","101","283869","0.0-101.0","2A955BCC15B949D58486DBD2A72BC21C","019cf812-4e73-7620-ae24-09ca970b3d0c","019cf80d-4266-7117-8a51-54e13c84aca4","","null","
                <div class=""stimulus-container"">
                    <img src=""images/schematic_sequence/dinner_party_scheme/dinner_party_scheme_1.png"" class=""exp-image"">
                    <div class=""question-area""></div> 
                </div>","null","","","","","","","","",""
"","","","","","html-button-response","102","284249","0.0-102.0","2A955BCC15B949D58486DBD2A72BC21C","019cf812-4e73-7620-ae24-09ca970b3d0c","019cf80d-4266-7117-8a51-54e13c84aca4","","378","
                <div class=""stimulus-container"">
                    <img src=""images/schematic_sequence/dinner_party_scheme/dinner_party_scheme_1.png"" class=""exp-image"">
                    <div class=""question-area"">
                        <p style=""font-size: 20px; font-weight: bold; margin: 0;"">Is there a person in this image?</p>
                    </div>
                </div>","0","main_experiment_trial","1","dinner_party_scheme","schematic_sequence","","","","",""
"","","","","","html-keyboard-response","103","289252","0.0-103.0","2A955BCC15B949D58486DBD2A72BC21C","019cf812-4e73-7620-ae24-09ca970b3d0c","019cf80d-4266-7117-8a51-54e13c84aca4","","null","
                <div class=""stimulus-container"">
                    <img src=""images/schematic_sequence/dinner_party_scheme/dinner_party_scheme_2.png"" class=""exp-image"">
                    <div class=""question-area""></div> 
                </div>","null","","","","","","","","",""
"","","","","","html-button-response","104","290014","0.0-104.0","2A955BCC15B949D58486DBD2A72BC21C","019cf812-4e73-7620-ae24-09ca970b3d0c","019cf80d-4266-7117-8a51-54e13c84aca4","","759","
                <div class=""stimulus-container"">
                    <img src=""images/schematic_sequence/dinner_party_scheme/dinner_party_scheme_2.png"" class=""exp-image"">
                    <div class=""question-area"">
                        <p style=""font-size: 20px; font-weight: bold; margin: 0;"">Is there a person in this image?</p>
                    </div>
                </div>","0","main_experiment_trial","2","dinner_party_scheme","schematic_sequence","","","","",""
"","","","","","html-keyboard-response","105","295016","0.0-105.0","2A955BCC15B949D58486DBD2A72BC21C","019cf812-4e73-7620-ae24-09ca970b3d0c","019cf80d-4266-7117-8a51-54e13c84aca4","","null","
                <div class=""stimulus-container"">
                    <img src=""images/schematic_sequence/dinner_party_scheme/dinner_party_scheme_3.png"" class=""exp-image"">
                    <div class=""question-area""></div> 
                </div>","null","","","","","","","","",""
"","","","","","html-button-response","106","295358","0.0-106.0","2A955BCC15B949D58486DBD2A72BC21C","019cf812-4e73-7620-ae24-09ca970b3d0c","019cf80d-4266-7117-8a51-54e13c84aca4","","339","
                <div class=""stimulus-container"">
                    <img src=""images/schematic_sequence/dinner_party_scheme/dinner_party_scheme_3.png"" class=""exp-image"">
                    <div class=""question-area"">
                        <p style=""font-size: 20px; font-weight: bold; margin: 0;"">Is there a person in this image?</p>
                    </div>
                </div>","0","main_experiment_trial","3","dinner_party_scheme","schematic_sequence","","","","",""
"","","","","","html-keyboard-response","107","300360","0.0-107.0","2A955BCC15B949D58486DBD2A72BC21C","019cf812-4e73-7620-ae24-09ca970b3d0c","019cf80d-4266-7117-8a51-54e13c84aca4","","null","
                <div class=""stimulus-container"">
                    <img src=""images/schematic_sequence/dinner_party_scheme/dinner_party_scheme_4.png"" class=""exp-image"">
                    <div class=""question-area""></div> 
                </div>","null","","","","","","","","",""
"","","","","","html-button-response","108","301149","0.0-108.0","2A955BCC15B949D58486DBD2A72BC21C","019cf812-4e73-7620-ae24-09ca970b3d0c","019cf80d-4266-7117-8a51-54e13c84aca4","","787","
                <div class=""stimulus-container"">
                    <img src=""images/schematic_sequence/dinner_party_scheme/dinner_party_scheme_4.png"" class=""exp-image"">
                    <div class=""question-area"">
                        <p style=""font-size: 20px; font-weight: bold; margin: 0;"">Is there a person in this image?</p>
                    </div>
                </div>","0","main_experiment_trial","4","dinner_party_scheme","schematic_sequence","","","","",""
"","","","","","html-keyboard-response","109","306151","0.0-109.0","2A955BCC15B949D58486DBD2A72BC21C","019cf812-4e73-7620-ae24-09ca970b3d0c","019cf80d-4266-7117-8a51-54e13c84aca4","","null","
                <div class=""stimulus-container"">
                    <img src=""images/schematic_sequence/dinner_party_scheme/dinner_party_scheme_5.png"" class=""exp-image"">
                    <div class=""question-area""></div> 
                </div>","null","","","","","","","","",""
"","","","","","html-button-response","110","306558","0.0-110.0","2A955BCC15B949D58486DBD2A72BC21C","019cf812-4e73-7620-ae24-09ca970b3d0c","019cf80d-4266-7117-8a51-54e13c84aca4","","404","
                <div class=""stimulus-container"">
                    <img src=""images/schematic_sequence/dinner_party_scheme/dinner_party_scheme_5.png"" class=""exp-image"">
                    <div class=""question-area"">
                        <p style=""font-size: 20px; font-weight: bold; margin: 0;"">Is there a person in this image?</p>
                    </div>
                </div>","0","main_experiment_trial","5","dinner_party_scheme","schematic_sequence","","","","",""
"","","","","","html-keyboard-response","111","311560","0.0-111.0","2A955BCC15B949D58486DBD2A72BC21C","019cf812-4e73-7620-ae24-09ca970b3d0c","019cf80d-4266-7117-8a51-54e13c84aca4","","null","
                <div class=""stimulus-container"">
                    <img src=""images/schematic_sequence/dinner_party_scheme/dinner_party_scheme_6.png"" class=""exp-image"">
                    <div class=""question-area""></div> 
                </div>","null","","","","","","","","",""
"","","","","","html-button-response","112","311924","0.0-112.0","2A955BCC15B949D58486DBD2A72BC21C","019cf812-4e73-7620-ae24-09ca970b3d0c","019cf80d-4266-7117-8a51-54e13c84aca4","","361","
                <div class=""stimulus-container"">
                    <img src=""images/schematic_sequence/dinner_party_scheme/dinner_party_scheme_6.png"" class=""exp-image"">
                    <div class=""question-area"">
                        <p style=""font-size: 20px; font-weight: bold; margin: 0;"">Is there a person in this image?</p>
                    </div>
                </div>","0","main_experiment_trial","6","dinner_party_scheme","schematic_sequence","","","","",""
"","","","","","html-keyboard-response","113","316926","0.0-113.0","2A955BCC15B949D58486DBD2A72BC21C","019cf812-4e73-7620-ae24-09ca970b3d0c","019cf80d-4266-7117-8a51-54e13c84aca4","","null","
                <div class=""stimulus-container"">
                    <img src=""images/schematic_sequence/dinner_party_scheme/dinner_party_scheme_7.png"" class=""exp-image"">
                    <div class=""question-area""></div> 
                </div>","null","","","","","","","","",""
"","","","","","html-button-response","114","317470","0.0-114.0","2A955BCC15B949D58486DBD2A72BC21C","019cf812-4e73-7620-ae24-09ca970b3d0c","019cf80d-4266-7117-8a51-54e13c84aca4","","541","
                <div class=""stimulus-container"">
                    <img src=""images/schematic_sequence/dinner_party_scheme/dinner_party_scheme_7.png"" class=""exp-image"">
                    <div class=""question-area"">
                        <p style=""font-size: 20px; font-weight: bold; margin: 0;"">Is there a person in this image?</p>
                    </div>
                </div>","0","main_experiment_trial","7","dinner_party_scheme","schematic_sequence","","","","",""
"","","","","","html-keyboard-response","115","322472","0.0-115.0","2A955BCC15B949D58486DBD2A72BC21C","019cf812-4e73-7620-ae24-09ca970b3d0c","019cf80d-4266-7117-8a51-54e13c84aca4","","null","
                <div class=""stimulus-container"">
                    <img src=""images/schematic_sequence/dinner_party_scheme/dinner_party_scheme_8.png"" class=""exp-image"">
                    <div class=""question-area""></div> 
                </div>","null","","","","","","","","",""
"","","","","","html-button-response","116","322884","0.0-116.0","2A955BCC15B949D58486DBD2A72BC21C","019cf812-4e73-7620-ae24-09ca970b3d0c","019cf80d-4266-7117-8a51-54e13c84aca4","","409","
                <div class=""stimulus-container"">
                    <img src=""images/schematic_sequence/dinner_party_scheme/dinner_party_scheme_8.png"" class=""exp-image"">
                    <div class=""question-area"">
                        <p style=""font-size: 20px; font-weight: bold; margin: 0;"">Is there a person in this image?</p>
                    </div>
                </div>","0","main_experiment_trial","8","dinner_party_scheme","schematic_sequence","","","","",""
"","","","","","html-keyboard-response","117","327886","0.0-117.0","2A955BCC15B949D58486DBD2A72BC21C","019cf812-4e73-7620-ae24-09ca970b3d0c","019cf80d-4266-7117-8a51-54e13c84aca4","","null","
                <div class=""stimulus-container"">
                    <img src=""images/schematic_sequence/dinner_party_scheme/dinner_party_scheme_9.png"" class=""exp-image"">
                    <div class=""question-area""></div> 
                </div>","null","","","","","","","","",""
"","","","","","html-button-response","118","328458","0.0-118.0","2A955BCC15B949D58486DBD2A72BC21C","019cf812-4e73-7620-ae24-09ca970b3d0c","019cf80d-4266-7117-8a51-54e13c84aca4","","569","
                <div class=""stimulus-container"">
                    <img src=""images/schematic_sequence/dinner_party_scheme/dinner_party_scheme_9.png"" class=""exp-image"">
                    <div class=""question-area"">
                        <p style=""font-size: 20px; font-weight: bold; margin: 0;"">Is there a person in this image?</p>
                    </div>
                </div>","0","main_experiment_trial","9","dinner_party_scheme","schematic_sequence","","","","",""
"","","","","","html-keyboard-response","119","333460","0.0-119.0","2A955BCC15B949D58486DBD2A72BC21C","019cf812-4e73-7620-ae24-09ca970b3d0c","019cf80d-4266-7117-8a51-54e13c84aca4","","null","
                <div class=""stimulus-container"">
                    <img src=""images/schematic_sequence/dinner_party_scheme/dinner_party_scheme_ten.png"" class=""exp-image"">
                    <div class=""question-area""></div> 
                </div>","null","","","","","","","","",""
"","","","","","html-button-response","120","333913","0.0-120.0","2A955BCC15B949D58486DBD2A72BC21C","019cf812-4e73-7620-ae24-09ca970b3d0c","019cf80d-4266-7117-8a51-54e13c84aca4","","451","
                <div class=""stimulus-container"">
                    <img src=""images/schematic_sequence/dinner_party_scheme/dinner_party_scheme_ten.png"" class=""exp-image"">
                    <div class=""question-area"">
                        <p style=""font-size: 20px; font-weight: bold; margin: 0;"">Is there a person in this image?</p>
                    </div>
                </div>","0","main_experiment_trial","ten","dinner_party_scheme","schematic_sequence","","","","",""
"","","","","","html-keyboard-response","121","334915","0.0-121.0","2A955BCC15B949D58486DBD2A72BC21C","019cf812-4e73-7620-ae24-09ca970b3d0c","019cf80d-4266-7117-8a51-54e13c84aca4","","null","<div style=""background-color: white; width: 100vw; height: 100vh;""></div>","null","","","","","","","","",""
"","","","","","html-keyboard-response","122","339917","0.0-122.0","2A955BCC15B949D58486DBD2A72BC21C","019cf812-4e73-7620-ae24-09ca970b3d0c","019cf80d-4266-7117-8a51-54e13c84aca4","","null","
                <div class=""stimulus-container"">
                    <img src=""images/semantic_sequence/redecorating_a_house_semantic/redecorating_a_house_semantic_1.png"" class=""exp-image"">
                    <div class=""question-area""></div> 
                </div>","null","","","","","","","","",""
"","","","","","html-button-response","123","340327","0.0-123.0","2A955BCC15B949D58486DBD2A72BC21C","019cf812-4e73-7620-ae24-09ca970b3d0c","019cf80d-4266-7117-8a51-54e13c84aca4","","408","
                <div class=""stimulus-container"">
                    <img src=""images/semantic_sequence/redecorating_a_house_semantic/redecorating_a_house_semantic_1.png"" class=""exp-image"">
                    <div class=""question-area"">
                        <p style=""font-size: 20px; font-weight: bold; margin: 0;"">Is there a person in this image?</p>
                    </div>
                </div>","0","main_experiment_trial","1","redecorating_a_house_semantic","semantic_sequence","","","","",""
"","","","","","html-keyboard-response","124","345330","0.0-124.0","2A955BCC15B949D58486DBD2A72BC21C","019cf812-4e73-7620-ae24-09ca970b3d0c","019cf80d-4266-7117-8a51-54e13c84aca4","","null","
                <div class=""stimulus-container"">
                    <img src=""images/semantic_sequence/redecorating_a_house_semantic/redecorating_a_house_semantic_2.png"" class=""exp-image"">
                    <div class=""question-area""></div> 
                </div>","null","","","","","","","","",""
"","","","","","html-button-response","125","345762","0.0-125.0","2A955BCC15B949D58486DBD2A72BC21C","019cf812-4e73-7620-ae24-09ca970b3d0c","019cf80d-4266-7117-8a51-54e13c84aca4","","429","
                <div class=""stimulus-container"">
                    <img src=""images/semantic_sequence/redecorating_a_house_semantic/redecorating_a_house_semantic_2.png"" class=""exp-image"">
                    <div class=""question-area"">
                        <p style=""font-size: 20px; font-weight: bold; margin: 0;"">Is there a person in this image?</p>
                    </div>
                </div>","0","main_experiment_trial","2","redecorating_a_house_semantic","semantic_sequence","","","","",""
"","","","","","html-keyboard-response","126","350764","0.0-126.0","2A955BCC15B949D58486DBD2A72BC21C","019cf812-4e73-7620-ae24-09ca970b3d0c","019cf80d-4266-7117-8a51-54e13c84aca4","","null","
                <div class=""stimulus-container"">
                    <img src=""images/semantic_sequence/redecorating_a_house_semantic/redecorating_a_house_semantic_3.png"" class=""exp-image"">
                    <div class=""question-area""></div> 
                </div>","null","","","","","","","","",""
"","","","","","html-button-response","127","351374","0.0-127.0","2A955BCC15B949D58486DBD2A72BC21C","019cf812-4e73-7620-ae24-09ca970b3d0c","019cf80d-4266-7117-8a51-54e13c84aca4","","607","
                <div class=""stimulus-container"">
                    <img src=""images/semantic_sequence/redecorating_a_house_semantic/redecorating_a_house_semantic_3.png"" class=""exp-image"">
                    <div class=""question-area"">
                        <p style=""font-size: 20px; font-weight: bold; margin: 0;"">Is there a person in this image?</p>
                    </div>
                </div>","0","main_experiment_trial","3","redecorating_a_house_semantic","semantic_sequence","","","","",""
"","","","","","html-keyboard-response","128","356376","0.0-128.0","2A955BCC15B949D58486DBD2A72BC21C","019cf812-4e73-7620-ae24-09ca970b3d0c","019cf80d-4266-7117-8a51-54e13c84aca4","","null","
                <div class=""stimulus-container"">
                    <img src=""images/semantic_sequence/redecorating_a_house_semantic/redecorating_a_house_semantic_4.png"" class=""exp-image"">
                    <div class=""question-area""></div> 
                </div>","null","","","","","","","","",""
"","","","","","html-button-response","129","357090","0.0-129.0","2A955BCC15B949D58486DBD2A72BC21C","019cf812-4e73-7620-ae24-09ca970b3d0c","019cf80d-4266-7117-8a51-54e13c84aca4","","711","
                <div class=""stimulus-container"">
                    <img src=""images/semantic_sequence/redecorating_a_house_semantic/redecorating_a_house_semantic_4.png"" class=""exp-image"">
                    <div class=""question-area"">
                        <p style=""font-size: 20px; font-weight: bold; margin: 0;"">Is there a person in this image?</p>
                    </div>
                </div>","0","main_experiment_trial","4","redecorating_a_house_semantic","semantic_sequence","","","","",""
"","","","","","html-keyboard-response","130","362092","0.0-130.0","2A955BCC15B949D58486DBD2A72BC21C","019cf812-4e73-7620-ae24-09ca970b3d0c","019cf80d-4266-7117-8a51-54e13c84aca4","","null","
                <div class=""stimulus-container"">
                    <img src=""images/semantic_sequence/redecorating_a_house_semantic/redecorating_a_house_semantic_5.png"" class=""exp-image"">
                    <div class=""question-area""></div> 
                </div>","null","","","","","","","","",""
"","","","","","html-button-response","131","362460","0.0-131.0","2A955BCC15B949D58486DBD2A72BC21C","019cf812-4e73-7620-ae24-09ca970b3d0c","019cf80d-4266-7117-8a51-54e13c84aca4","","365","
                <div class=""stimulus-container"">
                    <img src=""images/semantic_sequence/redecorating_a_house_semantic/redecorating_a_house_semantic_5.png"" class=""exp-image"">
                    <div class=""question-area"">
                        <p style=""font-size: 20px; font-weight: bold; margin: 0;"">Is there a person in this image?</p>
                    </div>
                </div>","0","main_experiment_trial","5","redecorating_a_house_semantic","semantic_sequence","","","","",""
"","","","","","html-keyboard-response","132","367462","0.0-132.0","2A955BCC15B949D58486DBD2A72BC21C","019cf812-4e73-7620-ae24-09ca970b3d0c","019cf80d-4266-7117-8a51-54e13c84aca4","","null","
                <div class=""stimulus-container"">
                    <img src=""images/semantic_sequence/redecorating_a_house_semantic/redecorating_a_house_semantic_6.png"" class=""exp-image"">
                    <div class=""question-area""></div> 
                </div>","null","","","","","","","","",""
"","","","","","html-button-response","133","368353","0.0-133.0","2A955BCC15B949D58486DBD2A72BC21C","019cf812-4e73-7620-ae24-09ca970b3d0c","019cf80d-4266-7117-8a51-54e13c84aca4","","890","
                <div class=""stimulus-container"">
                    <img src=""images/semantic_sequence/redecorating_a_house_semantic/redecorating_a_house_semantic_6.png"" class=""exp-image"">
                    <div class=""question-area"">
                        <p style=""font-size: 20px; font-weight: bold; margin: 0;"">Is there a person in this image?</p>
                    </div>
                </div>","0","main_experiment_trial","6","redecorating_a_house_semantic","semantic_sequence","","","","",""
"","","","","","html-keyboard-response","134","373356","0.0-134.0","2A955BCC15B949D58486DBD2A72BC21C","019cf812-4e73-7620-ae24-09ca970b3d0c","019cf80d-4266-7117-8a51-54e13c84aca4","","null","
                <div class=""stimulus-container"">
                    <img src=""images/semantic_sequence/redecorating_a_house_semantic/redecorating_a_house_semantic_7.png"" class=""exp-image"">
                    <div class=""question-area""></div> 
                </div>","null","","","","","","","","",""
"","","","","","html-button-response","135","374342","0.0-135.0","2A955BCC15B949D58486DBD2A72BC21C","019cf812-4e73-7620-ae24-09ca970b3d0c","019cf80d-4266-7117-8a51-54e13c84aca4","","985","
                <div class=""stimulus-container"">
                    <img src=""images/semantic_sequence/redecorating_a_house_semantic/redecorating_a_house_semantic_7.png"" class=""exp-image"">
                    <div class=""question-area"">
                        <p style=""font-size: 20px; font-weight: bold; margin: 0;"">Is there a person in this image?</p>
                    </div>
                </div>","0","main_experiment_trial","7","redecorating_a_house_semantic","semantic_sequence","","","","",""
"","","","","","html-keyboard-response","136","379343","0.0-136.0","2A955BCC15B949D58486DBD2A72BC21C","019cf812-4e73-7620-ae24-09ca970b3d0c","019cf80d-4266-7117-8a51-54e13c84aca4","","null","
                <div class=""stimulus-container"">
                    <img src=""images/semantic_sequence/redecorating_a_house_semantic/redecorating_a_house_semantic_8.png"" class=""exp-image"">
                    <div class=""question-area""></div> 
                </div>","null","","","","","","","","",""
"","","","","","html-button-response","137","380452","0.0-137.0","2A955BCC15B949D58486DBD2A72BC21C","019cf812-4e73-7620-ae24-09ca970b3d0c","019cf80d-4266-7117-8a51-54e13c84aca4","","1106","
                <div class=""stimulus-container"">
                    <img src=""images/semantic_sequence/redecorating_a_house_semantic/redecorating_a_house_semantic_8.png"" class=""exp-image"">
                    <div class=""question-area"">
                        <p style=""font-size: 20px; font-weight: bold; margin: 0;"">Is there a person in this image?</p>
                    </div>
                </div>","0","main_experiment_trial","8","redecorating_a_house_semantic","semantic_sequence","","","","",""
"","","","","","html-keyboard-response","138","385454","0.0-138.0","2A955BCC15B949D58486DBD2A72BC21C","019cf812-4e73-7620-ae24-09ca970b3d0c","019cf80d-4266-7117-8a51-54e13c84aca4","","null","
                <div class=""stimulus-container"">
                    <img src=""images/semantic_sequence/redecorating_a_house_semantic/redecorating_a_house_semantic_9.png"" class=""exp-image"">
                    <div class=""question-area""></div> 
                </div>","null","","","","","","","","",""
"","","","","","html-button-response","139","385954","0.0-139.0","2A955BCC15B949D58486DBD2A72BC21C","019cf812-4e73-7620-ae24-09ca970b3d0c","019cf80d-4266-7117-8a51-54e13c84aca4","","497","
                <div class=""stimulus-container"">
                    <img src=""images/semantic_sequence/redecorating_a_house_semantic/redecorating_a_house_semantic_9.png"" class=""exp-image"">
                    <div class=""question-area"">
                        <p style=""font-size: 20px; font-weight: bold; margin: 0;"">Is there a person in this image?</p>
                    </div>
                </div>","0","main_experiment_trial","9","redecorating_a_house_semantic","semantic_sequence","","","","",""
"","","","","","html-keyboard-response","140","390956","0.0-140.0","2A955BCC15B949D58486DBD2A72BC21C","019cf812-4e73-7620-ae24-09ca970b3d0c","019cf80d-4266-7117-8a51-54e13c84aca4","","null","
                <div class=""stimulus-container"">
                    <img src=""images/semantic_sequence/redecorating_a_house_semantic/redecorating_a_house_semantic_ten.png"" class=""exp-image"">
                    <div class=""question-area""></div> 
                </div>","null","","","","","","","","",""
"","","","","","html-button-response","141","391350","0.0-141.0","2A955BCC15B949D58486DBD2A72BC21C","019cf812-4e73-7620-ae24-09ca970b3d0c","019cf80d-4266-7117-8a51-54e13c84aca4","","391","
                <div class=""stimulus-container"">
                    <img src=""images/semantic_sequence/redecorating_a_house_semantic/redecorating_a_house_semantic_ten.png"" class=""exp-image"">
                    <div class=""question-area"">
                        <p style=""font-size: 20px; font-weight: bold; margin: 0;"">Is there a person in this image?</p>
                    </div>
                </div>","0","main_experiment_trial","ten","redecorating_a_house_semantic","semantic_sequence","","","","",""
"","","","","","html-keyboard-response","142","392354","0.0-142.0","2A955BCC15B949D58486DBD2A72BC21C","019cf812-4e73-7620-ae24-09ca970b3d0c","019cf80d-4266-7117-8a51-54e13c84aca4","","null","<div style=""background-color: white; width: 100vw; height: 100vh;""></div>","null","","","","","","","","",""
"","","","","","html-keyboard-response","143","397356","0.0-143.0","2A955BCC15B949D58486DBD2A72BC21C","019cf812-4e73-7620-ae24-09ca970b3d0c","019cf80d-4266-7117-8a51-54e13c84aca4","","null","
                <div class=""stimulus-container"">
                    <img src=""images/schematic_sequence/flight_scheme/flight_scheme_1.png"" class=""exp-image"">
                    <div class=""question-area""></div> 
                </div>","null","","","","","","","","",""
"","","","","","html-button-response","144","398102","0.0-144.0","2A955BCC15B949D58486DBD2A72BC21C","019cf812-4e73-7620-ae24-09ca970b3d0c","019cf80d-4266-7117-8a51-54e13c84aca4","","742","
                <div class=""stimulus-container"">
                    <img src=""images/schematic_sequence/flight_scheme/flight_scheme_1.png"" class=""exp-image"">
                    <div class=""question-area"">
                        <p style=""font-size: 20px; font-weight: bold; margin: 0;"">Is there a person in this image?</p>
                    </div>
                </div>","0","main_experiment_trial","1","flight_scheme","schematic_sequence","","","","",""
"","","","","","html-keyboard-response","145","403104","0.0-145.0","2A955BCC15B949D58486DBD2A72BC21C","019cf812-4e73-7620-ae24-09ca970b3d0c","019cf80d-4266-7117-8a51-54e13c84aca4","","null","
                <div class=""stimulus-container"">
                    <img src=""images/schematic_sequence/flight_scheme/flight_scheme_2.png"" class=""exp-image"">
                    <div class=""question-area""></div> 
                </div>","null","","","","","","","","",""
"","","","","","html-button-response","146","403682","0.0-146.0","2A955BCC15B949D58486DBD2A72BC21C","019cf812-4e73-7620-ae24-09ca970b3d0c","019cf80d-4266-7117-8a51-54e13c84aca4","","575","
                <div class=""stimulus-container"">
                    <img src=""images/schematic_sequence/flight_scheme/flight_scheme_2.png"" class=""exp-image"">
                    <div class=""question-area"">
                        <p style=""font-size: 20px; font-weight: bold; margin: 0;"">Is there a person in this image?</p>
                    </div>
                </div>","1","main_experiment_trial","2","flight_scheme","schematic_sequence","","","","",""
"","","","","","html-keyboard-response","147","408684","0.0-147.0","2A955BCC15B949D58486DBD2A72BC21C","019cf812-4e73-7620-ae24-09ca970b3d0c","019cf80d-4266-7117-8a51-54e13c84aca4","","null","
                <div class=""stimulus-container"">
                    <img src=""images/schematic_sequence/flight_scheme/flight_scheme_3.png"" class=""exp-image"">
                    <div class=""question-area""></div> 
                </div>","null","","","","","","","","",""
"","","","","","html-button-response","148","409586","0.0-148.0","2A955BCC15B949D58486DBD2A72BC21C","019cf812-4e73-7620-ae24-09ca970b3d0c","019cf80d-4266-7117-8a51-54e13c84aca4","","899","
                <div class=""stimulus-container"">
                    <img src=""images/schematic_sequence/flight_scheme/flight_scheme_3.png"" class=""exp-image"">
                    <div class=""question-area"">
                        <p style=""font-size: 20px; font-weight: bold; margin: 0;"">Is there a person in this image?</p>
                    </div>
                </div>","0","main_experiment_trial","3","flight_scheme","schematic_sequence","","","","",""
"","","","","","html-keyboard-response","149","414588","0.0-149.0","2A955BCC15B949D58486DBD2A72BC21C","019cf812-4e73-7620-ae24-09ca970b3d0c","019cf80d-4266-7117-8a51-54e13c84aca4","","null","
                <div class=""stimulus-container"">
                    <img src=""images/schematic_sequence/flight_scheme/flight_scheme_4.png"" class=""exp-image"">
                    <div class=""question-area""></div> 
                </div>","null","","","","","","","","",""
"","","","","","html-button-response","150","415017","0.0-150.0","2A955BCC15B949D58486DBD2A72BC21C","019cf812-4e73-7620-ae24-09ca970b3d0c","019cf80d-4266-7117-8a51-54e13c84aca4","","427","
                <div class=""stimulus-container"">
                    <img src=""images/schematic_sequence/flight_scheme/flight_scheme_4.png"" class=""exp-image"">
                    <div class=""question-area"">
                        <p style=""font-size: 20px; font-weight: bold; margin: 0;"">Is there a person in this image?</p>
                    </div>
                </div>","0","main_experiment_trial","4","flight_scheme","schematic_sequence","","","","",""
"","","","","","html-keyboard-response","151","420020","0.0-151.0","2A955BCC15B949D58486DBD2A72BC21C","019cf812-4e73-7620-ae24-09ca970b3d0c","019cf80d-4266-7117-8a51-54e13c84aca4","","null","
                <div class=""stimulus-container"">
                    <img src=""images/schematic_sequence/flight_scheme/flight_scheme_5.png"" class=""exp-image"">
                    <div class=""question-area""></div> 
                </div>","null","","","","","","","","",""
"","","","","","html-button-response","152","420566","0.0-152.0","2A955BCC15B949D58486DBD2A72BC21C","019cf812-4e73-7620-ae24-09ca970b3d0c","019cf80d-4266-7117-8a51-54e13c84aca4","","544","
                <div class=""stimulus-container"">
                    <img src=""images/schematic_sequence/flight_scheme/flight_scheme_5.png"" class=""exp-image"">
                    <div class=""question-area"">
                        <p style=""font-size: 20px; font-weight: bold; margin: 0;"">Is there a person in this image?</p>
                    </div>
                </div>","0","main_experiment_trial","5","flight_scheme","schematic_sequence","","","","",""
"","","","","","html-keyboard-response","153","425568","0.0-153.0","2A955BCC15B949D58486DBD2A72BC21C","019cf812-4e73-7620-ae24-09ca970b3d0c","019cf80d-4266-7117-8a51-54e13c84aca4","","null","
                <div class=""stimulus-container"">
                    <img src=""images/schematic_sequence/flight_scheme/flight_scheme_6.png"" class=""exp-image"">
                    <div class=""question-area""></div> 
                </div>","null","","","","","","","","",""
"","","","","","html-button-response","154","427602","0.0-154.0","2A955BCC15B949D58486DBD2A72BC21C","019cf812-4e73-7620-ae24-09ca970b3d0c","019cf80d-4266-7117-8a51-54e13c84aca4","","2031","
                <div class=""stimulus-container"">
                    <img src=""images/schematic_sequence/flight_scheme/flight_scheme_6.png"" class=""exp-image"">
                    <div class=""question-area"">
                        <p style=""font-size: 20px; font-weight: bold; margin: 0;"">Is there a person in this image?</p>
                    </div>
                </div>","1","main_experiment_trial","6","flight_scheme","schematic_sequence","","","","",""
"","","","","","html-keyboard-response","155","432604","0.0-155.0","2A955BCC15B949D58486DBD2A72BC21C","019cf812-4e73-7620-ae24-09ca970b3d0c","019cf80d-4266-7117-8a51-54e13c84aca4","","null","
                <div class=""stimulus-container"">
                    <img src=""images/schematic_sequence/flight_scheme/flight_scheme_7.png"" class=""exp-image"">
                    <div class=""question-area""></div> 
                </div>","null","","","","","","","","",""
"","","","","","html-button-response","156","433402","0.0-156.0","2A955BCC15B949D58486DBD2A72BC21C","019cf812-4e73-7620-ae24-09ca970b3d0c","019cf80d-4266-7117-8a51-54e13c84aca4","","795","
                <div class=""stimulus-container"">
                    <img src=""images/schematic_sequence/flight_scheme/flight_scheme_7.png"" class=""exp-image"">
                    <div class=""question-area"">
                        <p style=""font-size: 20px; font-weight: bold; margin: 0;"">Is there a person in this image?</p>
                    </div>
                </div>","1","main_experiment_trial","7","flight_scheme","schematic_sequence","","","","",""
"","","","","","html-keyboard-response","157","438404","0.0-157.0","2A955BCC15B949D58486DBD2A72BC21C","019cf812-4e73-7620-ae24-09ca970b3d0c","019cf80d-4266-7117-8a51-54e13c84aca4","","null","
                <div class=""stimulus-container"">
                    <img src=""images/schematic_sequence/flight_scheme/flight_scheme_8.png"" class=""exp-image"">
                    <div class=""question-area""></div> 
                </div>","null","","","","","","","","",""
"","","","","","html-button-response","158","438815","0.0-158.0","2A955BCC15B949D58486DBD2A72BC21C","019cf812-4e73-7620-ae24-09ca970b3d0c","019cf80d-4266-7117-8a51-54e13c84aca4","","409","
                <div class=""stimulus-container"">
                    <img src=""images/schematic_sequence/flight_scheme/flight_scheme_8.png"" class=""exp-image"">
                    <div class=""question-area"">
                        <p style=""font-size: 20px; font-weight: bold; margin: 0;"">Is there a person in this image?</p>
                    </div>
                </div>","1","main_experiment_trial","8","flight_scheme","schematic_sequence","","","","",""
"","","","","","html-keyboard-response","159","443817","0.0-159.0","2A955BCC15B949D58486DBD2A72BC21C","019cf812-4e73-7620-ae24-09ca970b3d0c","019cf80d-4266-7117-8a51-54e13c84aca4","","null","
                <div class=""stimulus-container"">
                    <img src=""images/schematic_sequence/flight_scheme/flight_scheme_9.png"" class=""exp-image"">
                    <div class=""question-area""></div> 
                </div>","null","","","","","","","","",""
"","","","","","html-button-response","160","445905","0.0-160.0","2A955BCC15B949D58486DBD2A72BC21C","019cf812-4e73-7620-ae24-09ca970b3d0c","019cf80d-4266-7117-8a51-54e13c84aca4","","2086","
                <div class=""stimulus-container"">
                    <img src=""images/schematic_sequence/flight_scheme/flight_scheme_9.png"" class=""exp-image"">
                    <div class=""question-area"">
                        <p style=""font-size: 20px; font-weight: bold; margin: 0;"">Is there a person in this image?</p>
                    </div>
                </div>","0","main_experiment_trial","9","flight_scheme","schematic_sequence","","","","",""
"","","","","","html-keyboard-response","161","450908","0.0-161.0","2A955BCC15B949D58486DBD2A72BC21C","019cf812-4e73-7620-ae24-09ca970b3d0c","019cf80d-4266-7117-8a51-54e13c84aca4","","null","
                <div class=""stimulus-container"">
                    <img src=""images/schematic_sequence/flight_scheme/flight_scheme_ten.png"" class=""exp-image"">
                    <div class=""question-area""></div> 
                </div>","null","","","","","","","","",""
"","","","","","html-button-response","162","451448","0.0-162.0","2A955BCC15B949D58486DBD2A72BC21C","019cf812-4e73-7620-ae24-09ca970b3d0c","019cf80d-4266-7117-8a51-54e13c84aca4","","538","
                <div class=""stimulus-container"">
                    <img src=""images/schematic_sequence/flight_scheme/flight_scheme_ten.png"" class=""exp-image"">
                    <div class=""question-area"">
                        <p style=""font-size: 20px; font-weight: bold; margin: 0;"">Is there a person in this image?</p>
                    </div>
                </div>","0","main_experiment_trial","ten","flight_scheme","schematic_sequence","","","","",""
"","","","","","html-keyboard-response","163","452449","0.0-163.0","2A955BCC15B949D58486DBD2A72BC21C","019cf812-4e73-7620-ae24-09ca970b3d0c","019cf80d-4266-7117-8a51-54e13c84aca4","","null","<div style=""background-color: white; width: 100vw; height: 100vh;""></div>","null","","","","","","","","",""
"","","","","","html-keyboard-response","164","457451","0.0-164.0","2A955BCC15B949D58486DBD2A72BC21C","019cf812-4e73-7620-ae24-09ca970b3d0c","019cf80d-4266-7117-8a51-54e13c84aca4","","null","
                <div class=""stimulus-container"">
                    <img src=""images/schematic_sequence/interview_scheme/interview_scheme_1.png"" class=""exp-image"">
                    <div class=""question-area""></div> 
                </div>","null","","","","","","","","",""
"","","","","","html-button-response","165","458836","0.0-165.0","2A955BCC15B949D58486DBD2A72BC21C","019cf812-4e73-7620-ae24-09ca970b3d0c","019cf80d-4266-7117-8a51-54e13c84aca4","","1381","
                <div class=""stimulus-container"">
                    <img src=""images/schematic_sequence/interview_scheme/interview_scheme_1.png"" class=""exp-image"">
                    <div class=""question-area"">
                        <p style=""font-size: 20px; font-weight: bold; margin: 0;"">Is there a person in this image?</p>
                    </div>
                </div>","1","main_experiment_trial","1","interview_scheme","schematic_sequence","","","","",""
"","","","","","html-keyboard-response","166","463838","0.0-166.0","2A955BCC15B949D58486DBD2A72BC21C","019cf812-4e73-7620-ae24-09ca970b3d0c","019cf80d-4266-7117-8a51-54e13c84aca4","","null","
                <div class=""stimulus-container"">
                    <img src=""images/schematic_sequence/interview_scheme/interview_scheme_2.png"" class=""exp-image"">
                    <div class=""question-area""></div> 
                </div>","null","","","","","","","","",""
"","","","","","html-button-response","167","464928","0.0-167.0","2A955BCC15B949D58486DBD2A72BC21C","019cf812-4e73-7620-ae24-09ca970b3d0c","019cf80d-4266-7117-8a51-54e13c84aca4","","1087","
                <div class=""stimulus-container"">
                    <img src=""images/schematic_sequence/interview_scheme/interview_scheme_2.png"" class=""exp-image"">
                    <div class=""question-area"">
                        <p style=""font-size: 20px; font-weight: bold; margin: 0;"">Is there a person in this image?</p>
                    </div>
                </div>","0","main_experiment_trial","2","interview_scheme","schematic_sequence","","","","",""
"","","","","","html-keyboard-response","168","469930","0.0-168.0","2A955BCC15B949D58486DBD2A72BC21C","019cf812-4e73-7620-ae24-09ca970b3d0c","019cf80d-4266-7117-8a51-54e13c84aca4","","null","
                <div class=""stimulus-container"">
                    <img src=""images/schematic_sequence/interview_scheme/interview_scheme_3.png"" class=""exp-image"">
                    <div class=""question-area""></div> 
                </div>","null","","","","","","","","",""
"","","","","","html-button-response","169","470998","0.0-169.0","2A955BCC15B949D58486DBD2A72BC21C","019cf812-4e73-7620-ae24-09ca970b3d0c","019cf80d-4266-7117-8a51-54e13c84aca4","","1065","
                <div class=""stimulus-container"">
                    <img src=""images/schematic_sequence/interview_scheme/interview_scheme_3.png"" class=""exp-image"">
                    <div class=""question-area"">
                        <p style=""font-size: 20px; font-weight: bold; margin: 0;"">Is there a person in this image?</p>
                    </div>
                </div>","1","main_experiment_trial","3","interview_scheme","schematic_sequence","","","","",""
"","","","","","html-keyboard-response","170","476000","0.0-170.0","2A955BCC15B949D58486DBD2A72BC21C","019cf812-4e73-7620-ae24-09ca970b3d0c","019cf80d-4266-7117-8a51-54e13c84aca4","","null","
                <div class=""stimulus-container"">
                    <img src=""images/schematic_sequence/interview_scheme/interview_scheme_4.png"" class=""exp-image"">
                    <div class=""question-area""></div> 
                </div>","null","","","","","","","","",""
"","","","","","html-button-response","171","476874","0.0-171.0","2A955BCC15B949D58486DBD2A72BC21C","019cf812-4e73-7620-ae24-09ca970b3d0c","019cf80d-4266-7117-8a51-54e13c84aca4","","871","
                <div class=""stimulus-container"">
                    <img src=""images/schematic_sequence/interview_scheme/interview_scheme_4.png"" class=""exp-image"">
                    <div class=""question-area"">
                        <p style=""font-size: 20px; font-weight: bold; margin: 0;"">Is there a person in this image?</p>
                    </div>
                </div>","1","main_experiment_trial","4","interview_scheme","schematic_sequence","","","","",""
"","","","","","html-keyboard-response","172","481876","0.0-172.0","2A955BCC15B949D58486DBD2A72BC21C","019cf812-4e73-7620-ae24-09ca970b3d0c","019cf80d-4266-7117-8a51-54e13c84aca4","","null","
                <div class=""stimulus-container"">
                    <img src=""images/schematic_sequence/interview_scheme/interview_scheme_5.png"" class=""exp-image"">
                    <div class=""question-area""></div> 
                </div>","null","","","","","","","","",""
"","","","","","html-button-response","173","482734","0.0-173.0","2A955BCC15B949D58486DBD2A72BC21C","019cf812-4e73-7620-ae24-09ca970b3d0c","019cf80d-4266-7117-8a51-54e13c84aca4","","855","
                <div class=""stimulus-container"">
                    <img src=""images/schematic_sequence/interview_scheme/interview_scheme_5.png"" class=""exp-image"">
                    <div class=""question-area"">
                        <p style=""font-size: 20px; font-weight: bold; margin: 0;"">Is there a person in this image?</p>
                    </div>
                </div>","0","main_experiment_trial","5","interview_scheme","schematic_sequence","","","","",""
"","","","","","html-keyboard-response","174","487736","0.0-174.0","2A955BCC15B949D58486DBD2A72BC21C","019cf812-4e73-7620-ae24-09ca970b3d0c","019cf80d-4266-7117-8a51-54e13c84aca4","","null","
                <div class=""stimulus-container"">
                    <img src=""images/schematic_sequence/interview_scheme/interview_scheme_6.png"" class=""exp-image"">
                    <div class=""question-area""></div> 
                </div>","null","","","","","","","","",""
"","","","","","html-button-response","175","489368","0.0-175.0","2A955BCC15B949D58486DBD2A72BC21C","019cf812-4e73-7620-ae24-09ca970b3d0c","019cf80d-4266-7117-8a51-54e13c84aca4","","1629","
                <div class=""stimulus-container"">
                    <img src=""images/schematic_sequence/interview_scheme/interview_scheme_6.png"" class=""exp-image"">
                    <div class=""question-area"">
                        <p style=""font-size: 20px; font-weight: bold; margin: 0;"">Is there a person in this image?</p>
                    </div>
                </div>","0","main_experiment_trial","6","interview_scheme","schematic_sequence","","","","",""
"","","","","","html-keyboard-response","176","494370","0.0-176.0","2A955BCC15B949D58486DBD2A72BC21C","019cf812-4e73-7620-ae24-09ca970b3d0c","019cf80d-4266-7117-8a51-54e13c84aca4","","null","
                <div class=""stimulus-container"">
                    <img src=""images/schematic_sequence/interview_scheme/interview_scheme_7.png"" class=""exp-image"">
                    <div class=""question-area""></div> 
                </div>","null","","","","","","","","",""
"","","","","","html-button-response","177","496019","0.0-177.0","2A955BCC15B949D58486DBD2A72BC21C","019cf812-4e73-7620-ae24-09ca970b3d0c","019cf80d-4266-7117-8a51-54e13c84aca4","","1647","
                <div class=""stimulus-container"">
                    <img src=""images/schematic_sequence/interview_scheme/interview_scheme_7.png"" class=""exp-image"">
                    <div class=""question-area"">
                        <p style=""font-size: 20px; font-weight: bold; margin: 0;"">Is there a person in this image?</p>
                    </div>
                </div>","0","main_experiment_trial","7","interview_scheme","schematic_sequence","","","","",""
"","","","","","html-keyboard-response","178","501021","0.0-178.0","2A955BCC15B949D58486DBD2A72BC21C","019cf812-4e73-7620-ae24-09ca970b3d0c","019cf80d-4266-7117-8a51-54e13c84aca4","","null","
                <div class=""stimulus-container"">
                    <img src=""images/schematic_sequence/interview_scheme/interview_scheme_8.png"" class=""exp-image"">
                    <div class=""question-area""></div> 
                </div>","null","","","","","","","","",""
"","","","","","html-button-response","179","501659","0.0-179.0","2A955BCC15B949D58486DBD2A72BC21C","019cf812-4e73-7620-ae24-09ca970b3d0c","019cf80d-4266-7117-8a51-54e13c84aca4","","636","
                <div class=""stimulus-container"">
                    <img src=""images/schematic_sequence/interview_scheme/interview_scheme_8.png"" class=""exp-image"">
                    <div class=""question-area"">
                        <p style=""font-size: 20px; font-weight: bold; margin: 0;"">Is there a person in this image?</p>
                    </div>
                </div>","0","main_experiment_trial","8","interview_scheme","schematic_sequence","","","","",""
"","","","","","html-keyboard-response","180","506662","0.0-180.0","2A955BCC15B949D58486DBD2A72BC21C","019cf812-4e73-7620-ae24-09ca970b3d0c","019cf80d-4266-7117-8a51-54e13c84aca4","","null","
