"success","timeout","failed_images","failed_audio","failed_video","trial_type","trial_index","time_elapsed","internal_node_id","subject_id","study_id","session_id","view_history","rt","stimulus","response","task","image_index","folder","sequence_type","valuable_image_index","reward_type","lucky_X","chosen_image_index","valuable_folder","neutral_folder","correct_choice"
"true","false","[]","[]","[]","preload","0","2316","0.0-0.0","609C9111BE2A48C5B58EF8BF35EED539","019cee1d-b92d-7626-8249-d83a95506c88","019cee19-8919-70b9-b165-8101f98d5def","","","","","","","","","","","","","","",""
"","","","","","instructions","1","7589","0.0-1.0","609C9111BE2A48C5B58EF8BF35EED539","019cee1d-b92d-7626-8249-d83a95506c88","019cee19-8919-70b9-b165-8101f98d5def","[{""page_index"":0,""viewing_time"":5272}]","5272","","","","","","","","","","","","",""
"","","","","","instructions","2","36484","0.0-2.0","609C9111BE2A48C5B58EF8BF35EED539","019cee1d-b92d-7626-8249-d83a95506c88","019cee19-8919-70b9-b165-8101f98d5def","[{""page_index"":0,""viewing_time"":28895}]","28895","","","","","","","","","","","","",""
"true","","","","","fullscreen","3","38910","0.0-3.0","609C9111BE2A48C5B58EF8BF35EED539","019cee1d-b92d-7626-8249-d83a95506c88","019cee19-8919-70b9-b165-8101f98d5def","","1418","","","","","","","","","","","","",""
"","","","","","instructions","4","49790","0.0-4.0","609C9111BE2A48C5B58EF8BF35EED539","019cee1d-b92d-7626-8249-d83a95506c88","019cee19-8919-70b9-b165-8101f98d5def","[{""page_index"":0,""viewing_time"":10879}]","10879","","","","","","","","","","","","",""
"","","","","","instructions","5","57575","0.0-5.0","609C9111BE2A48C5B58EF8BF35EED539","019cee1d-b92d-7626-8249-d83a95506c88","019cee19-8919-70b9-b165-8101f98d5def","[{""page_index"":0,""viewing_time"":7784}]","7784","","","","","","","","","","","","",""
"","","","","","html-keyboard-response","6","61793","0.0-6.0","609C9111BE2A48C5B58EF8BF35EED539","019cee1d-b92d-7626-8249-d83a95506c88","019cee19-8919-70b9-b165-8101f98d5def","","null","
                <div class=""stimulus-container"">
                    <img src=""images/instructions/movie_1.png"" class=""exp-image"">
                    <div class=""question-area""></div> 
                </div>","null","","","","","","","","","","",""
"","","","","","html-button-response","7","64800","0.0-7.0","609C9111BE2A48C5B58EF8BF35EED539","019cee1d-b92d-7626-8249-d83a95506c88","019cee19-8919-70b9-b165-8101f98d5def","","null","
                <div class=""stimulus-container"">
                    <img src=""images/instructions/movie_1.png"" class=""exp-image"">
                    <div class=""question-area"">
                        <p style=""font-size: 20px; font-weight: bold; margin: 0;"">Was there a person in this image?</p>
                    </div>
                </div>","null","example_question","1","","","","","","","","",""
"","","","","","html-keyboard-response","8","68803","0.0-8.0","609C9111BE2A48C5B58EF8BF35EED539","019cee1d-b92d-7626-8249-d83a95506c88","019cee19-8919-70b9-b165-8101f98d5def","","null","
                <div class=""stimulus-container"">
                    <img src=""images/instructions/movie_2.png"" class=""exp-image"">
                    <div class=""question-area""></div> 
                </div>","null","","","","","","","","","","",""
"","","","","","html-button-response","9","69668","0.0-9.0","609C9111BE2A48C5B58EF8BF35EED539","019cee1d-b92d-7626-8249-d83a95506c88","019cee19-8919-70b9-b165-8101f98d5def","","863","
                <div class=""stimulus-container"">
                    <img src=""images/instructions/movie_2.png"" class=""exp-image"">
                    <div class=""question-area"">
                        <p style=""font-size: 20px; font-weight: bold; margin: 0;"">Was there a person in this image?</p>
                    </div>
                </div>","1","example_question","2","","","","","","","","",""
"","","","","","html-keyboard-response","10","73997","0.0-10.0","609C9111BE2A48C5B58EF8BF35EED539","019cee1d-b92d-7626-8249-d83a95506c88","019cee19-8919-70b9-b165-8101f98d5def","","null","
                <div class=""stimulus-container"">
                    <img src=""images/instructions/movie_3.png"" class=""exp-image"">
                    <div class=""question-area""></div> 
                </div>","null","","","","","","","","","","",""
"","","","","","html-button-response","11","74639","0.0-11.0","609C9111BE2A48C5B58EF8BF35EED539","019cee1d-b92d-7626-8249-d83a95506c88","019cee19-8919-70b9-b165-8101f98d5def","","640","
                <div class=""stimulus-container"">
                    <img src=""images/instructions/movie_3.png"" class=""exp-image"">
                    <div class=""question-area"">
                        <p style=""font-size: 20px; font-weight: bold; margin: 0;"">Was there a person in this image?</p>
                    </div>
                </div>","0","example_question","3","","","","","","","","",""
"","","","","","html-keyboard-response","12","78646","0.0-12.0","609C9111BE2A48C5B58EF8BF35EED539","019cee1d-b92d-7626-8249-d83a95506c88","019cee19-8919-70b9-b165-8101f98d5def","","null","
                <div class=""stimulus-container"">
                    <img src=""images/instructions/movie_4.png"" class=""exp-image"">
                    <div class=""question-area""></div> 
                </div>","null","","","","","","","","","","",""
"","","","","","html-button-response","13","79618","0.0-13.0","609C9111BE2A48C5B58EF8BF35EED539","019cee1d-b92d-7626-8249-d83a95506c88","019cee19-8919-70b9-b165-8101f98d5def","","968","
                <div class=""stimulus-container"">
                    <img src=""images/instructions/movie_4.png"" class=""exp-image"">
                    <div class=""question-area"">
                        <p style=""font-size: 20px; font-weight: bold; margin: 0;"">Was there a person in this image?</p>
                    </div>
                </div>","0","example_question","4","","","","","","","","",""
"","","","","","instructions","14","81418","0.0-14.0","609C9111BE2A48C5B58EF8BF35EED539","019cee1d-b92d-7626-8249-d83a95506c88","019cee19-8919-70b9-b165-8101f98d5def","[{""page_index"":0,""viewing_time"":1798}]","1798","","","","","","","","","","","","",""
"","","","","","instructions","15","89384","0.0-15.0","609C9111BE2A48C5B58EF8BF35EED539","019cee1d-b92d-7626-8249-d83a95506c88","019cee19-8919-70b9-b165-8101f98d5def","[{""page_index"":0,""viewing_time"":7965}]","7965","","","","","","","","","","","","",""
"","","","","","html-keyboard-response","16","90391","0.0-16.0","609C9111BE2A48C5B58EF8BF35EED539","019cee1d-b92d-7626-8249-d83a95506c88","019cee19-8919-70b9-b165-8101f98d5def","","null","<div style=""background-color: white; width: 100vw; height: 100vh;""></div>","null","","","","","","","","","","",""
"","","","","","html-keyboard-response","17","95398","0.0-17.0","609C9111BE2A48C5B58EF8BF35EED539","019cee1d-b92d-7626-8249-d83a95506c88","019cee19-8919-70b9-b165-8101f98d5def","","null","
                <div class=""stimulus-container"">
                    <img src=""images/causal_sequence/dog_causal/dog_causal_1.png"" class=""exp-image"">
                    <div class=""question-area""></div> 
                </div>","null","","","","","","","","","","",""
"","","","","","html-button-response","18","96455","0.0-18.0","609C9111BE2A48C5B58EF8BF35EED539","019cee1d-b92d-7626-8249-d83a95506c88","019cee19-8919-70b9-b165-8101f98d5def","","1055","
                <div class=""stimulus-container"">
                    <img src=""images/causal_sequence/dog_causal/dog_causal_1.png"" class=""exp-image"">
                    <div class=""question-area"">
                        <p style=""font-size: 20px; font-weight: bold; margin: 0;"">Is there a person in this image?</p>
                    </div>
                </div>","0","main_experiment_trial","1","dog_causal","causal_sequence","","","","","","",""
"","","","","","html-keyboard-response","19","101767","0.0-19.0","609C9111BE2A48C5B58EF8BF35EED539","019cee1d-b92d-7626-8249-d83a95506c88","019cee19-8919-70b9-b165-8101f98d5def","","null","
                <div class=""stimulus-container"">
                    <img src=""images/causal_sequence/dog_causal/dog_causal_2.png"" class=""exp-image"">
                    <div class=""question-area""></div> 
                </div>","null","","","","","","","","","","",""
"","","","","","html-button-response","20","103090","0.0-20.0","609C9111BE2A48C5B58EF8BF35EED539","019cee1d-b92d-7626-8249-d83a95506c88","019cee19-8919-70b9-b165-8101f98d5def","","1323","
                <div class=""stimulus-container"">
                    <img src=""images/causal_sequence/dog_causal/dog_causal_2.png"" class=""exp-image"">
                    <div class=""question-area"">
                        <p style=""font-size: 20px; font-weight: bold; margin: 0;"">Is there a person in this image?</p>
                    </div>
                </div>","0","main_experiment_trial","2","dog_causal","causal_sequence","","","","","","",""
"","","","","","html-keyboard-response","21","108582","0.0-21.0","609C9111BE2A48C5B58EF8BF35EED539","019cee1d-b92d-7626-8249-d83a95506c88","019cee19-8919-70b9-b165-8101f98d5def","","null","
                <div class=""stimulus-container"">
                    <img src=""images/causal_sequence/dog_causal/dog_causal_3.png"" class=""exp-image"">
                    <div class=""question-area""></div> 
                </div>","null","","","","","","","","","","",""
"","","","","","html-button-response","22","109219","0.0-22.0","609C9111BE2A48C5B58EF8BF35EED539","019cee1d-b92d-7626-8249-d83a95506c88","019cee19-8919-70b9-b165-8101f98d5def","","636","
                <div class=""stimulus-container"">
                    <img src=""images/causal_sequence/dog_causal/dog_causal_3.png"" class=""exp-image"">
                    <div class=""question-area"">
                        <p style=""font-size: 20px; font-weight: bold; margin: 0;"">Is there a person in this image?</p>
                    </div>
                </div>","0","main_experiment_trial","3","dog_causal","causal_sequence","","","","","","",""
"","","","","","html-keyboard-response","23","114226","0.0-23.0","609C9111BE2A48C5B58EF8BF35EED539","019cee1d-b92d-7626-8249-d83a95506c88","019cee19-8919-70b9-b165-8101f98d5def","","null","
                <div class=""stimulus-container"">
                    <img src=""images/causal_sequence/dog_causal/dog_causal_4.png"" class=""exp-image"">
                    <div class=""question-area""></div> 
                </div>","null","","","","","","","","","","",""
"","","","","","html-button-response","24","115035","0.0-24.0","609C9111BE2A48C5B58EF8BF35EED539","019cee1d-b92d-7626-8249-d83a95506c88","019cee19-8919-70b9-b165-8101f98d5def","","808","
                <div class=""stimulus-container"">
                    <img src=""images/causal_sequence/dog_causal/dog_causal_4.png"" class=""exp-image"">
                    <div class=""question-area"">
                        <p style=""font-size: 20px; font-weight: bold; margin: 0;"">Is there a person in this image?</p>
                    </div>
                </div>","0","main_experiment_trial","4","dog_causal","causal_sequence","","","","","","",""
"","","","","","html-keyboard-response","25","120598","0.0-25.0","609C9111BE2A48C5B58EF8BF35EED539","019cee1d-b92d-7626-8249-d83a95506c88","019cee19-8919-70b9-b165-8101f98d5def","","null","
                <div class=""stimulus-container"">
                    <img src=""images/causal_sequence/dog_causal/dog_causal_5.png"" class=""exp-image"">
                    <div class=""question-area""></div> 
                </div>","null","","","","","","","","","","",""
"","","","","","html-button-response","26","121271","0.0-26.0","609C9111BE2A48C5B58EF8BF35EED539","019cee1d-b92d-7626-8249-d83a95506c88","019cee19-8919-70b9-b165-8101f98d5def","","673","
                <div class=""stimulus-container"">
                    <img src=""images/causal_sequence/dog_causal/dog_causal_5.png"" class=""exp-image"">
                    <div class=""question-area"">
                        <p style=""font-size: 20px; font-weight: bold; margin: 0;"">Is there a person in this image?</p>
                    </div>
                </div>","0","main_experiment_trial","5","dog_causal","causal_sequence","","","","","","",""
"","","","","","html-keyboard-response","27","126278","0.0-27.0","609C9111BE2A48C5B58EF8BF35EED539","019cee1d-b92d-7626-8249-d83a95506c88","019cee19-8919-70b9-b165-8101f98d5def","","null","
                <div class=""stimulus-container"">
                    <img src=""images/causal_sequence/dog_causal/dog_causal_6.png"" class=""exp-image"">
                    <div class=""question-area""></div> 
                </div>","null","","","","","","","","","","",""
"","","","","","html-button-response","28","127088","0.0-28.0","609C9111BE2A48C5B58EF8BF35EED539","019cee1d-b92d-7626-8249-d83a95506c88","019cee19-8919-70b9-b165-8101f98d5def","","810","
                <div class=""stimulus-container"">
                    <img src=""images/causal_sequence/dog_causal/dog_causal_6.png"" class=""exp-image"">
                    <div class=""question-area"">
                        <p style=""font-size: 20px; font-weight: bold; margin: 0;"">Is there a person in this image?</p>
                    </div>
                </div>","0","main_experiment_trial","6","dog_causal","causal_sequence","","","","","","",""
"","","","","","html-keyboard-response","29","132095","0.0-29.0","609C9111BE2A48C5B58EF8BF35EED539","019cee1d-b92d-7626-8249-d83a95506c88","019cee19-8919-70b9-b165-8101f98d5def","","null","
                <div class=""stimulus-container"">
                    <img src=""images/causal_sequence/dog_causal/dog_causal_7.png"" class=""exp-image"">
                    <div class=""question-area""></div> 
                </div>","null","","","","","","","","","","",""
"","","","","","html-button-response","30","132655","0.0-30.0","609C9111BE2A48C5B58EF8BF35EED539","019cee1d-b92d-7626-8249-d83a95506c88","019cee19-8919-70b9-b165-8101f98d5def","","558","
                <div class=""stimulus-container"">
                    <img src=""images/causal_sequence/dog_causal/dog_causal_7.png"" class=""exp-image"">
                    <div class=""question-area"">
                        <p style=""font-size: 20px; font-weight: bold; margin: 0;"">Is there a person in this image?</p>
                    </div>
                </div>","0","main_experiment_trial","7","dog_causal","causal_sequence","","","","","","",""
"","","","","","html-keyboard-response","31","137661","0.0-31.0","609C9111BE2A48C5B58EF8BF35EED539","019cee1d-b92d-7626-8249-d83a95506c88","019cee19-8919-70b9-b165-8101f98d5def","","null","
                <div class=""stimulus-container"">
                    <img src=""images/causal_sequence/dog_causal/dog_causal_8.png"" class=""exp-image"">
                    <div class=""question-area""></div> 
                </div>","null","","","","","","","","","","",""
"","","","","","html-button-response","32","138185","0.0-32.0","609C9111BE2A48C5B58EF8BF35EED539","019cee1d-b92d-7626-8249-d83a95506c88","019cee19-8919-70b9-b165-8101f98d5def","","524","
                <div class=""stimulus-container"">
                    <img src=""images/causal_sequence/dog_causal/dog_causal_8.png"" class=""exp-image"">
                    <div class=""question-area"">
                        <p style=""font-size: 20px; font-weight: bold; margin: 0;"">Is there a person in this image?</p>
                    </div>
                </div>","0","main_experiment_trial","8","dog_causal","causal_sequence","","","","","","",""
"","","","","","html-keyboard-response","33","143190","0.0-33.0","609C9111BE2A48C5B58EF8BF35EED539","019cee1d-b92d-7626-8249-d83a95506c88","019cee19-8919-70b9-b165-8101f98d5def","","null","
                <div class=""stimulus-container"">
                    <img src=""images/causal_sequence/dog_causal/dog_causal_9.png"" class=""exp-image"">
                    <div class=""question-area""></div> 
                </div>","null","","","","","","","","","","",""
"","","","","","html-button-response","34","143622","0.0-34.0","609C9111BE2A48C5B58EF8BF35EED539","019cee1d-b92d-7626-8249-d83a95506c88","019cee19-8919-70b9-b165-8101f98d5def","","430","
                <div class=""stimulus-container"">
                    <img src=""images/causal_sequence/dog_causal/dog_causal_9.png"" class=""exp-image"">
                    <div class=""question-area"">
                        <p style=""font-size: 20px; font-weight: bold; margin: 0;"">Is there a person in this image?</p>
                    </div>
                </div>","0","main_experiment_trial","9","dog_causal","causal_sequence","","","","","","",""
"","","","","","html-keyboard-response","35","148628","0.0-35.0","609C9111BE2A48C5B58EF8BF35EED539","019cee1d-b92d-7626-8249-d83a95506c88","019cee19-8919-70b9-b165-8101f98d5def","","null","
                <div class=""stimulus-container"">
                    <img src=""images/causal_sequence/dog_causal/dog_causal_ten.png"" class=""exp-image"">
                    <div class=""question-area""></div> 
                </div>","null","","","","","","","","","","",""
"","","","","","html-button-response","36","149101","0.0-36.0","609C9111BE2A48C5B58EF8BF35EED539","019cee1d-b92d-7626-8249-d83a95506c88","019cee19-8919-70b9-b165-8101f98d5def","","472","
                <div class=""stimulus-container"">
                    <img src=""images/causal_sequence/dog_causal/dog_causal_ten.png"" class=""exp-image"">
                    <div class=""question-area"">
                        <p style=""font-size: 20px; font-weight: bold; margin: 0;"">Is there a person in this image?</p>
                    </div>
                </div>","0","main_experiment_trial","ten","dog_causal","causal_sequence","","","","","","",""
"","","","","","html-keyboard-response","37","150158","0.0-37.0","609C9111BE2A48C5B58EF8BF35EED539","019cee1d-b92d-7626-8249-d83a95506c88","019cee19-8919-70b9-b165-8101f98d5def","","null","<div style=""background-color: white; width: 100vw; height: 100vh;""></div>","null","","","","","","","","","","",""
"","","","","","html-keyboard-response","38","155271","0.0-38.0","609C9111BE2A48C5B58EF8BF35EED539","019cee1d-b92d-7626-8249-d83a95506c88","019cee19-8919-70b9-b165-8101f98d5def","","null","
                <div class=""stimulus-container"">
                    <img src=""images/causal_sequence/museum_causal/museum_causal_1.png"" class=""exp-image"">
                    <div class=""question-area""></div> 
                </div>","null","","","","","","","","","","",""
"","","","","","html-button-response","39","156056","0.0-39.0","609C9111BE2A48C5B58EF8BF35EED539","019cee1d-b92d-7626-8249-d83a95506c88","019cee19-8919-70b9-b165-8101f98d5def","","783","
                <div class=""stimulus-container"">
                    <img src=""images/causal_sequence/museum_causal/museum_causal_1.png"" class=""exp-image"">
                    <div class=""question-area"">
                        <p style=""font-size: 20px; font-weight: bold; margin: 0;"">Is there a person in this image?</p>
                    </div>
                </div>","0","main_experiment_trial","1","museum_causal","causal_sequence","","","","","","",""
"","","","","","html-keyboard-response","40","161062","0.0-40.0","609C9111BE2A48C5B58EF8BF35EED539","019cee1d-b92d-7626-8249-d83a95506c88","019cee19-8919-70b9-b165-8101f98d5def","","null","
                <div class=""stimulus-container"">
                    <img src=""images/causal_sequence/museum_causal/museum_causal_2.png"" class=""exp-image"">
                    <div class=""question-area""></div> 
                </div>","null","","","","","","","","","","",""
"","","","","","html-button-response","41","161602","0.0-41.0","609C9111BE2A48C5B58EF8BF35EED539","019cee1d-b92d-7626-8249-d83a95506c88","019cee19-8919-70b9-b165-8101f98d5def","","538","
                <div class=""stimulus-container"">
                    <img src=""images/causal_sequence/museum_causal/museum_causal_2.png"" class=""exp-image"">
                    <div class=""question-area"">
                        <p style=""font-size: 20px; font-weight: bold; margin: 0;"">Is there a person in this image?</p>
                    </div>
                </div>","1","main_experiment_trial","2","museum_causal","causal_sequence","","","","","","",""
"","","","","","html-keyboard-response","42","166608","0.0-42.0","609C9111BE2A48C5B58EF8BF35EED539","019cee1d-b92d-7626-8249-d83a95506c88","019cee19-8919-70b9-b165-8101f98d5def","","null","
                <div class=""stimulus-container"">
                    <img src=""images/causal_sequence/museum_causal/museum_causal_3.png"" class=""exp-image"">
                    <div class=""question-area""></div> 
                </div>","null","","","","","","","","","","",""
"","","","","","html-button-response","43","167518","0.0-43.0","609C9111BE2A48C5B58EF8BF35EED539","019cee1d-b92d-7626-8249-d83a95506c88","019cee19-8919-70b9-b165-8101f98d5def","","909","
                <div class=""stimulus-container"">
                    <img src=""images/causal_sequence/museum_causal/museum_causal_3.png"" class=""exp-image"">
                    <div class=""question-area"">
                        <p style=""font-size: 20px; font-weight: bold; margin: 0;"">Is there a person in this image?</p>
                    </div>
                </div>","0","main_experiment_trial","3","museum_causal","causal_sequence","","","","","","",""
"","","","","","html-keyboard-response","44","172832","0.0-44.0","609C9111BE2A48C5B58EF8BF35EED539","019cee1d-b92d-7626-8249-d83a95506c88","019cee19-8919-70b9-b165-8101f98d5def","","null","
                <div class=""stimulus-container"">
                    <img src=""images/causal_sequence/museum_causal/museum_causal_4.png"" class=""exp-image"">
                    <div class=""question-area""></div> 
                </div>","null","","","","","","","","","","",""
"","","","","","html-button-response","45","173488","0.0-45.0","609C9111BE2A48C5B58EF8BF35EED539","019cee1d-b92d-7626-8249-d83a95506c88","019cee19-8919-70b9-b165-8101f98d5def","","655","
                <div class=""stimulus-container"">
                    <img src=""images/causal_sequence/museum_causal/museum_causal_4.png"" class=""exp-image"">
                    <div class=""question-area"">
                        <p style=""font-size: 20px; font-weight: bold; margin: 0;"">Is there a person in this image?</p>
                    </div>
                </div>","1","main_experiment_trial","4","museum_causal","causal_sequence","","","","","","",""
"","","","","","html-keyboard-response","46","178491","0.0-46.0","609C9111BE2A48C5B58EF8BF35EED539","019cee1d-b92d-7626-8249-d83a95506c88","019cee19-8919-70b9-b165-8101f98d5def","","null","
                <div class=""stimulus-container"">
                    <img src=""images/causal_sequence/museum_causal/museum_causal_5.png"" class=""exp-image"">
                    <div class=""question-area""></div> 
                </div>","null","","","","","","","","","","",""
"","","","","","html-button-response","47","179184","0.0-47.0","609C9111BE2A48C5B58EF8BF35EED539","019cee1d-b92d-7626-8249-d83a95506c88","019cee19-8919-70b9-b165-8101f98d5def","","692","
                <div class=""stimulus-container"">
                    <img src=""images/causal_sequence/museum_causal/museum_causal_5.png"" class=""exp-image"">
                    <div class=""question-area"">
                        <p style=""font-size: 20px; font-weight: bold; margin: 0;"">Is there a person in this image?</p>
                    </div>
                </div>","0","main_experiment_trial","5","museum_causal","causal_sequence","","","","","","",""
"","","","","","html-keyboard-response","48","184438","0.0-48.0","609C9111BE2A48C5B58EF8BF35EED539","019cee1d-b92d-7626-8249-d83a95506c88","019cee19-8919-70b9-b165-8101f98d5def","","null","
                <div class=""stimulus-container"">
                    <img src=""images/causal_sequence/museum_causal/museum_causal_6.png"" class=""exp-image"">
                    <div class=""question-area""></div> 
                </div>","null","","","","","","","","","","",""
"","","","","","html-button-response","49","184981","0.0-49.0","609C9111BE2A48C5B58EF8BF35EED539","019cee1d-b92d-7626-8249-d83a95506c88","019cee19-8919-70b9-b165-8101f98d5def","","540","
                <div class=""stimulus-container"">
                    <img src=""images/causal_sequence/museum_causal/museum_causal_6.png"" class=""exp-image"">
                    <div class=""question-area"">
                        <p style=""font-size: 20px; font-weight: bold; margin: 0;"">Is there a person in this image?</p>
                    </div>
                </div>","0","main_experiment_trial","6","museum_causal","causal_sequence","","","","","","",""
"","","","","","html-keyboard-response","50","189987","0.0-50.0","609C9111BE2A48C5B58EF8BF35EED539","019cee1d-b92d-7626-8249-d83a95506c88","019cee19-8919-70b9-b165-8101f98d5def","","null","
                <div class=""stimulus-container"">
                    <img src=""images/causal_sequence/museum_causal/museum_causal_7.png"" class=""exp-image"">
                    <div class=""question-area""></div> 
                </div>","null","","","","","","","","","","",""
"","","","","","html-button-response","51","190700","0.0-51.0","609C9111BE2A48C5B58EF8BF35EED539","019cee1d-b92d-7626-8249-d83a95506c88","019cee19-8919-70b9-b165-8101f98d5def","","713","
                <div class=""stimulus-container"">
                    <img src=""images/causal_sequence/museum_causal/museum_causal_7.png"" class=""exp-image"">
                    <div class=""question-area"">
                        <p style=""font-size: 20px; font-weight: bold; margin: 0;"">Is there a person in this image?</p>
                    </div>
                </div>","1","main_experiment_trial","7","museum_causal","causal_sequence","","","","","","",""
"","","","","","html-keyboard-response","52","195911","0.0-52.0","609C9111BE2A48C5B58EF8BF35EED539","019cee1d-b92d-7626-8249-d83a95506c88","019cee19-8919-70b9-b165-8101f98d5def","","null","
                <div class=""stimulus-container"">
                    <img src=""images/causal_sequence/museum_causal/museum_causal_8.png"" class=""exp-image"">
                    <div class=""question-area""></div> 
                </div>","null","","","","","","","","","","",""
"","","","","","html-button-response","53","196768","0.0-53.0","609C9111BE2A48C5B58EF8BF35EED539","019cee1d-b92d-7626-8249-d83a95506c88","019cee19-8919-70b9-b165-8101f98d5def","","856","
                <div class=""stimulus-container"">
                    <img src=""images/causal_sequence/museum_causal/museum_causal_8.png"" class=""exp-image"">
                    <div class=""question-area"">
                        <p style=""font-size: 20px; font-weight: bold; margin: 0;"">Is there a person in this image?</p>
                    </div>
                </div>","0","main_experiment_trial","8","museum_causal","causal_sequence","","","","","","",""
"","","","","","html-keyboard-response","54","201775","0.0-54.0","609C9111BE2A48C5B58EF8BF35EED539","019cee1d-b92d-7626-8249-d83a95506c88","019cee19-8919-70b9-b165-8101f98d5def","","null","
                <div class=""stimulus-container"">
                    <img src=""images/causal_sequence/museum_causal/museum_causal_9.png"" class=""exp-image"">
                    <div class=""question-area""></div> 
                </div>","null","","","","","","","","","","",""
"","","","","","html-button-response","55","203034","0.0-55.0","609C9111BE2A48C5B58EF8BF35EED539","019cee1d-b92d-7626-8249-d83a95506c88","019cee19-8919-70b9-b165-8101f98d5def","","1260","
                <div class=""stimulus-container"">
                    <img src=""images/causal_sequence/museum_causal/museum_causal_9.png"" class=""exp-image"">
                    <div class=""question-area"">
                        <p style=""font-size: 20px; font-weight: bold; margin: 0;"">Is there a person in this image?</p>
                    </div>
                </div>","1","main_experiment_trial","9","museum_causal","causal_sequence","","","","","","",""
"","","","","","html-keyboard-response","56","208041","0.0-56.0","609C9111BE2A48C5B58EF8BF35EED539","019cee1d-b92d-7626-8249-d83a95506c88","019cee19-8919-70b9-b165-8101f98d5def","","null","
                <div class=""stimulus-container"">
                    <img src=""images/causal_sequence/museum_causal/museum_causal_ten.png"" class=""exp-image"">
                    <div class=""question-area""></div> 
                </div>","null","","","","","","","","","","",""
"","","","","","html-button-response","57","208869","0.0-57.0","609C9111BE2A48C5B58EF8BF35EED539","019cee1d-b92d-7626-8249-d83a95506c88","019cee19-8919-70b9-b165-8101f98d5def","","826","
                <div class=""stimulus-container"">
                    <img src=""images/causal_sequence/museum_causal/museum_causal_ten.png"" class=""exp-image"">
                    <div class=""question-area"">
                        <p style=""font-size: 20px; font-weight: bold; margin: 0;"">Is there a person in this image?</p>
                    </div>
                </div>","0","main_experiment_trial","ten","museum_causal","causal_sequence","","","","","","",""
"","","","","","html-keyboard-response","58","209872","0.0-58.0","609C9111BE2A48C5B58EF8BF35EED539","019cee1d-b92d-7626-8249-d83a95506c88","019cee19-8919-70b9-b165-8101f98d5def","","null","<div style=""background-color: white; width: 100vw; height: 100vh;""></div>","null","","","","","","","","","","",""
"","","","","","html-keyboard-response","59","214879","0.0-59.0","609C9111BE2A48C5B58EF8BF35EED539","019cee1d-b92d-7626-8249-d83a95506c88","019cee19-8919-70b9-b165-8101f98d5def","","null","
                <div class=""stimulus-container"">
                    <img src=""images/schematic_sequence/restaurant_scheme/restaurant_scheme_1.png"" class=""exp-image"">
                    <div class=""question-area""></div> 
                </div>","null","","","","","","","","","","",""
"","","","","","html-button-response","60","215435","0.0-60.0","609C9111BE2A48C5B58EF8BF35EED539","019cee1d-b92d-7626-8249-d83a95506c88","019cee19-8919-70b9-b165-8101f98d5def","","556","
                <div class=""stimulus-container"">
                    <img src=""images/schematic_sequence/restaurant_scheme/restaurant_scheme_1.png"" class=""exp-image"">
                    <div class=""question-area"">
                        <p style=""font-size: 20px; font-weight: bold; margin: 0;"">Is there a person in this image?</p>
                    </div>
                </div>","0","main_experiment_trial","1","restaurant_scheme","schematic_sequence","","","","","","",""
"","","","","","html-keyboard-response","61","220503","0.0-61.0","609C9111BE2A48C5B58EF8BF35EED539","019cee1d-b92d-7626-8249-d83a95506c88","019cee19-8919-70b9-b165-8101f98d5def","","null","
                <div class=""stimulus-container"">
                    <img src=""images/schematic_sequence/restaurant_scheme/restaurant_scheme_2.png"" class=""exp-image"">
                    <div class=""question-area""></div> 
                </div>","null","","","","","","","","","","",""
"","","","","","html-button-response","62","221002","0.0-62.0","609C9111BE2A48C5B58EF8BF35EED539","019cee1d-b92d-7626-8249-d83a95506c88","019cee19-8919-70b9-b165-8101f98d5def","","497","
                <div class=""stimulus-container"">
                    <img src=""images/schematic_sequence/restaurant_scheme/restaurant_scheme_2.png"" class=""exp-image"">
                    <div class=""question-area"">
                        <p style=""font-size: 20px; font-weight: bold; margin: 0;"">Is there a person in this image?</p>
                    </div>
                </div>","1","main_experiment_trial","2","restaurant_scheme","schematic_sequence","","","","","","",""
"","","","","","html-keyboard-response","63","226008","0.0-63.0","609C9111BE2A48C5B58EF8BF35EED539","019cee1d-b92d-7626-8249-d83a95506c88","019cee19-8919-70b9-b165-8101f98d5def","","null","
                <div class=""stimulus-container"">
                    <img src=""images/schematic_sequence/restaurant_scheme/restaurant_scheme_3.png"" class=""exp-image"">
                    <div class=""question-area""></div> 
                </div>","null","","","","","","","","","","",""
"","","","","","html-button-response","64","226606","0.0-64.0","609C9111BE2A48C5B58EF8BF35EED539","019cee1d-b92d-7626-8249-d83a95506c88","019cee19-8919-70b9-b165-8101f98d5def","","597","
                <div class=""stimulus-container"">
                    <img src=""images/schematic_sequence/restaurant_scheme/restaurant_scheme_3.png"" class=""exp-image"">
                    <div class=""question-area"">
                        <p style=""font-size: 20px; font-weight: bold; margin: 0;"">Is there a person in this image?</p>
                    </div>
                </div>","1","main_experiment_trial","3","restaurant_scheme","schematic_sequence","","","","","","",""
"","","","","","html-keyboard-response","65","231766","0.0-65.0","609C9111BE2A48C5B58EF8BF35EED539","019cee1d-b92d-7626-8249-d83a95506c88","019cee19-8919-70b9-b165-8101f98d5def","","null","
                <div class=""stimulus-container"">
                    <img src=""images/schematic_sequence/restaurant_scheme/restaurant_scheme_4.png"" class=""exp-image"">
                    <div class=""question-area""></div> 
                </div>","null","","","","","","","","","","",""
"","","","","","html-button-response","66","232503","0.0-66.0","609C9111BE2A48C5B58EF8BF35EED539","019cee1d-b92d-7626-8249-d83a95506c88","019cee19-8919-70b9-b165-8101f98d5def","","734","
                <div class=""stimulus-container"">
                    <img src=""images/schematic_sequence/restaurant_scheme/restaurant_scheme_4.png"" class=""exp-image"">
                    <div class=""question-area"">
                        <p style=""font-size: 20px; font-weight: bold; margin: 0;"">Is there a person in this image?</p>
                    </div>
                </div>","0","main_experiment_trial","4","restaurant_scheme","schematic_sequence","","","","","","",""
"","","","","","html-keyboard-response","67","237506","0.0-67.0","609C9111BE2A48C5B58EF8BF35EED539","019cee1d-b92d-7626-8249-d83a95506c88","019cee19-8919-70b9-b165-8101f98d5def","","null","
                <div class=""stimulus-container"">
                    <img src=""images/schematic_sequence/restaurant_scheme/restaurant_scheme_5.png"" class=""exp-image"">
                    <div class=""question-area""></div> 
                </div>","null","","","","","","","","","","",""
"","","","","","html-button-response","68","238805","0.0-68.0","609C9111BE2A48C5B58EF8BF35EED539","019cee1d-b92d-7626-8249-d83a95506c88","019cee19-8919-70b9-b165-8101f98d5def","","1298","
                <div class=""stimulus-container"">
                    <img src=""images/schematic_sequence/restaurant_scheme/restaurant_scheme_5.png"" class=""exp-image"">
                    <div class=""question-area"">
                        <p style=""font-size: 20px; font-weight: bold; margin: 0;"">Is there a person in this image?</p>
                    </div>
                </div>","0","main_experiment_trial","5","restaurant_scheme","schematic_sequence","","","","","","",""
"","","","","","html-keyboard-response","69","243810","0.0-69.0","609C9111BE2A48C5B58EF8BF35EED539","019cee1d-b92d-7626-8249-d83a95506c88","019cee19-8919-70b9-b165-8101f98d5def","","null","
                <div class=""stimulus-container"">
                    <img src=""images/schematic_sequence/restaurant_scheme/restaurant_scheme_6.png"" class=""exp-image"">
                    <div class=""question-area""></div> 
                </div>","null","","","","","","","","","","",""
"","","","","","html-button-response","70","244418","0.0-70.0","609C9111BE2A48C5B58EF8BF35EED539","019cee1d-b92d-7626-8249-d83a95506c88","019cee19-8919-70b9-b165-8101f98d5def","","607","
                <div class=""stimulus-container"">
                    <img src=""images/schematic_sequence/restaurant_scheme/restaurant_scheme_6.png"" class=""exp-image"">
                    <div class=""question-area"">
                        <p style=""font-size: 20px; font-weight: bold; margin: 0;"">Is there a person in this image?</p>
                    </div>
                </div>","1","main_experiment_trial","6","restaurant_scheme","schematic_sequence","","","","","","",""
"","","","","","html-keyboard-response","71","249420","0.0-71.0","609C9111BE2A48C5B58EF8BF35EED539","019cee1d-b92d-7626-8249-d83a95506c88","019cee19-8919-70b9-b165-8101f98d5def","","null","
                <div class=""stimulus-container"">
                    <img src=""images/schematic_sequence/restaurant_scheme/restaurant_scheme_7.png"" class=""exp-image"">
                    <div class=""question-area""></div> 
                </div>","null","","","","","","","","","","",""
"","","","","","html-button-response","72","249872","0.0-72.0","609C9111BE2A48C5B58EF8BF35EED539","019cee1d-b92d-7626-8249-d83a95506c88","019cee19-8919-70b9-b165-8101f98d5def","","451","
                <div class=""stimulus-container"">
                    <img src=""images/schematic_sequence/restaurant_scheme/restaurant_scheme_7.png"" class=""exp-image"">
                    <div class=""question-area"">
                        <p style=""font-size: 20px; font-weight: bold; margin: 0;"">Is there a person in this image?</p>
                    </div>
                </div>","1","main_experiment_trial","7","restaurant_scheme","schematic_sequence","","","","","","",""
"","","","","","html-keyboard-response","73","254879","0.0-73.0","609C9111BE2A48C5B58EF8BF35EED539","019cee1d-b92d-7626-8249-d83a95506c88","019cee19-8919-70b9-b165-8101f98d5def","","null","
                <div class=""stimulus-container"">
                    <img src=""images/schematic_sequence/restaurant_scheme/restaurant_scheme_8.png"" class=""exp-image"">
                    <div class=""question-area""></div> 
                </div>","null","","","","","","","","","","",""
"","","","","","html-button-response","74","255302","0.0-74.0","609C9111BE2A48C5B58EF8BF35EED539","019cee1d-b92d-7626-8249-d83a95506c88","019cee19-8919-70b9-b165-8101f98d5def","","422","
                <div class=""stimulus-container"">
                    <img src=""images/schematic_sequence/restaurant_scheme/restaurant_scheme_8.png"" class=""exp-image"">
                    <div class=""question-area"">
                        <p style=""font-size: 20px; font-weight: bold; margin: 0;"">Is there a person in this image?</p>
                    </div>
                </div>","1","main_experiment_trial","8","restaurant_scheme","schematic_sequence","","","","","","",""
"","","","","","html-keyboard-response","75","260437","0.0-75.0","609C9111BE2A48C5B58EF8BF35EED539","019cee1d-b92d-7626-8249-d83a95506c88","019cee19-8919-70b9-b165-8101f98d5def","","null","
                <div class=""stimulus-container"">
                    <img src=""images/schematic_sequence/restaurant_scheme/restaurant_scheme_9.png"" class=""exp-image"">
                    <div class=""question-area""></div> 
                </div>","null","","","","","","","","","","",""
"","","","","","html-button-response","76","261152","0.0-76.0","609C9111BE2A48C5B58EF8BF35EED539","019cee1d-b92d-7626-8249-d83a95506c88","019cee19-8919-70b9-b165-8101f98d5def","","714","
                <div class=""stimulus-container"">
                    <img src=""images/schematic_sequence/restaurant_scheme/restaurant_scheme_9.png"" class=""exp-image"">
                    <div class=""question-area"">
                        <p style=""font-size: 20px; font-weight: bold; margin: 0;"">Is there a person in this image?</p>
                    </div>
                </div>","0","main_experiment_trial","9","restaurant_scheme","schematic_sequence","","","","","","",""
"","","","","","html-keyboard-response","77","266159","0.0-77.0","609C9111BE2A48C5B58EF8BF35EED539","019cee1d-b92d-7626-8249-d83a95506c88","019cee19-8919-70b9-b165-8101f98d5def","","null","
                <div class=""stimulus-container"">
                    <img src=""images/schematic_sequence/restaurant_scheme/restaurant_scheme_ten.png"" class=""exp-image"">
                    <div class=""question-area""></div> 
                </div>","null","","","","","","","","","","",""
"","","","","","html-button-response","78","266585","0.0-78.0","609C9111BE2A48C5B58EF8BF35EED539","019cee1d-b92d-7626-8249-d83a95506c88","019cee19-8919-70b9-b165-8101f98d5def","","426","
                <div class=""stimulus-container"">
                    <img src=""images/schematic_sequence/restaurant_scheme/restaurant_scheme_ten.png"" class=""exp-image"">
                    <div class=""question-area"">
                        <p style=""font-size: 20px; font-weight: bold; margin: 0;"">Is there a person in this image?</p>
                    </div>
                </div>","0","main_experiment_trial","ten","restaurant_scheme","schematic_sequence","","","","","","",""
"","","","","","html-keyboard-response","79","267591","0.0-79.0","609C9111BE2A48C5B58EF8BF35EED539","019cee1d-b92d-7626-8249-d83a95506c88","019cee19-8919-70b9-b165-8101f98d5def","","null","<div style=""background-color: white; width: 100vw; height: 100vh;""></div>","null","","","","","","","","","","",""
"","","","","","html-keyboard-response","80","272597","0.0-80.0","609C9111BE2A48C5B58EF8BF35EED539","019cee1d-b92d-7626-8249-d83a95506c88","019cee19-8919-70b9-b165-8101f98d5def","","null","
                <div class=""stimulus-container"">
                    <img src=""images/schematic_sequence/supermarket_scheme/supermarket_scheme_1.png"" class=""exp-image"">
                    <div class=""question-area""></div> 
                </div>","null","","","","","","","","","","",""
"","","","","","html-button-response","81","273451","0.0-81.0","609C9111BE2A48C5B58EF8BF35EED539","019cee1d-b92d-7626-8249-d83a95506c88","019cee19-8919-70b9-b165-8101f98d5def","","854","
                <div class=""stimulus-container"">
                    <img src=""images/schematic_sequence/supermarket_scheme/supermarket_scheme_1.png"" class=""exp-image"">
                    <div class=""question-area"">
                        <p style=""font-size: 20px; font-weight: bold; margin: 0;"">Is there a person in this image?</p>
                    </div>
                </div>","1","main_experiment_trial","1","supermarket_scheme","schematic_sequence","","","","","","",""
"","","","","","html-keyboard-response","82","278623","0.0-82.0","609C9111BE2A48C5B58EF8BF35EED539","019cee1d-b92d-7626-8249-d83a95506c88","019cee19-8919-70b9-b165-8101f98d5def","","null","
                <div class=""stimulus-container"">
                    <img src=""images/schematic_sequence/supermarket_scheme/supermarket_scheme_2.png"" class=""exp-image"">
                    <div class=""question-area""></div> 
                </div>","null","","","","","","","","","","",""
"","","","","","html-button-response","83","279304","0.0-83.0","609C9111BE2A48C5B58EF8BF35EED539","019cee1d-b92d-7626-8249-d83a95506c88","019cee19-8919-70b9-b165-8101f98d5def","","680","
                <div class=""stimulus-container"">
                    <img src=""images/schematic_sequence/supermarket_scheme/supermarket_scheme_2.png"" class=""exp-image"">
                    <div class=""question-area"">
                        <p style=""font-size: 20px; font-weight: bold; margin: 0;"">Is there a person in this image?</p>
                    </div>
                </div>","1","main_experiment_trial","2","supermarket_scheme","schematic_sequence","","","","","","",""
"","","","","","html-keyboard-response","84","284311","0.0-84.0","609C9111BE2A48C5B58EF8BF35EED539","019cee1d-b92d-7626-8249-d83a95506c88","019cee19-8919-70b9-b165-8101f98d5def","","null","
                <div class=""stimulus-container"">
                    <img src=""images/schematic_sequence/supermarket_scheme/supermarket_scheme_3.png"" class=""exp-image"">
                    <div class=""question-area""></div> 
                </div>","null","","","","","","","","","","",""
"","","","","","html-button-response","85","284822","0.0-85.0","609C9111BE2A48C5B58EF8BF35EED539","019cee1d-b92d-7626-8249-d83a95506c88","019cee19-8919-70b9-b165-8101f98d5def","","511","
                <div class=""stimulus-container"">
                    <img src=""images/schematic_sequence/supermarket_scheme/supermarket_scheme_3.png"" class=""exp-image"">
                    <div class=""question-area"">
                        <p style=""font-size: 20px; font-weight: bold; margin: 0;"">Is there a person in this image?</p>
                    </div>
                </div>","1","main_experiment_trial","3","supermarket_scheme","schematic_sequence","","","","","","",""
"","","","","","html-keyboard-response","86","289828","0.0-86.0","609C9111BE2A48C5B58EF8BF35EED539","019cee1d-b92d-7626-8249-d83a95506c88","019cee19-8919-70b9-b165-8101f98d5def","","null","
                <div class=""stimulus-container"">
                    <img src=""images/schematic_sequence/supermarket_scheme/supermarket_scheme_4.png"" class=""exp-image"">
                    <div class=""question-area""></div> 
                </div>","null","","","","","","","","","","",""
"","","","","","html-button-response","87","290552","0.0-87.0","609C9111BE2A48C5B58EF8BF35EED539","019cee1d-b92d-7626-8249-d83a95506c88","019cee19-8919-70b9-b165-8101f98d5def","","722","
                <div class=""stimulus-container"">
                    <img src=""images/schematic_sequence/supermarket_scheme/supermarket_scheme_4.png"" class=""exp-image"">
                    <div class=""question-area"">
                        <p style=""font-size: 20px; font-weight: bold; margin: 0;"">Is there a person in this image?</p>
                    </div>
                </div>","0","main_experiment_trial","4","supermarket_scheme","schematic_sequence","","","","","","",""
"","","","","","html-keyboard-response","88","295553","0.0-88.0","609C9111BE2A48C5B58EF8BF35EED539","019cee1d-b92d-7626-8249-d83a95506c88","019cee19-8919-70b9-b165-8101f98d5def","","null","
                <div class=""stimulus-container"">
                    <img src=""images/schematic_sequence/supermarket_scheme/supermarket_scheme_5.png"" class=""exp-image"">
                    <div class=""question-area""></div> 
                </div>","null","","","","","","","","","","",""
"","","","","","html-button-response","89","296201","0.0-89.0","609C9111BE2A48C5B58EF8BF35EED539","019cee1d-b92d-7626-8249-d83a95506c88","019cee19-8919-70b9-b165-8101f98d5def","","648","
                <div class=""stimulus-container"">
                    <img src=""images/schematic_sequence/supermarket_scheme/supermarket_scheme_5.png"" class=""exp-image"">
                    <div class=""question-area"">
                        <p style=""font-size: 20px; font-weight: bold; margin: 0;"">Is there a person in this image?</p>
                    </div>
                </div>","1","main_experiment_trial","5","supermarket_scheme","schematic_sequence","","","","","","",""
"","","","","","html-keyboard-response","90","301522","0.0-90.0","609C9111BE2A48C5B58EF8BF35EED539","019cee1d-b92d-7626-8249-d83a95506c88","019cee19-8919-70b9-b165-8101f98d5def","","null","
                <div class=""stimulus-container"">
                    <img src=""images/schematic_sequence/supermarket_scheme/supermarket_scheme_6.png"" class=""exp-image"">
                    <div class=""question-area""></div> 
                </div>","null","","","","","","","","","","",""
"","","","","","html-button-response","91","302484","0.0-91.0","609C9111BE2A48C5B58EF8BF35EED539","019cee1d-b92d-7626-8249-d83a95506c88","019cee19-8919-70b9-b165-8101f98d5def","","962","
                <div class=""stimulus-container"">
                    <img src=""images/schematic_sequence/supermarket_scheme/supermarket_scheme_6.png"" class=""exp-image"">
                    <div class=""question-area"">
                        <p style=""font-size: 20px; font-weight: bold; margin: 0;"">Is there a person in this image?</p>
                    </div>
                </div>","0","main_experiment_trial","6","supermarket_scheme","schematic_sequence","","","","","","",""
"","","","","","html-keyboard-response","92","307492","0.0-92.0","609C9111BE2A48C5B58EF8BF35EED539","019cee1d-b92d-7626-8249-d83a95506c88","019cee19-8919-70b9-b165-8101f98d5def","","null","
                <div class=""stimulus-container"">
                    <img src=""images/schematic_sequence/supermarket_scheme/supermarket_scheme_7.png"" class=""exp-image"">
                    <div class=""question-area""></div> 
                </div>","null","","","","","","","","","","",""
"","","","","","html-button-response","93","308035","0.0-93.0","609C9111BE2A48C5B58EF8BF35EED539","019cee1d-b92d-7626-8249-d83a95506c88","019cee19-8919-70b9-b165-8101f98d5def","","542","
                <div class=""stimulus-container"">
                    <img src=""images/schematic_sequence/supermarket_scheme/supermarket_scheme_7.png"" class=""exp-image"">
                    <div class=""question-area"">
                        <p style=""font-size: 20px; font-weight: bold; margin: 0;"">Is there a person in this image?</p>
                    </div>
                </div>","0","main_experiment_trial","7","supermarket_scheme","schematic_sequence","","","","","","",""
"","","","","","html-keyboard-response","94","313041","0.0-94.0","609C9111BE2A48C5B58EF8BF35EED539","019cee1d-b92d-7626-8249-d83a95506c88","019cee19-8919-70b9-b165-8101f98d5def","","null","
                <div class=""stimulus-container"">
                    <img src=""images/schematic_sequence/supermarket_scheme/supermarket_scheme_8.png"" class=""exp-image"">
                    <div class=""question-area""></div> 
                </div>","null","","","","","","","","","","",""
"","","","","","html-button-response","95","313502","0.0-95.0","609C9111BE2A48C5B58EF8BF35EED539","019cee1d-b92d-7626-8249-d83a95506c88","019cee19-8919-70b9-b165-8101f98d5def","","460","
                <div class=""stimulus-container"">
                    <img src=""images/schematic_sequence/supermarket_scheme/supermarket_scheme_8.png"" class=""exp-image"">
                    <div class=""question-area"">
                        <p style=""font-size: 20px; font-weight: bold; margin: 0;"">Is there a person in this image?</p>
                    </div>
                </div>","0","main_experiment_trial","8","supermarket_scheme","schematic_sequence","","","","","","",""
"","","","","","html-keyboard-response","96","318508","0.0-96.0","609C9111BE2A48C5B58EF8BF35EED539","019cee1d-b92d-7626-8249-d83a95506c88","019cee19-8919-70b9-b165-8101f98d5def","","null","
                <div class=""stimulus-container"">
                    <img src=""images/schematic_sequence/supermarket_scheme/supermarket_scheme_9.png"" class=""exp-image"">
                    <div class=""question-area""></div> 
                </div>","null","","","","","","","","","","",""
"","","","","","html-button-response","97","318968","0.0-97.0","609C9111BE2A48C5B58EF8BF35EED539","019cee1d-b92d-7626-8249-d83a95506c88","019cee19-8919-70b9-b165-8101f98d5def","","459","
                <div class=""stimulus-container"">
                    <img src=""images/schematic_sequence/supermarket_scheme/supermarket_scheme_9.png"" class=""exp-image"">
                    <div class=""question-area"">
                        <p style=""font-size: 20px; font-weight: bold; margin: 0;"">Is there a person in this image?</p>
                    </div>
                </div>","0","main_experiment_trial","9","supermarket_scheme","schematic_sequence","","","","","","",""
"","","","","","html-keyboard-response","98","323975","0.0-98.0","609C9111BE2A48C5B58EF8BF35EED539","019cee1d-b92d-7626-8249-d83a95506c88","019cee19-8919-70b9-b165-8101f98d5def","","null","
                <div class=""stimulus-container"">
                    <img src=""images/schematic_sequence/supermarket_scheme/supermarket_scheme_ten.png"" class=""exp-image"">
                    <div class=""question-area""></div> 
                </div>","null","","","","","","","","","","",""
"","","","","","html-button-response","99","324751","0.0-99.0","609C9111BE2A48C5B58EF8BF35EED539","019cee1d-b92d-7626-8249-d83a95506c88","019cee19-8919-70b9-b165-8101f98d5def","","776","
                <div class=""stimulus-container"">
                    <img src=""images/schematic_sequence/supermarket_scheme/supermarket_scheme_ten.png"" class=""exp-image"">
                    <div class=""question-area"">
                        <p style=""font-size: 20px; font-weight: bold; margin: 0;"">Is there a person in this image?</p>
                    </div>
                </div>","1","main_experiment_trial","ten","supermarket_scheme","schematic_sequence","","","","","","",""
"","","","","","html-keyboard-response","100","325758","0.0-100.0","609C9111BE2A48C5B58EF8BF35EED539","019cee1d-b92d-7626-8249-d83a95506c88","019cee19-8919-70b9-b165-8101f98d5def","","null","<div style=""background-color: white; width: 100vw; height: 100vh;""></div>","null","","","","","","","","","","",""
"","","","","","html-keyboard-response","101","330985","0.0-101.0","609C9111BE2A48C5B58EF8BF35EED539","019cee1d-b92d-7626-8249-d83a95506c88","019cee19-8919-70b9-b165-8101f98d5def","","null","
                <div class=""stimulus-container"">
                    <img src=""images/causal_sequence/the_performance_causal/the_performance_causal_1.png"" class=""exp-image"">
                    <div class=""question-area""></div> 
                </div>","null","","","","","","","","","","",""
"","","","","","html-button-response","102","331889","0.0-102.0","609C9111BE2A48C5B58EF8BF35EED539","019cee1d-b92d-7626-8249-d83a95506c88","019cee19-8919-70b9-b165-8101f98d5def","","902","
                <div class=""stimulus-container"">
                    <img src=""images/causal_sequence/the_performance_causal/the_performance_causal_1.png"" class=""exp-image"">
                    <div class=""question-area"">
                        <p style=""font-size: 20px; font-weight: bold; margin: 0;"">Is there a person in this image?</p>
                    </div>
                </div>","0","main_experiment_trial","1","the_performance_causal","causal_sequence","","","","","","",""
"","","","","","html-keyboard-response","103","336896","0.0-103.0","609C9111BE2A48C5B58EF8BF35EED539","019cee1d-b92d-7626-8249-d83a95506c88","019cee19-8919-70b9-b165-8101f98d5def","","null","
                <div class=""stimulus-container"">
                    <img src=""images/causal_sequence/the_performance_causal/the_performance_causal_2.png"" class=""exp-image"">
                    <div class=""question-area""></div> 
                </div>","null","","","","","","","","","","",""
"","","","","","html-button-response","104","337471","0.0-104.0","609C9111BE2A48C5B58EF8BF35EED539","019cee1d-b92d-7626-8249-d83a95506c88","019cee19-8919-70b9-b165-8101f98d5def","","574","
                <div class=""stimulus-container"">
                    <img src=""images/causal_sequence/the_performance_causal/the_performance_causal_2.png"" class=""exp-image"">
                    <div class=""question-area"">
                        <p style=""font-size: 20px; font-weight: bold; margin: 0;"">Is there a person in this image?</p>
                    </div>
                </div>","0","main_experiment_trial","2","the_performance_causal","causal_sequence","","","","","","",""
"","","","","","html-keyboard-response","105","342473","0.0-105.0","609C9111BE2A48C5B58EF8BF35EED539","019cee1d-b92d-7626-8249-d83a95506c88","019cee19-8919-70b9-b165-8101f98d5def","","null","
                <div class=""stimulus-container"">
                    <img src=""images/causal_sequence/the_performance_causal/the_performance_causal_3.png"" class=""exp-image"">
                    <div class=""question-area""></div> 
                </div>","null","","","","","","","","","","",""
"","","","","","html-button-response","106","342918","0.0-106.0","609C9111BE2A48C5B58EF8BF35EED539","019cee1d-b92d-7626-8249-d83a95506c88","019cee19-8919-70b9-b165-8101f98d5def","","444","
                <div class=""stimulus-container"">
                    <img src=""images/causal_sequence/the_performance_causal/the_performance_causal_3.png"" class=""exp-image"">
                    <div class=""question-area"">
                        <p style=""font-size: 20px; font-weight: bold; margin: 0;"">Is there a person in this image?</p>
                    </div>
                </div>","0","main_experiment_trial","3","the_performance_causal","causal_sequence","","","","","","",""
"","","","","","html-keyboard-response","107","347926","0.0-107.0","609C9111BE2A48C5B58EF8BF35EED539","019cee1d-b92d-7626-8249-d83a95506c88","019cee19-8919-70b9-b165-8101f98d5def","","null","
                <div class=""stimulus-container"">
                    <img src=""images/causal_sequence/the_performance_causal/the_performance_causal_4.png"" class=""exp-image"">
                    <div class=""question-area""></div> 
                </div>","null","","","","","","","","","","",""
"","","","","","html-button-response","108","348535","0.0-108.0","609C9111BE2A48C5B58EF8BF35EED539","019cee1d-b92d-7626-8249-d83a95506c88","019cee19-8919-70b9-b165-8101f98d5def","","608","
                <div class=""stimulus-container"">
                    <img src=""images/causal_sequence/the_performance_causal/the_performance_causal_4.png"" class=""exp-image"">
                    <div class=""question-area"">
                        <p style=""font-size: 20px; font-weight: bold; margin: 0;"">Is there a person in this image?</p>
                    </div>
                </div>","0","main_experiment_trial","4","the_performance_causal","causal_sequence","","","","","","",""
"","","","","","html-keyboard-response","109","353541","0.0-109.0","609C9111BE2A48C5B58EF8BF35EED539","019cee1d-b92d-7626-8249-d83a95506c88","019cee19-8919-70b9-b165-8101f98d5def","","null","
                <div class=""stimulus-container"">
                    <img src=""images/causal_sequence/the_performance_causal/the_performance_causal_5.png"" class=""exp-image"">
                    <div class=""question-area""></div> 
                </div>","null","","","","","","","","","","",""
"","","","","","html-button-response","110","354039","0.0-110.0","609C9111BE2A48C5B58EF8BF35EED539","019cee1d-b92d-7626-8249-d83a95506c88","019cee19-8919-70b9-b165-8101f98d5def","","496","
                <div class=""stimulus-container"">
                    <img src=""images/causal_sequence/the_performance_causal/the_performance_causal_5.png"" class=""exp-image"">
                    <div class=""question-area"">
                        <p style=""font-size: 20px; font-weight: bold; margin: 0;"">Is there a person in this image?</p>
                    </div>
                </div>","0","main_experiment_trial","5","the_performance_causal","causal_sequence","","","","","","",""
"","","","","","html-keyboard-response","111","359046","0.0-111.0","609C9111BE2A48C5B58EF8BF35EED539","019cee1d-b92d-7626-8249-d83a95506c88","019cee19-8919-70b9-b165-8101f98d5def","","null","
                <div class=""stimulus-container"">
                    <img src=""images/causal_sequence/the_performance_causal/the_performance_causal_6.png"" class=""exp-image"">
                    <div class=""question-area""></div> 
                </div>","null","","","","","","","","","","",""
"","","","","","html-button-response","112","359523","0.0-112.0","609C9111BE2A48C5B58EF8BF35EED539","019cee1d-b92d-7626-8249-d83a95506c88","019cee19-8919-70b9-b165-8101f98d5def","","475","
                <div class=""stimulus-container"">
                    <img src=""images/causal_sequence/the_performance_causal/the_performance_causal_6.png"" class=""exp-image"">
                    <div class=""question-area"">
                        <p style=""font-size: 20px; font-weight: bold; margin: 0;"">Is there a person in this image?</p>
                    </div>
                </div>","0","main_experiment_trial","6","the_performance_causal","causal_sequence","","","","","","",""
"","","","","","html-keyboard-response","113","364529","0.0-113.0","609C9111BE2A48C5B58EF8BF35EED539","019cee1d-b92d-7626-8249-d83a95506c88","019cee19-8919-70b9-b165-8101f98d5def","","null","
                <div class=""stimulus-container"">
                    <img src=""images/causal_sequence/the_performance_causal/the_performance_causal_7.png"" class=""exp-image"">
                    <div class=""question-area""></div> 
                </div>","null","","","","","","","","","","",""
"","","","","","html-button-response","114","365089","0.0-114.0","609C9111BE2A48C5B58EF8BF35EED539","019cee1d-b92d-7626-8249-d83a95506c88","019cee19-8919-70b9-b165-8101f98d5def","","559","
                <div class=""stimulus-container"">
                    <img src=""images/causal_sequence/the_performance_causal/the_performance_causal_7.png"" class=""exp-image"">
                    <div class=""question-area"">
                        <p style=""font-size: 20px; font-weight: bold; margin: 0;"">Is there a person in this image?</p>
                    </div>
                </div>","0","main_experiment_trial","7","the_performance_causal","causal_sequence","","","","","","",""
"","","","","","html-keyboard-response","115","370096","0.0-115.0","609C9111BE2A48C5B58EF8BF35EED539","019cee1d-b92d-7626-8249-d83a95506c88","019cee19-8919-70b9-b165-8101f98d5def","","null","
                <div class=""stimulus-container"">
                    <img src=""images/causal_sequence/the_performance_causal/the_performance_causal_8.png"" class=""exp-image"">
                    <div class=""question-area""></div> 
                </div>","null","","","","","","","","","","",""
"","","","","","html-button-response","116","370635","0.0-116.0","609C9111BE2A48C5B58EF8BF35EED539","019cee1d-b92d-7626-8249-d83a95506c88","019cee19-8919-70b9-b165-8101f98d5def","","540","
                <div class=""stimulus-container"">
                    <img src=""images/causal_sequence/the_performance_causal/the_performance_causal_8.png"" class=""exp-image"">
                    <div class=""question-area"">
                        <p style=""font-size: 20px; font-weight: bold; margin: 0;"">Is there a person in this image?</p>
                    </div>
                </div>","0","main_experiment_trial","8","the_performance_causal","causal_sequence","","","","","","",""
"","","","","","html-keyboard-response","117","375642","0.0-117.0","609C9111BE2A48C5B58EF8BF35EED539","019cee1d-b92d-7626-8249-d83a95506c88","019cee19-8919-70b9-b165-8101f98d5def","","null","
                <div class=""stimulus-container"">
                    <img src=""images/causal_sequence/the_performance_causal/the_performance_causal_9.png"" class=""exp-image"">
                    <div class=""question-area""></div> 
                </div>","null","","","","","","","","","","",""
"","","","","","html-button-response","118","376872","0.0-118.0","609C9111BE2A48C5B58EF8BF35EED539","019cee1d-b92d-7626-8249-d83a95506c88","019cee19-8919-70b9-b165-8101f98d5def","","1229","
                <div class=""stimulus-container"">
                    <img src=""images/causal_sequence/the_performance_causal/the_performance_causal_9.png"" class=""exp-image"">
                    <div class=""question-area"">
                        <p style=""font-size: 20px; font-weight: bold; margin: 0;"">Is there a person in this image?</p>
                    </div>
                </div>","0","main_experiment_trial","9","the_performance_causal","causal_sequence","","","","","","",""
"","","","","","html-keyboard-response","119","381881","0.0-119.0","609C9111BE2A48C5B58EF8BF35EED539","019cee1d-b92d-7626-8249-d83a95506c88","019cee19-8919-70b9-b165-8101f98d5def","","null","
                <div class=""stimulus-container"">
                    <img src=""images/causal_sequence/the_performance_causal/the_performance_causal_ten.png"" class=""exp-image"">
                    <div class=""question-area""></div> 
                </div>","null","","","","","","","","","","",""
"","","","","","html-button-response","120","382435","0.0-120.0","609C9111BE2A48C5B58EF8BF35EED539","019cee1d-b92d-7626-8249-d83a95506c88","019cee19-8919-70b9-b165-8101f98d5def","","553","
                <div class=""stimulus-container"">
                    <img src=""images/causal_sequence/the_performance_causal/the_performance_causal_ten.png"" class=""exp-image"">
                    <div class=""question-area"">
                        <p style=""font-size: 20px; font-weight: bold; margin: 0;"">Is there a person in this image?</p>
                    </div>
                </div>","0","main_experiment_trial","ten","the_performance_causal","causal_sequence","","","","","","",""
"","","","","","html-keyboard-response","121","383441","0.0-121.0","609C9111BE2A48C5B58EF8BF35EED539","019cee1d-b92d-7626-8249-d83a95506c88","019cee19-8919-70b9-b165-8101f98d5def","","null","<div style=""background-color: white; width: 100vw; height: 100vh;""></div>","null","","","","","","","","","","",""
"","","","","","html-keyboard-response","122","388448","0.0-122.0","609C9111BE2A48C5B58EF8BF35EED539","019cee1d-b92d-7626-8249-d83a95506c88","019cee19-8919-70b9-b165-8101f98d5def","","null","
                <div class=""stimulus-container"">
                    <img src=""images/causal_sequence/package_causal/package_causal_1.png"" class=""exp-image"">
                    <div class=""question-area""></div> 
                </div>","null","","","","","","","","","","",""
"","","","","","html-button-response","123","388923","0.0-123.0","609C9111BE2A48C5B58EF8BF35EED539","019cee1d-b92d-7626-8249-d83a95506c88","019cee19-8919-70b9-b165-8101f98d5def","","474","
                <div class=""stimulus-container"">
                    <img src=""images/causal_sequence/package_causal/package_causal_1.png"" class=""exp-image"">
                    <div class=""question-area"">
                        <p style=""font-size: 20px; font-weight: bold; margin: 0;"">Is there a person in this image?</p>
                    </div>
                </div>","0","main_experiment_trial","1","package_causal","causal_sequence","","","","","","",""
"","","","","","html-keyboard-response","124","393929","0.0-124.0","609C9111BE2A48C5B58EF8BF35EED539","019cee1d-b92d-7626-8249-d83a95506c88","019cee19-8919-70b9-b165-8101f98d5def","","null","
                <div class=""stimulus-container"">
                    <img src=""images/causal_sequence/package_causal/package_causal_2.png"" class=""exp-image"">
                    <div class=""question-area""></div> 
                </div>","null","","","","","","","","","","",""
"","","","","","html-button-response","125","394603","0.0-125.0","609C9111BE2A48C5B58EF8BF35EED539","019cee1d-b92d-7626-8249-d83a95506c88","019cee19-8919-70b9-b165-8101f98d5def","","672","
                <div class=""stimulus-container"">
                    <img src=""images/causal_sequence/package_causal/package_causal_2.png"" class=""exp-image"">
                    <div class=""question-area"">
                        <p style=""font-size: 20px; font-weight: bold; margin: 0;"">Is there a person in this image?</p>
                    </div>
                </div>","0","main_experiment_trial","2","package_causal","causal_sequence","","","","","","",""
"","","","","","html-keyboard-response","126","399609","0.0-126.0","609C9111BE2A48C5B58EF8BF35EED539","019cee1d-b92d-7626-8249-d83a95506c88","019cee19-8919-70b9-b165-8101f98d5def","","null","
                <div class=""stimulus-container"">
                    <img src=""images/causal_sequence/package_causal/package_causal_3.png"" class=""exp-image"">
                    <div class=""question-area""></div> 
                </div>","null","","","","","","","","","","",""
"","","","","","html-button-response","127","400569","0.0-127.0","609C9111BE2A48C5B58EF8BF35EED539","019cee1d-b92d-7626-8249-d83a95506c88","019cee19-8919-70b9-b165-8101f98d5def","","960","
                <div class=""stimulus-container"">
                    <img src=""images/causal_sequence/package_causal/package_causal_3.png"" class=""exp-image"">
                    <div class=""question-area"">
                        <p style=""font-size: 20px; font-weight: bold; margin: 0;"">Is there a person in this image?</p>
                    </div>
                </div>","0","main_experiment_trial","3","package_causal","causal_sequence","","","","","","",""
"","","","","","html-keyboard-response","128","405903","0.0-128.0","609C9111BE2A48C5B58EF8BF35EED539","019cee1d-b92d-7626-8249-d83a95506c88","019cee19-8919-70b9-b165-8101f98d5def","","null","
                <div class=""stimulus-container"">
                    <img src=""images/causal_sequence/package_causal/package_causal_4.png"" class=""exp-image"">
                    <div class=""question-area""></div> 
                </div>","null","","","","","","","","","","",""
"","","","","","html-button-response","129","406413","0.0-129.0","609C9111BE2A48C5B58EF8BF35EED539","019cee1d-b92d-7626-8249-d83a95506c88","019cee19-8919-70b9-b165-8101f98d5def","","508","
                <div class=""stimulus-container"">
                    <img src=""images/causal_sequence/package_causal/package_causal_4.png"" class=""exp-image"">
                    <div class=""question-area"">
                        <p style=""font-size: 20px; font-weight: bold; margin: 0;"">Is there a person in this image?</p>
                    </div>
                </div>","1","main_experiment_trial","4","package_causal","causal_sequence","","","","","","",""
"","","","","","html-keyboard-response","130","411497","0.0-130.0","609C9111BE2A48C5B58EF8BF35EED539","019cee1d-b92d-7626-8249-d83a95506c88","019cee19-8919-70b9-b165-8101f98d5def","","null","
                <div class=""stimulus-container"">
                    <img src=""images/causal_sequence/package_causal/package_causal_5.png"" class=""exp-image"">
                    <div class=""question-area""></div> 
                </div>","null","","","","","","","","","","",""
"","","","","","html-button-response","131","412322","0.0-131.0","609C9111BE2A48C5B58EF8BF35EED539","019cee1d-b92d-7626-8249-d83a95506c88","019cee19-8919-70b9-b165-8101f98d5def","","823","
                <div class=""stimulus-container"">
                    <img src=""images/causal_sequence/package_causal/package_causal_5.png"" class=""exp-image"">
                    <div class=""question-area"">
                        <p style=""font-size: 20px; font-weight: bold; margin: 0;"">Is there a person in this image?</p>
                    </div>
                </div>","0","main_experiment_trial","5","package_causal","causal_sequence","","","","","","",""
"","","","","","html-keyboard-response","132","417327","0.0-132.0","609C9111BE2A48C5B58EF8BF35EED539","019cee1d-b92d-7626-8249-d83a95506c88","019cee19-8919-70b9-b165-8101f98d5def","","null","
                <div class=""stimulus-container"">
                    <img src=""images/causal_sequence/package_causal/package_causal_6.png"" class=""exp-image"">
                    <div class=""question-area""></div> 
                </div>","null","","","","","","","","","","",""
"","","","","","html-button-response","133","418269","0.0-133.0","609C9111BE2A48C5B58EF8BF35EED539","019cee1d-b92d-7626-8249-d83a95506c88","019cee19-8919-70b9-b165-8101f98d5def","","941","
                <div class=""stimulus-container"">
                    <img src=""images/causal_sequence/package_causal/package_causal_6.png"" class=""exp-image"">
                    <div class=""question-area"">
                        <p style=""font-size: 20px; font-weight: bold; margin: 0;"">Is there a person in this image?</p>
                    </div>
                </div>","0","main_experiment_trial","6","package_causal","causal_sequence","","","","","","",""
"","","","","","html-keyboard-response","134","423275","0.0-134.0","609C9111BE2A48C5B58EF8BF35EED539","019cee1d-b92d-7626-8249-d83a95506c88","019cee19-8919-70b9-b165-8101f98d5def","","null","
                <div class=""stimulus-container"">
                    <img src=""images/causal_sequence/package_causal/package_causal_7.png"" class=""exp-image"">
                    <div class=""question-area""></div> 
                </div>","null","","","","","","","","","","",""
"","","","","","html-button-response","135","423718","0.0-135.0","609C9111BE2A48C5B58EF8BF35EED539","019cee1d-b92d-7626-8249-d83a95506c88","019cee19-8919-70b9-b165-8101f98d5def","","441","
                <div class=""stimulus-container"">
                    <img src=""images/causal_sequence/package_causal/package_causal_7.png"" class=""exp-image"">
                    <div class=""question-area"">
                        <p style=""font-size: 20px; font-weight: bold; margin: 0;"">Is there a person in this image?</p>
                    </div>
                </div>","0","main_experiment_trial","7","package_causal","causal_sequence","","","","","","",""
"","","","","","html-keyboard-response","136","428725","0.0-136.0","609C9111BE2A48C5B58EF8BF35EED539","019cee1d-b92d-7626-8249-d83a95506c88","019cee19-8919-70b9-b165-8101f98d5def","","null","
                <div class=""stimulus-container"">
                    <img src=""images/causal_sequence/package_causal/package_causal_8.png"" class=""exp-image"">
                    <div class=""question-area""></div> 
                </div>","null","","","","","","","","","","",""
"","","","","","html-button-response","137","429339","0.0-137.0","609C9111BE2A48C5B58EF8BF35EED539","019cee1d-b92d-7626-8249-d83a95506c88","019cee19-8919-70b9-b165-8101f98d5def","","614","
                <div class=""stimulus-container"">
                    <img src=""images/causal_sequence/package_causal/package_causal_8.png"" class=""exp-image"">
                    <div class=""question-area"">
                        <p style=""font-size: 20px; font-weight: bold; margin: 0;"">Is there a person in this image?</p>
                    </div>
                </div>","0","main_experiment_trial","8","package_causal","causal_sequence","","","","","","",""
"","","","","","html-keyboard-response","138","434342","0.0-138.0","609C9111BE2A48C5B58EF8BF35EED539","019cee1d-b92d-7626-8249-d83a95506c88","019cee19-8919-70b9-b165-8101f98d5def","","null","
                <div class=""stimulus-container"">
                    <img src=""images/causal_sequence/package_causal/package_causal_9.png"" class=""exp-image"">
                    <div class=""question-area""></div> 
                </div>","null","","","","","","","","","","",""
"","","","","","html-button-response","139","434885","0.0-139.0","609C9111BE2A48C5B58EF8BF35EED539","019cee1d-b92d-7626-8249-d83a95506c88","019cee19-8919-70b9-b165-8101f98d5def","","542","
                <div class=""stimulus-container"">
                    <img src=""images/causal_sequence/package_causal/package_causal_9.png"" class=""exp-image"">
                    <div class=""question-area"">
                        <p style=""font-size: 20px; font-weight: bold; margin: 0;"">Is there a person in this image?</p>
                    </div>
                </div>","0","main_experiment_trial","9","package_causal","causal_sequence","","","","","","",""
"","","","","","html-keyboard-response","140","439891","0.0-140.0","609C9111BE2A48C5B58EF8BF35EED539","019cee1d-b92d-7626-8249-d83a95506c88","019cee19-8919-70b9-b165-8101f98d5def","","null","
                <div class=""stimulus-container"">
                    <img src=""images/causal_sequence/package_causal/package_causal_ten.png"" class=""exp-image"">
                    <div class=""question-area""></div> 
                </div>","null","","","","","","","","","","",""
"","","","","","html-button-response","141","440619","0.0-141.0","609C9111BE2A48C5B58EF8BF35EED539","019cee1d-b92d-7626-8249-d83a95506c88","019cee19-8919-70b9-b165-8101f98d5def","","728","
                <div class=""stimulus-container"">
                    <img src=""images/causal_sequence/package_causal/package_causal_ten.png"" class=""exp-image"">
                    <div class=""question-area"">
                        <p style=""font-size: 20px; font-weight: bold; margin: 0;"">Is there a person in this image?</p>
                    </div>
                </div>","0","main_experiment_trial","ten","package_causal","causal_sequence","","","","","","",""
"","","","","","html-keyboard-response","142","441624","0.0-142.0","609C9111BE2A48C5B58EF8BF35EED539","019cee1d-b92d-7626-8249-d83a95506c88","019cee19-8919-70b9-b165-8101f98d5def","","null","<div style=""background-color: white; width: 100vw; height: 100vh;""></div>","null","","","","","","","","","","",""
"","","","","","html-keyboard-response","143","446630","0.0-143.0","609C9111BE2A48C5B58EF8BF35EED539","019cee1d-b92d-7626-8249-d83a95506c88","019cee19-8919-70b9-b165-8101f98d5def","","null","
                <div class=""stimulus-container"">
                    <img src=""images/schematic_sequence/dinner_party_scheme/dinner_party_scheme_1.png"" class=""exp-image"">
                    <div class=""question-area""></div> 
                </div>","null","","","","","","","","","","",""
"","","","","","html-button-response","144","447086","0.0-144.0","609C9111BE2A48C5B58EF8BF35EED539","019cee1d-b92d-7626-8249-d83a95506c88","019cee19-8919-70b9-b165-8101f98d5def","","454","
                <div class=""stimulus-container"">
                    <img src=""images/schematic_sequence/dinner_party_scheme/dinner_party_scheme_1.png"" class=""exp-image"">
                    <div class=""question-area"">
                        <p style=""font-size: 20px; font-weight: bold; margin: 0;"">Is there a person in this image?</p>
                    </div>
                </div>","0","main_experiment_trial","1","dinner_party_scheme","schematic_sequence","","","","","","",""
"","","","","","html-keyboard-response","145","452359","0.0-145.0","609C9111BE2A48C5B58EF8BF35EED539","019cee1d-b92d-7626-8249-d83a95506c88","019cee19-8919-70b9-b165-8101f98d5def","","null","
                <div class=""stimulus-container"">
                    <img src=""images/schematic_sequence/dinner_party_scheme/dinner_party_scheme_2.png"" class=""exp-image"">
                    <div class=""question-area""></div> 
                </div>","null","","","","","","","","","","",""
"","","","","","html-button-response","146","453069","0.0-146.0","609C9111BE2A48C5B58EF8BF35EED539","019cee1d-b92d-7626-8249-d83a95506c88","019cee19-8919-70b9-b165-8101f98d5def","","708","
                <div class=""stimulus-container"">
                    <img src=""images/schematic_sequence/dinner_party_scheme/dinner_party_scheme_2.png"" class=""exp-image"">
                    <div class=""question-area"">
                        <p style=""font-size: 20px; font-weight: bold; margin: 0;"">Is there a person in this image?</p>
                    </div>
                </div>","1","main_experiment_trial","2","dinner_party_scheme","schematic_sequence","","","","","","",""
"","","","","","html-keyboard-response","147","458075","0.0-147.0","609C9111BE2A48C5B58EF8BF35EED539","019cee1d-b92d-7626-8249-d83a95506c88","019cee19-8919-70b9-b165-8101f98d5def","","null","
                <div class=""stimulus-container"">
                    <img src=""images/schematic_sequence/dinner_party_scheme/dinner_party_scheme_3.png"" class=""exp-image"">
                    <div class=""question-area""></div> 
                </div>","null","","","","","","","","","","",""
"","","","","","html-button-response","148","458705","0.0-148.0","609C9111BE2A48C5B58EF8BF35EED539","019cee1d-b92d-7626-8249-d83a95506c88","019cee19-8919-70b9-b165-8101f98d5def","","629","
                <div class=""stimulus-container"">
                    <img src=""images/schematic_sequence/dinner_party_scheme/dinner_party_scheme_3.png"" class=""exp-image"">
                    <div class=""question-area"">
                        <p style=""font-size: 20px; font-weight: bold; margin: 0;"">Is there a person in this image?</p>
                    </div>
                </div>","0","main_experiment_trial","3","dinner_party_scheme","schematic_sequence","","","","","","",""
"","","","","","html-keyboard-response","149","463711","0.0-149.0","609C9111BE2A48C5B58EF8BF35EED539","019cee1d-b92d-7626-8249-d83a95506c88","019cee19-8919-70b9-b165-8101f98d5def","","null","
                <div class=""stimulus-container"">
                    <img src=""images/schematic_sequence/dinner_party_scheme/dinner_party_scheme_4.png"" class=""exp-image"">
                    <div class=""question-area""></div> 
                </div>","null","","","","","","","","","","",""
"","","","","","html-button-response","150","464285","0.0-150.0","609C9111BE2A48C5B58EF8BF35EED539","019cee1d-b92d-7626-8249-d83a95506c88","019cee19-8919-70b9-b165-8101f98d5def","","573","
                <div class=""stimulus-container"">
                    <img src=""images/schematic_sequence/dinner_party_scheme/dinner_party_scheme_4.png"" class=""exp-image"">
                    <div class=""question-area"">
                        <p style=""font-size: 20px; font-weight: bold; margin: 0;"">Is there a person in this image?</p>
                    </div>
                </div>","0","main_experiment_trial","4","dinner_party_scheme","schematic_sequence","","","","","","",""
"","","","","","html-keyboard-response","151","469292","0.0-151.0","609C9111BE2A48C5B58EF8BF35EED539","019cee1d-b92d-7626-8249-d83a95506c88","019cee19-8919-70b9-b165-8101f98d5def","","null","
                <div class=""stimulus-container"">
                    <img src=""images/schematic_sequence/dinner_party_scheme/dinner_party_scheme_5.png"" class=""exp-image"">
                    <div class=""question-area""></div> 
                </div>","null","","","","","","","","","","",""
"","","","","","html-button-response","152","469752","0.0-152.0","609C9111BE2A48C5B58EF8BF35EED539","019cee1d-b92d-7626-8249-d83a95506c88","019cee19-8919-70b9-b165-8101f98d5def","","459","
                <div class=""stimulus-container"">
                    <img src=""images/schematic_sequence/dinner_party_scheme/dinner_party_scheme_5.png"" class=""exp-image"">
                    <div class=""question-area"">
                        <p style=""font-size: 20px; font-weight: bold; margin: 0;"">Is there a person in this image?</p>
                    </div>
                </div>","0","main_experiment_trial","5","dinner_party_scheme","schematic_sequence","","","","","","",""
"","","","","","html-keyboard-response","153","474758","0.0-153.0","609C9111BE2A48C5B58EF8BF35EED539","019cee1d-b92d-7626-8249-d83a95506c88","019cee19-8919-70b9-b165-8101f98d5def","","null","
                <div class=""stimulus-container"">
                    <img src=""images/schematic_sequence/dinner_party_scheme/dinner_party_scheme_6.png"" class=""exp-image"">
                    <div class=""question-area""></div> 
                </div>","null","","","","","","","","","","",""
"","","","","","html-button-response","154","475251","0.0-154.0","609C9111BE2A48C5B58EF8BF35EED539","019cee1d-b92d-7626-8249-d83a95506c88","019cee19-8919-70b9-b165-8101f98d5def","","492","
                <div class=""stimulus-container"">
                    <img src=""images/schematic_sequence/dinner_party_scheme/dinner_party_scheme_6.png"" class=""exp-image"">
                    <div class=""question-area"">
                        <p style=""font-size: 20px; font-weight: bold; margin: 0;"">Is there a person in this image?</p>
                    </div>
                </div>","0","main_experiment_trial","6","dinner_party_scheme","schematic_sequence","","","","","","",""
"","","","","","html-keyboard-response","155","480258","0.0-155.0","609C9111BE2A48C5B58EF8BF35EED539","019cee1d-b92d-7626-8249-d83a95506c88","019cee19-8919-70b9-b165-8101f98d5def","","null","
                <div class=""stimulus-container"">
                    <img src=""images/schematic_sequence/dinner_party_scheme/dinner_party_scheme_7.png"" class=""exp-image"">
                    <div class=""question-area""></div> 
                </div>","null","","","","","","","","","","",""
"","","","","","html-button-response","156","480736","0.0-156.0","609C9111BE2A48C5B58EF8BF35EED539","019cee1d-b92d-7626-8249-d83a95506c88","019cee19-8919-70b9-b165-8101f98d5def","","476","
                <div class=""stimulus-container"">
                    <img src=""images/schematic_sequence/dinner_party_scheme/dinner_party_scheme_7.png"" class=""exp-image"">
                    <div class=""question-area"">
                        <p style=""font-size: 20px; font-weight: bold; margin: 0;"">Is there a person in this image?</p>
                    </div>
                </div>","0","main_experiment_trial","7","dinner_party_scheme","schematic_sequence","","","","","","",""
"","","","","","html-keyboard-response","157","485741","0.0-157.0","609C9111BE2A48C5B58EF8BF35EED539","019cee1d-b92d-7626-8249-d83a95506c88","019cee19-8919-70b9-b165-8101f98d5def","","null","
                <div class=""stimulus-container"">
                    <img src=""images/schematic_sequence/dinner_party_scheme/dinner_party_scheme_8.png"" class=""exp-image"">
                    <div class=""question-area""></div> 
                </div>","null","","","","","","","","","","",""
"","","","","","html-button-response","158","486268","0.0-158.0","609C9111BE2A48C5B58EF8BF35EED539","019cee1d-b92d-7626-8249-d83a95506c88","019cee19-8919-70b9-b165-8101f98d5def","","526","
                <div class=""stimulus-container"">
                    <img src=""images/schematic_sequence/dinner_party_scheme/dinner_party_scheme_8.png"" class=""exp-image"">
                    <div class=""question-area"">
                        <p style=""font-size: 20px; font-weight: bold; margin: 0;"">Is there a person in this image?</p>
                    </div>
                </div>","0","main_experiment_trial","8","dinner_party_scheme","schematic_sequence","","","","","","",""
"","","","","","html-keyboard-response","159","491352","0.0-159.0","609C9111BE2A48C5B58EF8BF35EED539","019cee1d-b92d-7626-8249-d83a95506c88","019cee19-8919-70b9-b165-8101f98d5def","","null","
                <div class=""stimulus-container"">
                    <img src=""images/schematic_sequence/dinner_party_scheme/dinner_party_scheme_9.png"" class=""exp-image"">
                    <div class=""question-area""></div> 
                </div>","null","","","","","","","","","","",""
"","","","","","html-button-response","160","491802","0.0-160.0","609C9111BE2A48C5B58EF8BF35EED539","019cee1d-b92d-7626-8249-d83a95506c88","019cee19-8919-70b9-b165-8101f98d5def","","450","
                <div class=""stimulus-container"">
                    <img src=""images/schematic_sequence/dinner_party_scheme/dinner_party_scheme_9.png"" class=""exp-image"">
                    <div class=""question-area"">
                        <p style=""font-size: 20px; font-weight: bold; margin: 0;"">Is there a person in this image?</p>
                    </div>
                </div>","0","main_experiment_trial","9","dinner_party_scheme","schematic_sequence","","","","","","",""
"","","","","","html-keyboard-response","161","496809","0.0-161.0","609C9111BE2A48C5B58EF8BF35EED539","019cee1d-b92d-7626-8249-d83a95506c88","019cee19-8919-70b9-b165-8101f98d5def","","null","
                <div class=""stimulus-container"">
                    <img src=""images/schematic_sequence/dinner_party_scheme/dinner_party_scheme_ten.png"" class=""exp-image"">
                    <div class=""question-area""></div> 
                </div>","null","","","","","","","","","","",""
"","","","","","html-button-response","162","497385","0.0-162.0","609C9111BE2A48C5B58EF8BF35EED539","019cee1d-b92d-7626-8249-d83a95506c88","019cee19-8919-70b9-b165-8101f98d5def","","574","
                <div class=""stimulus-container"">
                    <img src=""images/schematic_sequence/dinner_party_scheme/dinner_party_scheme_ten.png"" class=""exp-image"">
                    <div class=""question-area"">
                        <p style=""font-size: 20px; font-weight: bold; margin: 0;"">Is there a person in this image?</p>
                    </div>
                </div>","0","main_experiment_trial","ten","dinner_party_scheme","schematic_sequence","","","","","","",""
"","","","","","html-keyboard-response","163","498391","0.0-163.0","609C9111BE2A48C5B58EF8BF35EED539","019cee1d-b92d-7626-8249-d83a95506c88","019cee19-8919-70b9-b165-8101f98d5def","","null","<div style=""background-color: white; width: 100vw; height: 100vh;""></div>","null","","","","","","","","","","",""
"","","","","","html-keyboard-response","164","503395","0.0-164.0","609C9111BE2A48C5B58EF8BF35EED539","019cee1d-b92d-7626-8249-d83a95506c88","019cee19-8919-70b9-b165-8101f98d5def","","null","
                <div class=""stimulus-container"">
                    <img src=""images/schematic_sequence/interview_scheme/interview_scheme_1.png"" class=""exp-image"">
                    <div class=""question-area""></div> 
                </div>","null","","","","","","","","","","",""
"","","","","","html-button-response","165","504500","0.0-165.0","609C9111BE2A48C5B58EF8BF35EED539","019cee1d-b92d-7626-8249-d83a95506c88","019cee19-8919-70b9-b165-8101f98d5def","","1105","
                <div class=""stimulus-container"">
                    <img src=""images/schematic_sequence/interview_scheme/interview_scheme_1.png"" class=""exp-image"">
                    <div class=""question-area"">
                        <p style=""font-size: 20px; font-weight: bold; margin: 0;"">Is there a person in this image?</p>
                    </div>
                </div>","1","main_experiment_trial","1","interview_scheme","schematic_sequence","","","","","","",""
"","","","","","html-keyboard-response","166","509503","0.0-166.0","609C9111BE2A48C5B58EF8BF35EED539","019cee1d-b92d-7626-8249-d83a95506c88","019cee19-8919-70b9-b165-8101f98d5def","","null","
                <div class=""stimulus-container"">
                    <img src=""images/schematic_sequence/interview_scheme/interview_scheme_2.png"" class=""exp-image"">
                    <div class=""question-area""></div> 
                </div>","null","","","","","","","","","","",""
"","","","","","html-button-response","167","510134","0.0-167.0","609C9111BE2A48C5B58EF8BF35EED539","019cee1d-b92d-7626-8249-d83a95506c88","019cee19-8919-70b9-b165-8101f98d5def","","631","
                <div class=""stimulus-container"">
                    <img src=""images/schematic_sequence/interview_scheme/interview_scheme_2.png"" class=""exp-image"">
                    <div class=""question-area"">
                        <p style=""font-size: 20px; font-weight: bold; margin: 0;"">Is there a person in this image?</p>
                    </div>
                </div>","1","main_experiment_trial","2","interview_scheme","schematic_sequence","","","","","","",""
"","","","","","html-keyboard-response","168","515137","0.0-168.0","609C9111BE2A48C5B58EF8BF35EED539","019cee1d-b92d-7626-8249-d83a95506c88","019cee19-8919-70b9-b165-8101f98d5def","","null","
                <div class=""stimulus-container"">
                    <img src=""images/schematic_sequence/interview_scheme/interview_scheme_3.png"" class=""exp-image"">
                    <div class=""question-area""></div> 
                </div>","null","","","","","","","","","","",""
"","","","","","html-button-response","169","515718","0.0-169.0","609C9111BE2A48C5B58EF8BF35EED539","019cee1d-b92d-7626-8249-d83a95506c88","019cee19-8919-70b9-b165-8101f98d5def","","579","
                <div class=""stimulus-container"">
                    <img src=""images/schematic_sequence/interview_scheme/interview_scheme_3.png"" class=""exp-image"">
                    <div class=""question-area"">
                        <p style=""font-size: 20px; font-weight: bold; margin: 0;"">Is there a person in this image?</p>
                    </div>
                </div>","1","main_experiment_trial","3","interview_scheme","schematic_sequence","","","","","","",""
"","","","","","html-keyboard-response","170","520725","0.0-170.0","609C9111BE2A48C5B58EF8BF35EED539","019cee1d-b92d-7626-8249-d83a95506c88","019cee19-8919-70b9-b165-8101f98d5def","","null","
                <div class=""stimulus-container"">
                    <img src=""images/schematic_sequence/interview_scheme/interview_scheme_4.png"" class=""exp-image"">
                    <div class=""question-area""></div> 
                </div>","null","","","","","","","","","","",""
"","","","","","html-button-response","171","521156","0.0-171.0","609C9111BE2A48C5B58EF8BF35EED539","019cee1d-b92d-7626-8249-d83a95506c88","019cee19-8919-70b9-b165-8101f98d5def","","430","
                <div class=""stimulus-container"">
                    <img src=""images/schematic_sequence/interview_scheme/interview_scheme_4.png"" class=""exp-image"">
                    <div class=""question-area"">
                        <p style=""font-size: 20px; font-weight: bold; margin: 0;"">Is there a person in this image?</p>
                    </div>
                </div>","1","main_experiment_trial","4","interview_scheme","schematic_sequence","","","","","","",""
"","","","","","html-keyboard-response","172","526270","0.0-172.0","609C9111BE2A48C5B58EF8BF35EED539","019cee1d-b92d-7626-8249-d83a95506c88","019cee19-8919-70b9-b165-8101f98d5def","","null","
                <div class=""stimulus-container"">
                    <img src=""images/schematic_sequence/interview_scheme/interview_scheme_5.png"" class=""exp-image"">
                    <div class=""question-area""></div> 
                </div>","null","","","","","","","","","","",""
"","","","","","html-button-response","173","527001","0.0-173.0","609C9111BE2A48C5B58EF8BF35EED539","019cee1d-b92d-7626-8249-d83a95506c88","019cee19-8919-70b9-b165-8101f98d5def","","730","
                <div class=""stimulus-container"">
                    <img src=""images/schematic_sequence/interview_scheme/interview_scheme_5.png"" class=""exp-image"">
                    <div class=""question-area"">
                        <p style=""font-size: 20px; font-weight: bold; margin: 0;"">Is there a person in this image?</p>
                    </div>
                </div>","0","main_experiment_trial","5","interview_scheme","schematic_sequence","","","","","","",""
"","","","","","html-keyboard-response","174","532008","0.0-174.0","609C9111BE2A48C5B58EF8BF35EED539","019cee1d-b92d-7626-8249-d83a95506c88","019cee19-8919-70b9-b165-8101f98d5def","","null","
                <div class=""stimulus-container"">
                    <img src=""images/schematic_sequence/interview_scheme/interview_scheme_6.png"" class=""exp-image"">
                    <div class=""question-area""></div> 
                </div>","null","","","","","","","","","","",""
"","","","","","html-button-response","175","532985","0.0-175.0","609C9111BE2A48C5B58EF8BF35EED539","019cee1d-b92d-7626-8249-d83a95506c88","019cee19-8919-70b9-b165-8101f98d5def","","976","
                <div class=""stimulus-container"">
                    <img src=""images/schematic_sequence/interview_scheme/interview_scheme_6.png"" class=""exp-image"">
                    <div class=""question-area"">
                        <p style=""font-size: 20px; font-weight: bold; margin: 0;"">Is there a person in this image?</p>
                    </div>
                </div>","0","main_experiment_trial","6","interview_scheme","schematic_sequence","","","","","","",""
"","","","","","html-keyboard-response","176","537992","0.0-176.0","609C9111BE2A48C5B58EF8BF35EED539","019cee1d-b92d-7626-8249-d83a95506c88","019cee19-8919-70b9-b165-8101f98d5def","","null","
                <div class=""stimulus-container"">
                    <img src=""images/schematic_sequence/interview_scheme/interview_scheme_7.png"" class=""exp-image"">
                    <div class=""question-area""></div> 
                </div>","null","","","","","","","","","","",""
"","","","","","html-button-response","177","538402","0.0-177.0","609C9111BE2A48C5B58EF8BF35EED539","019cee1d-b92d-7626-8249-d83a95506c88","019cee19-8919-70b9-b165-8101f98d5def","","410","
                <div class=""stimulus-container"">
                    <img src=""images/schematic_sequence/interview_scheme/interview_scheme_7.png"" class=""exp-image"">
                    <div class=""question-area"">
                        <p style=""font-size: 20px; font-weight: bold; margin: 0;"">Is there a person in this image?</p>
                    </div>
                </div>","0","main_experiment_trial","7","interview_scheme","schematic_sequence","","","","","","",""
"","","","","","html-keyboard-response","178","543410","0.0-178.0","609C9111BE2A48C5B58EF8BF35EED539","019cee1d-b92d-7626-8249-d83a95506c88","019cee19-8919-70b9-b165-8101f98d5def","","null","
                <div class=""stimulus-container"">
                    <img src=""images/schematic_sequence/interview_scheme/interview_scheme_8.png"" class=""exp-image"">
                    <div class=""question-area""></div> 
                </div>","null","","","","","","","","","","",""
"","","","","","html-button-response","179","543852","0.0-179.0","609C9111BE2A48C5B58EF8BF35EED539","019cee1d-b92d-7626-8249-d83a95506c88","019cee19-8919-70b9-b165-8101f98d5def","","441","
                <div class=""stimulus-container"">
                    <img src=""images/schematic_sequence/interview_scheme/interview_scheme_8.png"" class=""exp-image"">
                    <div class=""question-area"">
                        <p style=""font-size: 20px; font-weight: bold; margin: 0;"">Is there a person in this image?</p>
                    </div>
                </div>","0","main_experiment_trial","8","interview_scheme","schematic_sequence","","","","","","",""
"","","","","","html-keyboard-response","180","549007","0.0-180.0","609C9111BE2A48C5B58EF8BF35EED539","019cee1d-b92d-7626-8249-d83a95506c88","019cee19-8919-70b9-b165-8101f98d5def","","null","
                <div class=""stimulus-container"">
                    <img src=""images/schematic_sequence/interview_scheme/interview_scheme_9.png"" class=""exp-image"">
                    <div class=""question-area""></div> 
                </div>","null","","","","","","","","","","",""
"","","","","","html-button-response","181","549453","0.0-181.0","609C9111BE2A48C5B58EF8BF35EED539","019cee1d-b92d-7626-8249-d83a95506c88","019cee19-8919-70b9-b165-8101f98d5def","","445","
                <div class=""stimulus-container"">
                    <img src=""images/schematic_sequence/interview_scheme/interview_scheme_9.png"" class=""exp-image"">
