"success","timeout","failed_images","failed_audio","failed_video","trial_type","trial_index","time_elapsed","internal_node_id","subject_id","study_id","session_id","view_history","rt","stimulus","response","task","image_index","folder","sequence_type","presentation_order","valuable_image_index","reward_type","chosen_image_index","target_X","correct_choice"
"true","false","[]","[]","[]","preload","0","5479","0.0-0.0","9482020C92D44BE095717E9EF690D5EB","019cf9d4-5b5e-71fe-9a0e-55385f727bbf","019cf9ba-391a-7c7b-96b9-3757895c469c","","","","","","","","","","","","","",""
"","","","","","instructions","1","9308","0.0-1.0","9482020C92D44BE095717E9EF690D5EB","019cf9d4-5b5e-71fe-9a0e-55385f727bbf","019cf9ba-391a-7c7b-96b9-3757895c469c","[{""page_index"":0,""viewing_time"":3827}]","3828","","","","","","","","","","","",""
"","","","","","instructions","2","101301","0.0-2.0","9482020C92D44BE095717E9EF690D5EB","019cf9d4-5b5e-71fe-9a0e-55385f727bbf","019cf9ba-391a-7c7b-96b9-3757895c469c","[{""page_index"":0,""viewing_time"":91993}]","91993","","","","","","","","","","","",""
"true","","","","","fullscreen","3","106317","0.0-3.0","9482020C92D44BE095717E9EF690D5EB","019cf9d4-5b5e-71fe-9a0e-55385f727bbf","019cf9ba-391a-7c7b-96b9-3757895c469c","","4007","","","","","","","","","","","",""
"","","","","","instructions","4","113395","0.0-4.0","9482020C92D44BE095717E9EF690D5EB","019cf9d4-5b5e-71fe-9a0e-55385f727bbf","019cf9ba-391a-7c7b-96b9-3757895c469c","[{""page_index"":0,""viewing_time"":7078}]","7078","","","","","","","","","","","",""
"","","","","","instructions","5","123062","0.0-5.0","9482020C92D44BE095717E9EF690D5EB","019cf9d4-5b5e-71fe-9a0e-55385f727bbf","019cf9ba-391a-7c7b-96b9-3757895c469c","[{""page_index"":0,""viewing_time"":9666}]","9666","","","","","","","","","","","",""
"","","","","","html-keyboard-response","6","127068","0.0-6.0","9482020C92D44BE095717E9EF690D5EB","019cf9d4-5b5e-71fe-9a0e-55385f727bbf","019cf9ba-391a-7c7b-96b9-3757895c469c","","null","
                <div class=""stimulus-container"">
                    <img src=""images/instructions/movie_1.png"" class=""exp-image"">
                    <div class=""question-area""></div> 
                </div>","null","","","","","","","","","",""
"","","","","","html-button-response","7","128340","0.0-7.0","9482020C92D44BE095717E9EF690D5EB","019cf9d4-5b5e-71fe-9a0e-55385f727bbf","019cf9ba-391a-7c7b-96b9-3757895c469c","","1271","
                <div class=""stimulus-container"">
                    <img src=""images/instructions/movie_1.png"" class=""exp-image"">
                    <div class=""question-area"">
                        <p style=""font-size: 20px; font-weight: bold; margin: 0;"">Was there a person in this image?</p>
                    </div>
                </div>","0","example_question","1","","","","","","","",""
"","","","","","html-keyboard-response","8","132342","0.0-8.0","9482020C92D44BE095717E9EF690D5EB","019cf9d4-5b5e-71fe-9a0e-55385f727bbf","019cf9ba-391a-7c7b-96b9-3757895c469c","","null","
                <div class=""stimulus-container"">
                    <img src=""images/instructions/movie_2.png"" class=""exp-image"">
                    <div class=""question-area""></div> 
                </div>","null","","","","","","","","","",""
"","","","","","html-button-response","9","135346","0.0-9.0","9482020C92D44BE095717E9EF690D5EB","019cf9d4-5b5e-71fe-9a0e-55385f727bbf","019cf9ba-391a-7c7b-96b9-3757895c469c","","null","
                <div class=""stimulus-container"">
                    <img src=""images/instructions/movie_2.png"" class=""exp-image"">
                    <div class=""question-area"">
                        <p style=""font-size: 20px; font-weight: bold; margin: 0;"">Was there a person in this image?</p>
                    </div>
                </div>","null","example_question","2","","","","","","","",""
"","","","","","html-keyboard-response","10","139347","0.0-10.0","9482020C92D44BE095717E9EF690D5EB","019cf9d4-5b5e-71fe-9a0e-55385f727bbf","019cf9ba-391a-7c7b-96b9-3757895c469c","","null","
                <div class=""stimulus-container"">
                    <img src=""images/instructions/movie_3.png"" class=""exp-image"">
                    <div class=""question-area""></div> 
                </div>","null","","","","","","","","","",""
"","","","","","html-button-response","11","140295","0.0-11.0","9482020C92D44BE095717E9EF690D5EB","019cf9d4-5b5e-71fe-9a0e-55385f727bbf","019cf9ba-391a-7c7b-96b9-3757895c469c","","947","
                <div class=""stimulus-container"">
                    <img src=""images/instructions/movie_3.png"" class=""exp-image"">
                    <div class=""question-area"">
                        <p style=""font-size: 20px; font-weight: bold; margin: 0;"">Was there a person in this image?</p>
                    </div>
                </div>","0","example_question","3","","","","","","","",""
"","","","","","html-keyboard-response","12","144297","0.0-12.0","9482020C92D44BE095717E9EF690D5EB","019cf9d4-5b5e-71fe-9a0e-55385f727bbf","019cf9ba-391a-7c7b-96b9-3757895c469c","","null","
                <div class=""stimulus-container"">
                    <img src=""images/instructions/movie_4.png"" class=""exp-image"">
                    <div class=""question-area""></div> 
                </div>","null","","","","","","","","","",""
"","","","","","html-button-response","13","145419","0.0-13.0","9482020C92D44BE095717E9EF690D5EB","019cf9d4-5b5e-71fe-9a0e-55385f727bbf","019cf9ba-391a-7c7b-96b9-3757895c469c","","1121","
                <div class=""stimulus-container"">
                    <img src=""images/instructions/movie_4.png"" class=""exp-image"">
                    <div class=""question-area"">
                        <p style=""font-size: 20px; font-weight: bold; margin: 0;"">Was there a person in this image?</p>
                    </div>
                </div>","0","example_question","4","","","","","","","",""
"","","","","","instructions","14","160043","0.0-14.0","9482020C92D44BE095717E9EF690D5EB","019cf9d4-5b5e-71fe-9a0e-55385f727bbf","019cf9ba-391a-7c7b-96b9-3757895c469c","[{""page_index"":0,""viewing_time"":14623}]","14623","","","","","","","","","","","",""
"","","","","","instructions","15","232246","0.0-15.0","9482020C92D44BE095717E9EF690D5EB","019cf9d4-5b5e-71fe-9a0e-55385f727bbf","019cf9ba-391a-7c7b-96b9-3757895c469c","[{""page_index"":0,""viewing_time"":72203}]","72203","","","","","","","","","","","",""
"","","","","","html-keyboard-response","16","237259","0.0-16.0","9482020C92D44BE095717E9EF690D5EB","019cf9d4-5b5e-71fe-9a0e-55385f727bbf","019cf9ba-391a-7c7b-96b9-3757895c469c","","null","<div style=""background-color: white; width: 100vw; height: 100vh;""></div>","null","","","","","","","","","",""
"","","","","","html-keyboard-response","17","238269","0.0-17.0","9482020C92D44BE095717E9EF690D5EB","019cf9d4-5b5e-71fe-9a0e-55385f727bbf","019cf9ba-391a-7c7b-96b9-3757895c469c","","null","
                <div class=""stimulus-container"">
                    <img src=""images/causal_sequence/saving_a_cat_causal/saving_a_cat_causal_4.png"" class=""exp-image"">
                    <div class=""question-area""></div> 
                </div>","null","","","","","","","","","",""
"","","","","","html-button-response","18","240162","0.0-18.0","9482020C92D44BE095717E9EF690D5EB","019cf9d4-5b5e-71fe-9a0e-55385f727bbf","019cf9ba-391a-7c7b-96b9-3757895c469c","","1891","
                <div class=""stimulus-container"">
                    <img src=""images/causal_sequence/saving_a_cat_causal/saving_a_cat_causal_4.png"" class=""exp-image"">
                    <div class=""question-area"">
                        <p style=""font-size: 20px; font-weight: bold; margin: 0;"">Is there a person in this image?</p>
                    </div>
                </div>","0","main_experiment_trial","4","saving_a_cat_causal","causal_sequence","randomized","","","","",""
"","","","","","html-keyboard-response","19","241176","0.0-19.0","9482020C92D44BE095717E9EF690D5EB","019cf9d4-5b5e-71fe-9a0e-55385f727bbf","019cf9ba-391a-7c7b-96b9-3757895c469c","","null","
                <div class=""stimulus-container"">
                    <img src=""images/causal_sequence/saving_a_cat_causal/saving_a_cat_causal_2.png"" class=""exp-image"">
                    <div class=""question-area""></div> 
                </div>","null","","","","","","","","","",""
"","","","","","html-button-response","20","242491","0.0-20.0","9482020C92D44BE095717E9EF690D5EB","019cf9d4-5b5e-71fe-9a0e-55385f727bbf","019cf9ba-391a-7c7b-96b9-3757895c469c","","1314","
                <div class=""stimulus-container"">
                    <img src=""images/causal_sequence/saving_a_cat_causal/saving_a_cat_causal_2.png"" class=""exp-image"">
                    <div class=""question-area"">
                        <p style=""font-size: 20px; font-weight: bold; margin: 0;"">Is there a person in this image?</p>
                    </div>
                </div>","1","main_experiment_trial","2","saving_a_cat_causal","causal_sequence","randomized","","","","",""
"","","","","","html-keyboard-response","21","243500","0.0-21.0","9482020C92D44BE095717E9EF690D5EB","019cf9d4-5b5e-71fe-9a0e-55385f727bbf","019cf9ba-391a-7c7b-96b9-3757895c469c","","null","
                <div class=""stimulus-container"">
                    <img src=""images/causal_sequence/saving_a_cat_causal/saving_a_cat_causal_5.png"" class=""exp-image"">
                    <div class=""question-area""></div> 
                </div>","null","","","","","","","","","",""
"","","","","","html-button-response","22","244745","0.0-22.0","9482020C92D44BE095717E9EF690D5EB","019cf9d4-5b5e-71fe-9a0e-55385f727bbf","019cf9ba-391a-7c7b-96b9-3757895c469c","","1244","
                <div class=""stimulus-container"">
                    <img src=""images/causal_sequence/saving_a_cat_causal/saving_a_cat_causal_5.png"" class=""exp-image"">
                    <div class=""question-area"">
                        <p style=""font-size: 20px; font-weight: bold; margin: 0;"">Is there a person in this image?</p>
                    </div>
                </div>","0","main_experiment_trial","5","saving_a_cat_causal","causal_sequence","randomized","","","","",""
"","","","","","html-keyboard-response","23","245757","0.0-23.0","9482020C92D44BE095717E9EF690D5EB","019cf9d4-5b5e-71fe-9a0e-55385f727bbf","019cf9ba-391a-7c7b-96b9-3757895c469c","","null","
                <div class=""stimulus-container"">
                    <img src=""images/causal_sequence/saving_a_cat_causal/saving_a_cat_causal_9.png"" class=""exp-image"">
                    <div class=""question-area""></div> 
                </div>","null","","","","","","","","","",""
"","","","","","html-button-response","24","246333","0.0-24.0","9482020C92D44BE095717E9EF690D5EB","019cf9d4-5b5e-71fe-9a0e-55385f727bbf","019cf9ba-391a-7c7b-96b9-3757895c469c","","575","
                <div class=""stimulus-container"">
                    <img src=""images/causal_sequence/saving_a_cat_causal/saving_a_cat_causal_9.png"" class=""exp-image"">
                    <div class=""question-area"">
                        <p style=""font-size: 20px; font-weight: bold; margin: 0;"">Is there a person in this image?</p>
                    </div>
                </div>","0","main_experiment_trial","9","saving_a_cat_causal","causal_sequence","randomized","","","","",""
"","","","","","html-keyboard-response","25","247334","0.0-25.0","9482020C92D44BE095717E9EF690D5EB","019cf9d4-5b5e-71fe-9a0e-55385f727bbf","019cf9ba-391a-7c7b-96b9-3757895c469c","","null","
                <div class=""stimulus-container"">
                    <img src=""images/causal_sequence/saving_a_cat_causal/saving_a_cat_causal_6.png"" class=""exp-image"">
                    <div class=""question-area""></div> 
                </div>","null","","","","","","","","","",""
"","","","","","html-button-response","26","248773","0.0-26.0","9482020C92D44BE095717E9EF690D5EB","019cf9d4-5b5e-71fe-9a0e-55385f727bbf","019cf9ba-391a-7c7b-96b9-3757895c469c","","1437","
                <div class=""stimulus-container"">
                    <img src=""images/causal_sequence/saving_a_cat_causal/saving_a_cat_causal_6.png"" class=""exp-image"">
                    <div class=""question-area"">
                        <p style=""font-size: 20px; font-weight: bold; margin: 0;"">Is there a person in this image?</p>
                    </div>
                </div>","0","main_experiment_trial","6","saving_a_cat_causal","causal_sequence","randomized","","","","",""
"","","","","","html-keyboard-response","27","249775","0.0-27.0","9482020C92D44BE095717E9EF690D5EB","019cf9d4-5b5e-71fe-9a0e-55385f727bbf","019cf9ba-391a-7c7b-96b9-3757895c469c","","null","
                <div class=""stimulus-container"">
                    <img src=""images/causal_sequence/saving_a_cat_causal/saving_a_cat_causal_7.png"" class=""exp-image"">
                    <div class=""question-area""></div> 
                </div>","null","","","","","","","","","",""
"","","","","","html-button-response","28","250852","0.0-28.0","9482020C92D44BE095717E9EF690D5EB","019cf9d4-5b5e-71fe-9a0e-55385f727bbf","019cf9ba-391a-7c7b-96b9-3757895c469c","","1077","
                <div class=""stimulus-container"">
                    <img src=""images/causal_sequence/saving_a_cat_causal/saving_a_cat_causal_7.png"" class=""exp-image"">
                    <div class=""question-area"">
                        <p style=""font-size: 20px; font-weight: bold; margin: 0;"">Is there a person in this image?</p>
                    </div>
                </div>","0","main_experiment_trial","7","saving_a_cat_causal","causal_sequence","randomized","","","","",""
"","","","","","html-keyboard-response","29","251868","0.0-29.0","9482020C92D44BE095717E9EF690D5EB","019cf9d4-5b5e-71fe-9a0e-55385f727bbf","019cf9ba-391a-7c7b-96b9-3757895c469c","","null","
                <div class=""stimulus-container"">
                    <img src=""images/causal_sequence/saving_a_cat_causal/saving_a_cat_causal_8.png"" class=""exp-image"">
                    <div class=""question-area""></div> 
                </div>","null","","","","","","","","","",""
"","","","","","html-button-response","30","252663","0.0-30.0","9482020C92D44BE095717E9EF690D5EB","019cf9d4-5b5e-71fe-9a0e-55385f727bbf","019cf9ba-391a-7c7b-96b9-3757895c469c","","794","
                <div class=""stimulus-container"">
                    <img src=""images/causal_sequence/saving_a_cat_causal/saving_a_cat_causal_8.png"" class=""exp-image"">
                    <div class=""question-area"">
                        <p style=""font-size: 20px; font-weight: bold; margin: 0;"">Is there a person in this image?</p>
                    </div>
                </div>","0","main_experiment_trial","8","saving_a_cat_causal","causal_sequence","randomized","","","","",""
"","","","","","html-keyboard-response","31","253679","0.0-31.0","9482020C92D44BE095717E9EF690D5EB","019cf9d4-5b5e-71fe-9a0e-55385f727bbf","019cf9ba-391a-7c7b-96b9-3757895c469c","","null","
                <div class=""stimulus-container"">
                    <img src=""images/causal_sequence/saving_a_cat_causal/saving_a_cat_causal_ten.png"" class=""exp-image"">
                    <div class=""question-area""></div> 
                </div>","null","","","","","","","","","",""
"","","","","","html-button-response","32","254069","0.0-32.0","9482020C92D44BE095717E9EF690D5EB","019cf9d4-5b5e-71fe-9a0e-55385f727bbf","019cf9ba-391a-7c7b-96b9-3757895c469c","","388","
                <div class=""stimulus-container"">
                    <img src=""images/causal_sequence/saving_a_cat_causal/saving_a_cat_causal_ten.png"" class=""exp-image"">
                    <div class=""question-area"">
                        <p style=""font-size: 20px; font-weight: bold; margin: 0;"">Is there a person in this image?</p>
                    </div>
                </div>","0","main_experiment_trial","ten","saving_a_cat_causal","causal_sequence","randomized","","","","",""
"","","","","","html-keyboard-response","33","255083","0.0-33.0","9482020C92D44BE095717E9EF690D5EB","019cf9d4-5b5e-71fe-9a0e-55385f727bbf","019cf9ba-391a-7c7b-96b9-3757895c469c","","null","
                <div class=""stimulus-container"">
                    <img src=""images/causal_sequence/saving_a_cat_causal/saving_a_cat_causal_3.png"" class=""exp-image"">
                    <div class=""question-area""></div> 
                </div>","null","","","","","","","","","",""
"","","","","","html-button-response","34","256586","0.0-34.0","9482020C92D44BE095717E9EF690D5EB","019cf9d4-5b5e-71fe-9a0e-55385f727bbf","019cf9ba-391a-7c7b-96b9-3757895c469c","","1502","
                <div class=""stimulus-container"">
                    <img src=""images/causal_sequence/saving_a_cat_causal/saving_a_cat_causal_3.png"" class=""exp-image"">
                    <div class=""question-area"">
                        <p style=""font-size: 20px; font-weight: bold; margin: 0;"">Is there a person in this image?</p>
                    </div>
                </div>","1","main_experiment_trial","3","saving_a_cat_causal","causal_sequence","randomized","","","","",""
"","","","","","html-keyboard-response","35","257590","0.0-35.0","9482020C92D44BE095717E9EF690D5EB","019cf9d4-5b5e-71fe-9a0e-55385f727bbf","019cf9ba-391a-7c7b-96b9-3757895c469c","","null","
                <div class=""stimulus-container"">
                    <img src=""images/causal_sequence/saving_a_cat_causal/saving_a_cat_causal_1.png"" class=""exp-image"">
                    <div class=""question-area""></div> 
                </div>","null","","","","","","","","","",""
"","","","","","html-button-response","36","259066","0.0-36.0","9482020C92D44BE095717E9EF690D5EB","019cf9d4-5b5e-71fe-9a0e-55385f727bbf","019cf9ba-391a-7c7b-96b9-3757895c469c","","1476","
                <div class=""stimulus-container"">
                    <img src=""images/causal_sequence/saving_a_cat_causal/saving_a_cat_causal_1.png"" class=""exp-image"">
                    <div class=""question-area"">
                        <p style=""font-size: 20px; font-weight: bold; margin: 0;"">Is there a person in this image?</p>
                    </div>
                </div>","0","main_experiment_trial","1","saving_a_cat_causal","causal_sequence","randomized","","","","",""
"","","","","","html-keyboard-response","37","264077","0.0-37.0","9482020C92D44BE095717E9EF690D5EB","019cf9d4-5b5e-71fe-9a0e-55385f727bbf","019cf9ba-391a-7c7b-96b9-3757895c469c","","null","<div style=""background-color: white; width: 100vw; height: 100vh;""></div>","null","","","","","","","","","",""
"","","","","","html-keyboard-response","38","265081","0.0-38.0","9482020C92D44BE095717E9EF690D5EB","019cf9d4-5b5e-71fe-9a0e-55385f727bbf","019cf9ba-391a-7c7b-96b9-3757895c469c","","null","
                <div class=""stimulus-container"">
                    <img src=""images/semantic_sequence/creative_activities_semantic/creative_activities_semantic_ten.png"" class=""exp-image"">
                    <div class=""question-area""></div> 
                </div>","null","","","","","","","","","",""
"","","","","","html-button-response","39","267522","0.0-39.0","9482020C92D44BE095717E9EF690D5EB","019cf9d4-5b5e-71fe-9a0e-55385f727bbf","019cf9ba-391a-7c7b-96b9-3757895c469c","","2439","
                <div class=""stimulus-container"">
                    <img src=""images/semantic_sequence/creative_activities_semantic/creative_activities_semantic_ten.png"" class=""exp-image"">
                    <div class=""question-area"">
                        <p style=""font-size: 20px; font-weight: bold; margin: 0;"">Is there a person in this image?</p>
                    </div>
                </div>","0","main_experiment_trial","ten","creative_activities_semantic","semantic_sequence","randomized","","","","",""
"","","","","","html-keyboard-response","40","268534","0.0-40.0","9482020C92D44BE095717E9EF690D5EB","019cf9d4-5b5e-71fe-9a0e-55385f727bbf","019cf9ba-391a-7c7b-96b9-3757895c469c","","null","
                <div class=""stimulus-container"">
                    <img src=""images/semantic_sequence/creative_activities_semantic/creative_activities_semantic_3.png"" class=""exp-image"">
                    <div class=""question-area""></div> 
                </div>","null","","","","","","","","","",""
"","","","","","html-button-response","41","269736","0.0-41.0","9482020C92D44BE095717E9EF690D5EB","019cf9d4-5b5e-71fe-9a0e-55385f727bbf","019cf9ba-391a-7c7b-96b9-3757895c469c","","1201","
                <div class=""stimulus-container"">
                    <img src=""images/semantic_sequence/creative_activities_semantic/creative_activities_semantic_3.png"" class=""exp-image"">
                    <div class=""question-area"">
                        <p style=""font-size: 20px; font-weight: bold; margin: 0;"">Is there a person in this image?</p>
                    </div>
                </div>","0","main_experiment_trial","3","creative_activities_semantic","semantic_sequence","randomized","","","","",""
"","","","","","html-keyboard-response","42","270747","0.0-42.0","9482020C92D44BE095717E9EF690D5EB","019cf9d4-5b5e-71fe-9a0e-55385f727bbf","019cf9ba-391a-7c7b-96b9-3757895c469c","","null","
                <div class=""stimulus-container"">
                    <img src=""images/semantic_sequence/creative_activities_semantic/creative_activities_semantic_9.png"" class=""exp-image"">
                    <div class=""question-area""></div> 
                </div>","null","","","","","","","","","",""
"","","","","","html-button-response","43","272513","0.0-43.0","9482020C92D44BE095717E9EF690D5EB","019cf9d4-5b5e-71fe-9a0e-55385f727bbf","019cf9ba-391a-7c7b-96b9-3757895c469c","","1763","
                <div class=""stimulus-container"">
                    <img src=""images/semantic_sequence/creative_activities_semantic/creative_activities_semantic_9.png"" class=""exp-image"">
                    <div class=""question-area"">
                        <p style=""font-size: 20px; font-weight: bold; margin: 0;"">Is there a person in this image?</p>
                    </div>
                </div>","0","main_experiment_trial","9","creative_activities_semantic","semantic_sequence","randomized","","","","",""
"","","","","","html-keyboard-response","44","273526","0.0-44.0","9482020C92D44BE095717E9EF690D5EB","019cf9d4-5b5e-71fe-9a0e-55385f727bbf","019cf9ba-391a-7c7b-96b9-3757895c469c","","null","
                <div class=""stimulus-container"">
                    <img src=""images/semantic_sequence/creative_activities_semantic/creative_activities_semantic_4.png"" class=""exp-image"">
                    <div class=""question-area""></div> 
                </div>","null","","","","","","","","","",""
"","","","","","html-button-response","45","274324","0.0-45.0","9482020C92D44BE095717E9EF690D5EB","019cf9d4-5b5e-71fe-9a0e-55385f727bbf","019cf9ba-391a-7c7b-96b9-3757895c469c","","797","
                <div class=""stimulus-container"">
                    <img src=""images/semantic_sequence/creative_activities_semantic/creative_activities_semantic_4.png"" class=""exp-image"">
                    <div class=""question-area"">
                        <p style=""font-size: 20px; font-weight: bold; margin: 0;"">Is there a person in this image?</p>
                    </div>
                </div>","0","main_experiment_trial","4","creative_activities_semantic","semantic_sequence","randomized","","","","",""
"","","","","","html-keyboard-response","46","275339","0.0-46.0","9482020C92D44BE095717E9EF690D5EB","019cf9d4-5b5e-71fe-9a0e-55385f727bbf","019cf9ba-391a-7c7b-96b9-3757895c469c","","null","
                <div class=""stimulus-container"">
                    <img src=""images/semantic_sequence/creative_activities_semantic/creative_activities_semantic_6.png"" class=""exp-image"">
                    <div class=""question-area""></div> 
                </div>","null","","","","","","","","","",""
"","","","","","html-button-response","47","276058","0.0-47.0","9482020C92D44BE095717E9EF690D5EB","019cf9d4-5b5e-71fe-9a0e-55385f727bbf","019cf9ba-391a-7c7b-96b9-3757895c469c","","719","
                <div class=""stimulus-container"">
                    <img src=""images/semantic_sequence/creative_activities_semantic/creative_activities_semantic_6.png"" class=""exp-image"">
                    <div class=""question-area"">
                        <p style=""font-size: 20px; font-weight: bold; margin: 0;"">Is there a person in this image?</p>
                    </div>
                </div>","0","main_experiment_trial","6","creative_activities_semantic","semantic_sequence","randomized","","","","",""
"","","","","","html-keyboard-response","48","277068","0.0-48.0","9482020C92D44BE095717E9EF690D5EB","019cf9d4-5b5e-71fe-9a0e-55385f727bbf","019cf9ba-391a-7c7b-96b9-3757895c469c","","null","
                <div class=""stimulus-container"">
                    <img src=""images/semantic_sequence/creative_activities_semantic/creative_activities_semantic_2.png"" class=""exp-image"">
                    <div class=""question-area""></div> 
                </div>","null","","","","","","","","","",""
"","","","","","html-button-response","49","277888","0.0-49.0","9482020C92D44BE095717E9EF690D5EB","019cf9d4-5b5e-71fe-9a0e-55385f727bbf","019cf9ba-391a-7c7b-96b9-3757895c469c","","820","
                <div class=""stimulus-container"">
                    <img src=""images/semantic_sequence/creative_activities_semantic/creative_activities_semantic_2.png"" class=""exp-image"">
                    <div class=""question-area"">
                        <p style=""font-size: 20px; font-weight: bold; margin: 0;"">Is there a person in this image?</p>
                    </div>
                </div>","0","main_experiment_trial","2","creative_activities_semantic","semantic_sequence","randomized","","","","",""
"","","","","","html-keyboard-response","50","278895","0.0-50.0","9482020C92D44BE095717E9EF690D5EB","019cf9d4-5b5e-71fe-9a0e-55385f727bbf","019cf9ba-391a-7c7b-96b9-3757895c469c","","null","
                <div class=""stimulus-container"">
                    <img src=""images/semantic_sequence/creative_activities_semantic/creative_activities_semantic_7.png"" class=""exp-image"">
                    <div class=""question-area""></div> 
                </div>","null","","","","","","","","","",""
"","","","","","html-button-response","51","279490","0.0-51.0","9482020C92D44BE095717E9EF690D5EB","019cf9d4-5b5e-71fe-9a0e-55385f727bbf","019cf9ba-391a-7c7b-96b9-3757895c469c","","595","
                <div class=""stimulus-container"">
                    <img src=""images/semantic_sequence/creative_activities_semantic/creative_activities_semantic_7.png"" class=""exp-image"">
                    <div class=""question-area"">
                        <p style=""font-size: 20px; font-weight: bold; margin: 0;"">Is there a person in this image?</p>
                    </div>
                </div>","0","main_experiment_trial","7","creative_activities_semantic","semantic_sequence","randomized","","","","",""
"","","","","","html-keyboard-response","52","280503","0.0-52.0","9482020C92D44BE095717E9EF690D5EB","019cf9d4-5b5e-71fe-9a0e-55385f727bbf","019cf9ba-391a-7c7b-96b9-3757895c469c","","null","
                <div class=""stimulus-container"">
                    <img src=""images/semantic_sequence/creative_activities_semantic/creative_activities_semantic_5.png"" class=""exp-image"">
                    <div class=""question-area""></div> 
                </div>","null","","","","","","","","","",""
"","","","","","html-button-response","53","281302","0.0-53.0","9482020C92D44BE095717E9EF690D5EB","019cf9d4-5b5e-71fe-9a0e-55385f727bbf","019cf9ba-391a-7c7b-96b9-3757895c469c","","798","
                <div class=""stimulus-container"">
                    <img src=""images/semantic_sequence/creative_activities_semantic/creative_activities_semantic_5.png"" class=""exp-image"">
                    <div class=""question-area"">
                        <p style=""font-size: 20px; font-weight: bold; margin: 0;"">Is there a person in this image?</p>
                    </div>
                </div>","0","main_experiment_trial","5","creative_activities_semantic","semantic_sequence","randomized","","","","",""
"","","","","","html-keyboard-response","54","282310","0.0-54.0","9482020C92D44BE095717E9EF690D5EB","019cf9d4-5b5e-71fe-9a0e-55385f727bbf","019cf9ba-391a-7c7b-96b9-3757895c469c","","null","
                <div class=""stimulus-container"">
                    <img src=""images/semantic_sequence/creative_activities_semantic/creative_activities_semantic_8.png"" class=""exp-image"">
                    <div class=""question-area""></div> 
                </div>","null","","","","","","","","","",""
"","","","","","html-button-response","55","283517","0.0-55.0","9482020C92D44BE095717E9EF690D5EB","019cf9d4-5b5e-71fe-9a0e-55385f727bbf","019cf9ba-391a-7c7b-96b9-3757895c469c","","1206","
                <div class=""stimulus-container"">
                    <img src=""images/semantic_sequence/creative_activities_semantic/creative_activities_semantic_8.png"" class=""exp-image"">
                    <div class=""question-area"">
                        <p style=""font-size: 20px; font-weight: bold; margin: 0;"">Is there a person in this image?</p>
                    </div>
                </div>","0","main_experiment_trial","8","creative_activities_semantic","semantic_sequence","randomized","","","","",""
"","","","","","html-keyboard-response","56","284526","0.0-56.0","9482020C92D44BE095717E9EF690D5EB","019cf9d4-5b5e-71fe-9a0e-55385f727bbf","019cf9ba-391a-7c7b-96b9-3757895c469c","","null","
                <div class=""stimulus-container"">
                    <img src=""images/semantic_sequence/creative_activities_semantic/creative_activities_semantic_1.png"" class=""exp-image"">
                    <div class=""question-area""></div> 
                </div>","null","","","","","","","","","",""
"","","","","","html-button-response","57","284936","0.0-57.0","9482020C92D44BE095717E9EF690D5EB","019cf9d4-5b5e-71fe-9a0e-55385f727bbf","019cf9ba-391a-7c7b-96b9-3757895c469c","","409","
                <div class=""stimulus-container"">
                    <img src=""images/semantic_sequence/creative_activities_semantic/creative_activities_semantic_1.png"" class=""exp-image"">
                    <div class=""question-area"">
                        <p style=""font-size: 20px; font-weight: bold; margin: 0;"">Is there a person in this image?</p>
                    </div>
                </div>","0","main_experiment_trial","1","creative_activities_semantic","semantic_sequence","randomized","","","","",""
"","","","","","html-keyboard-response","58","289951","0.0-58.0","9482020C92D44BE095717E9EF690D5EB","019cf9d4-5b5e-71fe-9a0e-55385f727bbf","019cf9ba-391a-7c7b-96b9-3757895c469c","","null","<div style=""background-color: white; width: 100vw; height: 100vh;""></div>","null","","","","","","","","","",""
"","","","","","html-keyboard-response","59","290961","0.0-59.0","9482020C92D44BE095717E9EF690D5EB","019cf9d4-5b5e-71fe-9a0e-55385f727bbf","019cf9ba-391a-7c7b-96b9-3757895c469c","","null","
                <div class=""stimulus-container"">
                    <img src=""images/causal_sequence/coin_causal/coin_causal_8.png"" class=""exp-image"">
                    <div class=""question-area""></div> 
                </div>","null","","","","","","","","","",""
"","","","","","html-button-response","60","293973","0.0-60.0","9482020C92D44BE095717E9EF690D5EB","019cf9d4-5b5e-71fe-9a0e-55385f727bbf","019cf9ba-391a-7c7b-96b9-3757895c469c","","null","
                <div class=""stimulus-container"">
                    <img src=""images/causal_sequence/coin_causal/coin_causal_8.png"" class=""exp-image"">
                    <div class=""question-area"">
                        <p style=""font-size: 20px; font-weight: bold; margin: 0;"">Is there a person in this image?</p>
                    </div>
                </div>","null","main_experiment_trial","8","coin_causal","causal_sequence","randomized","","","","",""
"","","","","","html-keyboard-response","61","294976","0.0-61.0","9482020C92D44BE095717E9EF690D5EB","019cf9d4-5b5e-71fe-9a0e-55385f727bbf","019cf9ba-391a-7c7b-96b9-3757895c469c","","null","
                <div class=""stimulus-container"">
                    <img src=""images/causal_sequence/coin_causal/coin_causal_2.png"" class=""exp-image"">
                    <div class=""question-area""></div> 
                </div>","null","","","","","","","","","",""
"","","","","","html-button-response","62","296659","0.0-62.0","9482020C92D44BE095717E9EF690D5EB","019cf9d4-5b5e-71fe-9a0e-55385f727bbf","019cf9ba-391a-7c7b-96b9-3757895c469c","","1682","
                <div class=""stimulus-container"">
                    <img src=""images/causal_sequence/coin_causal/coin_causal_2.png"" class=""exp-image"">
                    <div class=""question-area"">
                        <p style=""font-size: 20px; font-weight: bold; margin: 0;"">Is there a person in this image?</p>
                    </div>
                </div>","0","main_experiment_trial","2","coin_causal","causal_sequence","randomized","","","","",""
"","","","","","html-keyboard-response","63","297674","0.0-63.0","9482020C92D44BE095717E9EF690D5EB","019cf9d4-5b5e-71fe-9a0e-55385f727bbf","019cf9ba-391a-7c7b-96b9-3757895c469c","","null","
                <div class=""stimulus-container"">
                    <img src=""images/causal_sequence/coin_causal/coin_causal_7.png"" class=""exp-image"">
                    <div class=""question-area""></div> 
                </div>","null","","","","","","","","","",""
"","","","","","html-button-response","64","299019","0.0-64.0","9482020C92D44BE095717E9EF690D5EB","019cf9d4-5b5e-71fe-9a0e-55385f727bbf","019cf9ba-391a-7c7b-96b9-3757895c469c","","1343","
                <div class=""stimulus-container"">
                    <img src=""images/causal_sequence/coin_causal/coin_causal_7.png"" class=""exp-image"">
                    <div class=""question-area"">
                        <p style=""font-size: 20px; font-weight: bold; margin: 0;"">Is there a person in this image?</p>
                    </div>
                </div>","1","main_experiment_trial","7","coin_causal","causal_sequence","randomized","","","","",""
"","","","","","html-keyboard-response","65","300030","0.0-65.0","9482020C92D44BE095717E9EF690D5EB","019cf9d4-5b5e-71fe-9a0e-55385f727bbf","019cf9ba-391a-7c7b-96b9-3757895c469c","","null","
                <div class=""stimulus-container"">
                    <img src=""images/causal_sequence/coin_causal/coin_causal_5.png"" class=""exp-image"">
                    <div class=""question-area""></div> 
                </div>","null","","","","","","","","","",""
"","","","","","html-button-response","66","300625","0.0-66.0","9482020C92D44BE095717E9EF690D5EB","019cf9d4-5b5e-71fe-9a0e-55385f727bbf","019cf9ba-391a-7c7b-96b9-3757895c469c","","594","
                <div class=""stimulus-container"">
                    <img src=""images/causal_sequence/coin_causal/coin_causal_5.png"" class=""exp-image"">
                    <div class=""question-area"">
                        <p style=""font-size: 20px; font-weight: bold; margin: 0;"">Is there a person in this image?</p>
                    </div>
                </div>","0","main_experiment_trial","5","coin_causal","causal_sequence","randomized","","","","",""
"","","","","","html-keyboard-response","67","301628","0.0-67.0","9482020C92D44BE095717E9EF690D5EB","019cf9d4-5b5e-71fe-9a0e-55385f727bbf","019cf9ba-391a-7c7b-96b9-3757895c469c","","null","
                <div class=""stimulus-container"">
                    <img src=""images/causal_sequence/coin_causal/coin_causal_9.png"" class=""exp-image"">
                    <div class=""question-area""></div> 
                </div>","null","","","","","","","","","",""
"","","","","","html-button-response","68","304334","0.0-68.0","9482020C92D44BE095717E9EF690D5EB","019cf9d4-5b5e-71fe-9a0e-55385f727bbf","019cf9ba-391a-7c7b-96b9-3757895c469c","","2705","
                <div class=""stimulus-container"">
                    <img src=""images/causal_sequence/coin_causal/coin_causal_9.png"" class=""exp-image"">
                    <div class=""question-area"">
                        <p style=""font-size: 20px; font-weight: bold; margin: 0;"">Is there a person in this image?</p>
                    </div>
                </div>","0","main_experiment_trial","9","coin_causal","causal_sequence","randomized","","","","",""
"","","","","","html-keyboard-response","69","305345","0.0-69.0","9482020C92D44BE095717E9EF690D5EB","019cf9d4-5b5e-71fe-9a0e-55385f727bbf","019cf9ba-391a-7c7b-96b9-3757895c469c","","null","
                <div class=""stimulus-container"">
                    <img src=""images/causal_sequence/coin_causal/coin_causal_3.png"" class=""exp-image"">
                    <div class=""question-area""></div> 
                </div>","null","","","","","","","","","",""
"","","","","","html-button-response","70","308357","0.0-70.0","9482020C92D44BE095717E9EF690D5EB","019cf9d4-5b5e-71fe-9a0e-55385f727bbf","019cf9ba-391a-7c7b-96b9-3757895c469c","","null","
                <div class=""stimulus-container"">
                    <img src=""images/causal_sequence/coin_causal/coin_causal_3.png"" class=""exp-image"">
                    <div class=""question-area"">
                        <p style=""font-size: 20px; font-weight: bold; margin: 0;"">Is there a person in this image?</p>
                    </div>
                </div>","null","main_experiment_trial","3","coin_causal","causal_sequence","randomized","","","","",""
"","","","","","html-keyboard-response","71","309361","0.0-71.0","9482020C92D44BE095717E9EF690D5EB","019cf9d4-5b5e-71fe-9a0e-55385f727bbf","019cf9ba-391a-7c7b-96b9-3757895c469c","","null","
                <div class=""stimulus-container"">
                    <img src=""images/causal_sequence/coin_causal/coin_causal_ten.png"" class=""exp-image"">
                    <div class=""question-area""></div> 
                </div>","null","","","","","","","","","",""
"","","","","","html-button-response","72","312373","0.0-72.0","9482020C92D44BE095717E9EF690D5EB","019cf9d4-5b5e-71fe-9a0e-55385f727bbf","019cf9ba-391a-7c7b-96b9-3757895c469c","","null","
                <div class=""stimulus-container"">
                    <img src=""images/causal_sequence/coin_causal/coin_causal_ten.png"" class=""exp-image"">
                    <div class=""question-area"">
                        <p style=""font-size: 20px; font-weight: bold; margin: 0;"">Is there a person in this image?</p>
                    </div>
                </div>","null","main_experiment_trial","ten","coin_causal","causal_sequence","randomized","","","","",""
"","","","","","html-keyboard-response","73","313388","0.0-73.0","9482020C92D44BE095717E9EF690D5EB","019cf9d4-5b5e-71fe-9a0e-55385f727bbf","019cf9ba-391a-7c7b-96b9-3757895c469c","","null","
                <div class=""stimulus-container"">
                    <img src=""images/causal_sequence/coin_causal/coin_causal_4.png"" class=""exp-image"">
                    <div class=""question-area""></div> 
                </div>","null","","","","","","","","","",""
"","","","","","html-button-response","74","314796","0.0-74.0","9482020C92D44BE095717E9EF690D5EB","019cf9d4-5b5e-71fe-9a0e-55385f727bbf","019cf9ba-391a-7c7b-96b9-3757895c469c","","1406","
                <div class=""stimulus-container"">
                    <img src=""images/causal_sequence/coin_causal/coin_causal_4.png"" class=""exp-image"">
                    <div class=""question-area"">
                        <p style=""font-size: 20px; font-weight: bold; margin: 0;"">Is there a person in this image?</p>
                    </div>
                </div>","0","main_experiment_trial","4","coin_causal","causal_sequence","randomized","","","","",""
"","","","","","html-keyboard-response","75","315806","0.0-75.0","9482020C92D44BE095717E9EF690D5EB","019cf9d4-5b5e-71fe-9a0e-55385f727bbf","019cf9ba-391a-7c7b-96b9-3757895c469c","","null","
                <div class=""stimulus-container"">
                    <img src=""images/causal_sequence/coin_causal/coin_causal_6.png"" class=""exp-image"">
                    <div class=""question-area""></div> 
                </div>","null","","","","","","","","","",""
"","","","","","html-button-response","76","316867","0.0-76.0","9482020C92D44BE095717E9EF690D5EB","019cf9d4-5b5e-71fe-9a0e-55385f727bbf","019cf9ba-391a-7c7b-96b9-3757895c469c","","1059","
                <div class=""stimulus-container"">
                    <img src=""images/causal_sequence/coin_causal/coin_causal_6.png"" class=""exp-image"">
                    <div class=""question-area"">
                        <p style=""font-size: 20px; font-weight: bold; margin: 0;"">Is there a person in this image?</p>
                    </div>
                </div>","0","main_experiment_trial","6","coin_causal","causal_sequence","randomized","","","","",""
"","","","","","html-keyboard-response","77","317881","0.0-77.0","9482020C92D44BE095717E9EF690D5EB","019cf9d4-5b5e-71fe-9a0e-55385f727bbf","019cf9ba-391a-7c7b-96b9-3757895c469c","","null","
                <div class=""stimulus-container"">
                    <img src=""images/causal_sequence/coin_causal/coin_causal_1.png"" class=""exp-image"">
                    <div class=""question-area""></div> 
                </div>","null","","","","","","","","","",""
"","","","","","html-button-response","78","318610","0.0-78.0","9482020C92D44BE095717E9EF690D5EB","019cf9d4-5b5e-71fe-9a0e-55385f727bbf","019cf9ba-391a-7c7b-96b9-3757895c469c","","727","
                <div class=""stimulus-container"">
                    <img src=""images/causal_sequence/coin_causal/coin_causal_1.png"" class=""exp-image"">
                    <div class=""question-area"">
                        <p style=""font-size: 20px; font-weight: bold; margin: 0;"">Is there a person in this image?</p>
                    </div>
                </div>","0","main_experiment_trial","1","coin_causal","causal_sequence","randomized","","","","",""
"","","","","","html-keyboard-response","79","323626","0.0-79.0","9482020C92D44BE095717E9EF690D5EB","019cf9d4-5b5e-71fe-9a0e-55385f727bbf","019cf9ba-391a-7c7b-96b9-3757895c469c","","null","<div style=""background-color: white; width: 100vw; height: 100vh;""></div>","null","","","","","","","","","",""
"","","","","","html-keyboard-response","80","324632","0.0-80.0","9482020C92D44BE095717E9EF690D5EB","019cf9d4-5b5e-71fe-9a0e-55385f727bbf","019cf9ba-391a-7c7b-96b9-3757895c469c","","null","
                <div class=""stimulus-container"">
                    <img src=""images/causal_sequence/dog_causal/dog_causal_2.png"" class=""exp-image"">
                    <div class=""question-area""></div> 
                </div>","null","","","","","","","","","",""
"","","","","","html-button-response","81","325398","0.0-81.0","9482020C92D44BE095717E9EF690D5EB","019cf9d4-5b5e-71fe-9a0e-55385f727bbf","019cf9ba-391a-7c7b-96b9-3757895c469c","","765","
                <div class=""stimulus-container"">
                    <img src=""images/causal_sequence/dog_causal/dog_causal_2.png"" class=""exp-image"">
                    <div class=""question-area"">
                        <p style=""font-size: 20px; font-weight: bold; margin: 0;"">Is there a person in this image?</p>
                    </div>
                </div>","0","main_experiment_trial","2","dog_causal","causal_sequence","randomized","","","","",""
"","","","","","html-keyboard-response","82","326410","0.0-82.0","9482020C92D44BE095717E9EF690D5EB","019cf9d4-5b5e-71fe-9a0e-55385f727bbf","019cf9ba-391a-7c7b-96b9-3757895c469c","","null","
                <div class=""stimulus-container"">
                    <img src=""images/causal_sequence/dog_causal/dog_causal_6.png"" class=""exp-image"">
                    <div class=""question-area""></div> 
                </div>","null","","","","","","","","","",""
"","","","","","html-button-response","83","327420","0.0-83.0","9482020C92D44BE095717E9EF690D5EB","019cf9d4-5b5e-71fe-9a0e-55385f727bbf","019cf9ba-391a-7c7b-96b9-3757895c469c","","1008","
                <div class=""stimulus-container"">
                    <img src=""images/causal_sequence/dog_causal/dog_causal_6.png"" class=""exp-image"">
                    <div class=""question-area"">
                        <p style=""font-size: 20px; font-weight: bold; margin: 0;"">Is there a person in this image?</p>
                    </div>
                </div>","0","main_experiment_trial","6","dog_causal","causal_sequence","randomized","","","","",""
"","","","","","html-keyboard-response","84","328426","0.0-84.0","9482020C92D44BE095717E9EF690D5EB","019cf9d4-5b5e-71fe-9a0e-55385f727bbf","019cf9ba-391a-7c7b-96b9-3757895c469c","","null","
                <div class=""stimulus-container"">
                    <img src=""images/causal_sequence/dog_causal/dog_causal_8.png"" class=""exp-image"">
                    <div class=""question-area""></div> 
                </div>","null","","","","","","","","","",""
"","","","","","html-button-response","85","329232","0.0-85.0","9482020C92D44BE095717E9EF690D5EB","019cf9d4-5b5e-71fe-9a0e-55385f727bbf","019cf9ba-391a-7c7b-96b9-3757895c469c","","805","
                <div class=""stimulus-container"">
                    <img src=""images/causal_sequence/dog_causal/dog_causal_8.png"" class=""exp-image"">
                    <div class=""question-area"">
                        <p style=""font-size: 20px; font-weight: bold; margin: 0;"">Is there a person in this image?</p>
                    </div>
                </div>","0","main_experiment_trial","8","dog_causal","causal_sequence","randomized","","","","",""
"","","","","","html-keyboard-response","86","330239","0.0-86.0","9482020C92D44BE095717E9EF690D5EB","019cf9d4-5b5e-71fe-9a0e-55385f727bbf","019cf9ba-391a-7c7b-96b9-3757895c469c","","null","
                <div class=""stimulus-container"">
                    <img src=""images/causal_sequence/dog_causal/dog_causal_3.png"" class=""exp-image"">
                    <div class=""question-area""></div> 
                </div>","null","","","","","","","","","",""
"","","","","","html-button-response","87","330644","0.0-87.0","9482020C92D44BE095717E9EF690D5EB","019cf9d4-5b5e-71fe-9a0e-55385f727bbf","019cf9ba-391a-7c7b-96b9-3757895c469c","","405","
                <div class=""stimulus-container"">
                    <img src=""images/causal_sequence/dog_causal/dog_causal_3.png"" class=""exp-image"">
                    <div class=""question-area"">
                        <p style=""font-size: 20px; font-weight: bold; margin: 0;"">Is there a person in this image?</p>
                    </div>
                </div>","0","main_experiment_trial","3","dog_causal","causal_sequence","randomized","","","","",""
"","","","","","html-keyboard-response","88","331655","0.0-88.0","9482020C92D44BE095717E9EF690D5EB","019cf9d4-5b5e-71fe-9a0e-55385f727bbf","019cf9ba-391a-7c7b-96b9-3757895c469c","","null","
                <div class=""stimulus-container"">
                    <img src=""images/causal_sequence/dog_causal/dog_causal_1.png"" class=""exp-image"">
                    <div class=""question-area""></div> 
                </div>","null","","","","","","","","","",""
"","","","","","html-button-response","89","332380","0.0-89.0","9482020C92D44BE095717E9EF690D5EB","019cf9d4-5b5e-71fe-9a0e-55385f727bbf","019cf9ba-391a-7c7b-96b9-3757895c469c","","723","
                <div class=""stimulus-container"">
                    <img src=""images/causal_sequence/dog_causal/dog_causal_1.png"" class=""exp-image"">
                    <div class=""question-area"">
                        <p style=""font-size: 20px; font-weight: bold; margin: 0;"">Is there a person in this image?</p>
                    </div>
                </div>","0","main_experiment_trial","1","dog_causal","causal_sequence","randomized","","","","",""
"","","","","","html-keyboard-response","90","333385","0.0-90.0","9482020C92D44BE095717E9EF690D5EB","019cf9d4-5b5e-71fe-9a0e-55385f727bbf","019cf9ba-391a-7c7b-96b9-3757895c469c","","null","
                <div class=""stimulus-container"">
                    <img src=""images/causal_sequence/dog_causal/dog_causal_7.png"" class=""exp-image"">
                    <div class=""question-area""></div> 
                </div>","null","","","","","","","","","",""
"","","","","","html-button-response","91","334663","0.0-91.0","9482020C92D44BE095717E9EF690D5EB","019cf9d4-5b5e-71fe-9a0e-55385f727bbf","019cf9ba-391a-7c7b-96b9-3757895c469c","","1277","
                <div class=""stimulus-container"">
                    <img src=""images/causal_sequence/dog_causal/dog_causal_7.png"" class=""exp-image"">
                    <div class=""question-area"">
                        <p style=""font-size: 20px; font-weight: bold; margin: 0;"">Is there a person in this image?</p>
                    </div>
                </div>","0","main_experiment_trial","7","dog_causal","causal_sequence","randomized","","","","",""
"","","","","","html-keyboard-response","92","335666","0.0-92.0","9482020C92D44BE095717E9EF690D5EB","019cf9d4-5b5e-71fe-9a0e-55385f727bbf","019cf9ba-391a-7c7b-96b9-3757895c469c","","null","
                <div class=""stimulus-container"">
                    <img src=""images/causal_sequence/dog_causal/dog_causal_ten.png"" class=""exp-image"">
                    <div class=""question-area""></div> 
                </div>","null","","","","","","","","","",""
"","","","","","html-button-response","93","336787","0.0-93.0","9482020C92D44BE095717E9EF690D5EB","019cf9d4-5b5e-71fe-9a0e-55385f727bbf","019cf9ba-391a-7c7b-96b9-3757895c469c","","1121","
                <div class=""stimulus-container"">
                    <img src=""images/causal_sequence/dog_causal/dog_causal_ten.png"" class=""exp-image"">
                    <div class=""question-area"">
                        <p style=""font-size: 20px; font-weight: bold; margin: 0;"">Is there a person in this image?</p>
                    </div>
                </div>","0","main_experiment_trial","ten","dog_causal","causal_sequence","randomized","","","","",""
"","","","","","html-keyboard-response","94","337804","0.0-94.0","9482020C92D44BE095717E9EF690D5EB","019cf9d4-5b5e-71fe-9a0e-55385f727bbf","019cf9ba-391a-7c7b-96b9-3757895c469c","","null","
                <div class=""stimulus-container"">
                    <img src=""images/causal_sequence/dog_causal/dog_causal_9.png"" class=""exp-image"">
                    <div class=""question-area""></div> 
                </div>","null","","","","","","","","","",""
"","","","","","html-button-response","95","338215","0.0-95.0","9482020C92D44BE095717E9EF690D5EB","019cf9d4-5b5e-71fe-9a0e-55385f727bbf","019cf9ba-391a-7c7b-96b9-3757895c469c","","411","
                <div class=""stimulus-container"">
                    <img src=""images/causal_sequence/dog_causal/dog_causal_9.png"" class=""exp-image"">
                    <div class=""question-area"">
                        <p style=""font-size: 20px; font-weight: bold; margin: 0;"">Is there a person in this image?</p>
                    </div>
                </div>","0","main_experiment_trial","9","dog_causal","causal_sequence","randomized","","","","",""
"","","","","","html-keyboard-response","96","339226","0.0-96.0","9482020C92D44BE095717E9EF690D5EB","019cf9d4-5b5e-71fe-9a0e-55385f727bbf","019cf9ba-391a-7c7b-96b9-3757895c469c","","null","
                <div class=""stimulus-container"">
                    <img src=""images/causal_sequence/dog_causal/dog_causal_5.png"" class=""exp-image"">
                    <div class=""question-area""></div> 
                </div>","null","","","","","","","","","",""
"","","","","","html-button-response","97","342239","0.0-97.0","9482020C92D44BE095717E9EF690D5EB","019cf9d4-5b5e-71fe-9a0e-55385f727bbf","019cf9ba-391a-7c7b-96b9-3757895c469c","","null","
                <div class=""stimulus-container"">
                    <img src=""images/causal_sequence/dog_causal/dog_causal_5.png"" class=""exp-image"">
                    <div class=""question-area"">
                        <p style=""font-size: 20px; font-weight: bold; margin: 0;"">Is there a person in this image?</p>
                    </div>
                </div>","null","main_experiment_trial","5","dog_causal","causal_sequence","randomized","","","","",""
"","","","","","html-keyboard-response","98","343247","0.0-98.0","9482020C92D44BE095717E9EF690D5EB","019cf9d4-5b5e-71fe-9a0e-55385f727bbf","019cf9ba-391a-7c7b-96b9-3757895c469c","","null","
                <div class=""stimulus-container"">
                    <img src=""images/causal_sequence/dog_causal/dog_causal_4.png"" class=""exp-image"">
                    <div class=""question-area""></div> 
                </div>","null","","","","","","","","","",""
"","","","","","html-button-response","99","344135","0.0-99.0","9482020C92D44BE095717E9EF690D5EB","019cf9d4-5b5e-71fe-9a0e-55385f727bbf","019cf9ba-391a-7c7b-96b9-3757895c469c","","888","
                <div class=""stimulus-container"">
                    <img src=""images/causal_sequence/dog_causal/dog_causal_4.png"" class=""exp-image"">
                    <div class=""question-area"">
                        <p style=""font-size: 20px; font-weight: bold; margin: 0;"">Is there a person in this image?</p>
                    </div>
                </div>","0","main_experiment_trial","4","dog_causal","causal_sequence","randomized","","","","",""
"","","","","","html-keyboard-response","100","349139","0.0-100.0","9482020C92D44BE095717E9EF690D5EB","019cf9d4-5b5e-71fe-9a0e-55385f727bbf","019cf9ba-391a-7c7b-96b9-3757895c469c","","null","<div style=""background-color: white; width: 100vw; height: 100vh;""></div>","null","","","","","","","","","",""
"","","","","","html-keyboard-response","101","350149","0.0-101.0","9482020C92D44BE095717E9EF690D5EB","019cf9d4-5b5e-71fe-9a0e-55385f727bbf","019cf9ba-391a-7c7b-96b9-3757895c469c","","null","
                <div class=""stimulus-container"">
                    <img src=""images/causal_sequence/the_performance_causal/the_performance_causal_7.png"" class=""exp-image"">
                    <div class=""question-area""></div> 
                </div>","null","","","","","","","","","",""
"","","","","","html-button-response","102","352210","0.0-102.0","9482020C92D44BE095717E9EF690D5EB","019cf9d4-5b5e-71fe-9a0e-55385f727bbf","019cf9ba-391a-7c7b-96b9-3757895c469c","","2061","
                <div class=""stimulus-container"">
                    <img src=""images/causal_sequence/the_performance_causal/the_performance_causal_7.png"" class=""exp-image"">
                    <div class=""question-area"">
                        <p style=""font-size: 20px; font-weight: bold; margin: 0;"">Is there a person in this image?</p>
                    </div>
                </div>","0","main_experiment_trial","7","the_performance_causal","causal_sequence","randomized","","","","",""
"","","","","","html-keyboard-response","103","353227","0.0-103.0","9482020C92D44BE095717E9EF690D5EB","019cf9d4-5b5e-71fe-9a0e-55385f727bbf","019cf9ba-391a-7c7b-96b9-3757895c469c","","null","
                <div class=""stimulus-container"">
                    <img src=""images/causal_sequence/the_performance_causal/the_performance_causal_8.png"" class=""exp-image"">
                    <div class=""question-area""></div> 
                </div>","null","","","","","","","","","",""
"","","","","","html-button-response","104","353687","0.0-104.0","9482020C92D44BE095717E9EF690D5EB","019cf9d4-5b5e-71fe-9a0e-55385f727bbf","019cf9ba-391a-7c7b-96b9-3757895c469c","","460","
                <div class=""stimulus-container"">
                    <img src=""images/causal_sequence/the_performance_causal/the_performance_causal_8.png"" class=""exp-image"">
                    <div class=""question-area"">
                        <p style=""font-size: 20px; font-weight: bold; margin: 0;"">Is there a person in this image?</p>
                    </div>
                </div>","0","main_experiment_trial","8","the_performance_causal","causal_sequence","randomized","","","","",""
"","","","","","html-keyboard-response","105","354690","0.0-105.0","9482020C92D44BE095717E9EF690D5EB","019cf9d4-5b5e-71fe-9a0e-55385f727bbf","019cf9ba-391a-7c7b-96b9-3757895c469c","","null","
                <div class=""stimulus-container"">
                    <img src=""images/causal_sequence/the_performance_causal/the_performance_causal_6.png"" class=""exp-image"">
                    <div class=""question-area""></div> 
                </div>","null","","","","","","","","","",""
"","","","","","html-button-response","106","355432","0.0-106.0","9482020C92D44BE095717E9EF690D5EB","019cf9d4-5b5e-71fe-9a0e-55385f727bbf","019cf9ba-391a-7c7b-96b9-3757895c469c","","741","
                <div class=""stimulus-container"">
                    <img src=""images/causal_sequence/the_performance_causal/the_performance_causal_6.png"" class=""exp-image"">
                    <div class=""question-area"">
                        <p style=""font-size: 20px; font-weight: bold; margin: 0;"">Is there a person in this image?</p>
                    </div>
                </div>","0","main_experiment_trial","6","the_performance_causal","causal_sequence","randomized","","","","",""
"","","","","","html-keyboard-response","107","356439","0.0-107.0","9482020C92D44BE095717E9EF690D5EB","019cf9d4-5b5e-71fe-9a0e-55385f727bbf","019cf9ba-391a-7c7b-96b9-3757895c469c","","null","
                <div class=""stimulus-container"">
                    <img src=""images/causal_sequence/the_performance_causal/the_performance_causal_3.png"" class=""exp-image"">
                    <div class=""question-area""></div> 
                </div>","null","","","","","","","","","",""
"","","","","","html-button-response","108","357025","0.0-108.0","9482020C92D44BE095717E9EF690D5EB","019cf9d4-5b5e-71fe-9a0e-55385f727bbf","019cf9ba-391a-7c7b-96b9-3757895c469c","","585","
                <div class=""stimulus-container"">
                    <img src=""images/causal_sequence/the_performance_causal/the_performance_causal_3.png"" class=""exp-image"">
                    <div class=""question-area"">
                        <p style=""font-size: 20px; font-weight: bold; margin: 0;"">Is there a person in this image?</p>
                    </div>
                </div>","0","main_experiment_trial","3","the_performance_causal","causal_sequence","randomized","","","","",""
"","","","","","html-keyboard-response","109","358033","0.0-109.0","9482020C92D44BE095717E9EF690D5EB","019cf9d4-5b5e-71fe-9a0e-55385f727bbf","019cf9ba-391a-7c7b-96b9-3757895c469c","","null","
                <div class=""stimulus-container"">
                    <img src=""images/causal_sequence/the_performance_causal/the_performance_causal_2.png"" class=""exp-image"">
                    <div class=""question-area""></div> 
                </div>","null","","","","","","","","","",""
"","","","","","html-button-response","110","358808","0.0-110.0","9482020C92D44BE095717E9EF690D5EB","019cf9d4-5b5e-71fe-9a0e-55385f727bbf","019cf9ba-391a-7c7b-96b9-3757895c469c","","774","
                <div class=""stimulus-container"">
                    <img src=""images/causal_sequence/the_performance_causal/the_performance_causal_2.png"" class=""exp-image"">
                    <div class=""question-area"">
                        <p style=""font-size: 20px; font-weight: bold; margin: 0;"">Is there a person in this image?</p>
                    </div>
                </div>","0","main_experiment_trial","2","the_performance_causal","causal_sequence","randomized","","","","",""
"","","","","","html-keyboard-response","111","359814","0.0-111.0","9482020C92D44BE095717E9EF690D5EB","019cf9d4-5b5e-71fe-9a0e-55385f727bbf","019cf9ba-391a-7c7b-96b9-3757895c469c","","null","
                <div class=""stimulus-container"">
                    <img src=""images/causal_sequence/the_performance_causal/the_performance_causal_9.png"" class=""exp-image"">
                    <div class=""question-area""></div> 
                </div>","null","","","","","","","","","",""
"","","","","","html-button-response","112","361104","0.0-112.0","9482020C92D44BE095717E9EF690D5EB","019cf9d4-5b5e-71fe-9a0e-55385f727bbf","019cf9ba-391a-7c7b-96b9-3757895c469c","","1289","
                <div class=""stimulus-container"">
                    <img src=""images/causal_sequence/the_performance_causal/the_performance_causal_9.png"" class=""exp-image"">
                    <div class=""question-area"">
                        <p style=""font-size: 20px; font-weight: bold; margin: 0;"">Is there a person in this image?</p>
                    </div>
                </div>","0","main_experiment_trial","9","the_performance_causal","causal_sequence","randomized","","","","",""
"","","","","","html-keyboard-response","113","362109","0.0-113.0","9482020C92D44BE095717E9EF690D5EB","019cf9d4-5b5e-71fe-9a0e-55385f727bbf","019cf9ba-391a-7c7b-96b9-3757895c469c","","null","
                <div class=""stimulus-container"">
                    <img src=""images/causal_sequence/the_performance_causal/the_performance_causal_1.png"" class=""exp-image"">
                    <div class=""question-area""></div> 
                </div>","null","","","","","","","","","",""
"","","","","","html-button-response","114","362505","0.0-114.0","9482020C92D44BE095717E9EF690D5EB","019cf9d4-5b5e-71fe-9a0e-55385f727bbf","019cf9ba-391a-7c7b-96b9-3757895c469c","","395","
                <div class=""stimulus-container"">
                    <img src=""images/causal_sequence/the_performance_causal/the_performance_causal_1.png"" class=""exp-image"">
                    <div class=""question-area"">
                        <p style=""font-size: 20px; font-weight: bold; margin: 0;"">Is there a person in this image?</p>
                    </div>
                </div>","0","main_experiment_trial","1","the_performance_causal","causal_sequence","randomized","","","","",""
"","","","","","html-keyboard-response","115","363516","0.0-115.0","9482020C92D44BE095717E9EF690D5EB","019cf9d4-5b5e-71fe-9a0e-55385f727bbf","019cf9ba-391a-7c7b-96b9-3757895c469c","","null","
                <div class=""stimulus-container"">
                    <img src=""images/causal_sequence/the_performance_causal/the_performance_causal_4.png"" class=""exp-image"">
                    <div class=""question-area""></div> 
                </div>","null","","","","","","","","","",""
"","","","","","html-button-response","116","364617","0.0-116.0","9482020C92D44BE095717E9EF690D5EB","019cf9d4-5b5e-71fe-9a0e-55385f727bbf","019cf9ba-391a-7c7b-96b9-3757895c469c","","1101","
                <div class=""stimulus-container"">
                    <img src=""images/causal_sequence/the_performance_causal/the_performance_causal_4.png"" class=""exp-image"">
                    <div class=""question-area"">
                        <p style=""font-size: 20px; font-weight: bold; margin: 0;"">Is there a person in this image?</p>
                    </div>
                </div>","0","main_experiment_trial","4","the_performance_causal","causal_sequence","randomized","","","","",""
"","","","","","html-keyboard-response","117","365621","0.0-117.0","9482020C92D44BE095717E9EF690D5EB","019cf9d4-5b5e-71fe-9a0e-55385f727bbf","019cf9ba-391a-7c7b-96b9-3757895c469c","","null","
                <div class=""stimulus-container"">
                    <img src=""images/causal_sequence/the_performance_causal/the_performance_causal_5.png"" class=""exp-image"">
                    <div class=""question-area""></div> 
                </div>","null","","","","","","","","","",""
"","","","","","html-button-response","118","366725","0.0-118.0","9482020C92D44BE095717E9EF690D5EB","019cf9d4-5b5e-71fe-9a0e-55385f727bbf","019cf9ba-391a-7c7b-96b9-3757895c469c","","1103","
                <div class=""stimulus-container"">
                    <img src=""images/causal_sequence/the_performance_causal/the_performance_causal_5.png"" class=""exp-image"">
                    <div class=""question-area"">
                        <p style=""font-size: 20px; font-weight: bold; margin: 0;"">Is there a person in this image?</p>
                    </div>
                </div>","0","main_experiment_trial","5","the_performance_causal","causal_sequence","randomized","","","","",""
"","","","","","html-keyboard-response","119","367737","0.0-119.0","9482020C92D44BE095717E9EF690D5EB","019cf9d4-5b5e-71fe-9a0e-55385f727bbf","019cf9ba-391a-7c7b-96b9-3757895c469c","","null","
                <div class=""stimulus-container"">
                    <img src=""images/causal_sequence/the_performance_causal/the_performance_causal_ten.png"" class=""exp-image"">
                    <div class=""question-area""></div> 
                </div>","null","","","","","","","","","",""
"","","","","","html-button-response","120","368299","0.0-120.0","9482020C92D44BE095717E9EF690D5EB","019cf9d4-5b5e-71fe-9a0e-55385f727bbf","019cf9ba-391a-7c7b-96b9-3757895c469c","","561","
                <div class=""stimulus-container"">
                    <img src=""images/causal_sequence/the_performance_causal/the_performance_causal_ten.png"" class=""exp-image"">
                    <div class=""question-area"">
                        <p style=""font-size: 20px; font-weight: bold; margin: 0;"">Is there a person in this image?</p>
                    </div>
                </div>","0","main_experiment_trial","ten","the_performance_causal","causal_sequence","randomized","","","","",""
"","","","","","html-keyboard-response","121","373304","0.0-121.0","9482020C92D44BE095717E9EF690D5EB","019cf9d4-5b5e-71fe-9a0e-55385f727bbf","019cf9ba-391a-7c7b-96b9-3757895c469c","","null","<div style=""background-color: white; width: 100vw; height: 100vh;""></div>","null","","","","","","","","","",""
"","","","","","html-keyboard-response","122","374305","0.0-122.0","9482020C92D44BE095717E9EF690D5EB","019cf9d4-5b5e-71fe-9a0e-55385f727bbf","019cf9ba-391a-7c7b-96b9-3757895c469c","","null","
                <div class=""stimulus-container"">
                    <img src=""images/causal_sequence/museum_causal/museum_causal_8.png"" class=""exp-image"">
                    <div class=""question-area""></div> 
                </div>","null","","","","","","","","","",""
"","","","","","html-button-response","123","375400","0.0-123.0","9482020C92D44BE095717E9EF690D5EB","019cf9d4-5b5e-71fe-9a0e-55385f727bbf","019cf9ba-391a-7c7b-96b9-3757895c469c","","1094","
                <div class=""stimulus-container"">
                    <img src=""images/causal_sequence/museum_causal/museum_causal_8.png"" class=""exp-image"">
                    <div class=""question-area"">
                        <p style=""font-size: 20px; font-weight: bold; margin: 0;"">Is there a person in this image?</p>
                    </div>
                </div>","0","main_experiment_trial","8","museum_causal","causal_sequence","randomized","","","","",""
"","","","","","html-keyboard-response","124","376403","0.0-124.0","9482020C92D44BE095717E9EF690D5EB","019cf9d4-5b5e-71fe-9a0e-55385f727bbf","019cf9ba-391a-7c7b-96b9-3757895c469c","","null","
                <div class=""stimulus-container"">
                    <img src=""images/causal_sequence/museum_causal/museum_causal_5.png"" class=""exp-image"">
                    <div class=""question-area""></div> 
                </div>","null","","","","","","","","","",""
"","","","","","html-button-response","125","377256","0.0-125.0","9482020C92D44BE095717E9EF690D5EB","019cf9d4-5b5e-71fe-9a0e-55385f727bbf","019cf9ba-391a-7c7b-96b9-3757895c469c","","853","
                <div class=""stimulus-container"">
                    <img src=""images/causal_sequence/museum_causal/museum_causal_5.png"" class=""exp-image"">
                    <div class=""question-area"">
                        <p style=""font-size: 20px; font-weight: bold; margin: 0;"">Is there a person in this image?</p>
                    </div>
                </div>","0","main_experiment_trial","5","museum_causal","causal_sequence","randomized","","","","",""
"","","","","","html-keyboard-response","126","378272","0.0-126.0","9482020C92D44BE095717E9EF690D5EB","019cf9d4-5b5e-71fe-9a0e-55385f727bbf","019cf9ba-391a-7c7b-96b9-3757895c469c","","null","
                <div class=""stimulus-container"">
                    <img src=""images/causal_sequence/museum_causal/museum_causal_1.png"" class=""exp-image"">
                    <div class=""question-area""></div> 
                </div>","null","","","","","","","","","",""
"","","","","","html-button-response","127","378634","0.0-127.0","9482020C92D44BE095717E9EF690D5EB","019cf9d4-5b5e-71fe-9a0e-55385f727bbf","019cf9ba-391a-7c7b-96b9-3757895c469c","","360","
                <div class=""stimulus-container"">
                    <img src=""images/causal_sequence/museum_causal/museum_causal_1.png"" class=""exp-image"">
                    <div class=""question-area"">
                        <p style=""font-size: 20px; font-weight: bold; margin: 0;"">Is there a person in this image?</p>
                    </div>
                </div>","0","main_experiment_trial","1","museum_causal","causal_sequence","randomized","","","","",""
"","","","","","html-keyboard-response","128","379645","0.0-128.0","9482020C92D44BE095717E9EF690D5EB","019cf9d4-5b5e-71fe-9a0e-55385f727bbf","019cf9ba-391a-7c7b-96b9-3757895c469c","","null","
                <div class=""stimulus-container"">
                    <img src=""images/causal_sequence/museum_causal/museum_causal_3.png"" class=""exp-image"">
                    <div class=""question-area""></div> 
                </div>","null","","","","","","","","","",""
"","","","","","html-button-response","129","380826","0.0-129.0","9482020C92D44BE095717E9EF690D5EB","019cf9d4-5b5e-71fe-9a0e-55385f727bbf","019cf9ba-391a-7c7b-96b9-3757895c469c","","1180","
                <div class=""stimulus-container"">
                    <img src=""images/causal_sequence/museum_causal/museum_causal_3.png"" class=""exp-image"">
                    <div class=""question-area"">
                        <p style=""font-size: 20px; font-weight: bold; margin: 0;"">Is there a person in this image?</p>
                    </div>
                </div>","0","main_experiment_trial","3","museum_causal","causal_sequence","randomized","","","","",""
"","","","","","html-keyboard-response","130","381831","0.0-130.0","9482020C92D44BE095717E9EF690D5EB","019cf9d4-5b5e-71fe-9a0e-55385f727bbf","019cf9ba-391a-7c7b-96b9-3757895c469c","","null","
                <div class=""stimulus-container"">
                    <img src=""images/causal_sequence/museum_causal/museum_causal_2.png"" class=""exp-image"">
                    <div class=""question-area""></div> 
                </div>","null","","","","","","","","","",""
"","","","","","html-button-response","131","384844","0.0-131.0","9482020C92D44BE095717E9EF690D5EB","019cf9d4-5b5e-71fe-9a0e-55385f727bbf","019cf9ba-391a-7c7b-96b9-3757895c469c","","null","
                <div class=""stimulus-container"">
                    <img src=""images/causal_sequence/museum_causal/museum_causal_2.png"" class=""exp-image"">
                    <div class=""question-area"">
                        <p style=""font-size: 20px; font-weight: bold; margin: 0;"">Is there a person in this image?</p>
                    </div>
                </div>","null","main_experiment_trial","2","museum_causal","causal_sequence","randomized","","","","",""
"","","","","","html-keyboard-response","132","385845","0.0-132.0","9482020C92D44BE095717E9EF690D5EB","019cf9d4-5b5e-71fe-9a0e-55385f727bbf","019cf9ba-391a-7c7b-96b9-3757895c469c","","null","
                <div class=""stimulus-container"">
                    <img src=""images/causal_sequence/museum_causal/museum_causal_7.png"" class=""exp-image"">
                    <div class=""question-area""></div> 
                </div>","null","","","","","","","","","",""
"","","","","","html-button-response","133","386460","0.0-133.0","9482020C92D44BE095717E9EF690D5EB","019cf9d4-5b5e-71fe-9a0e-55385f727bbf","019cf9ba-391a-7c7b-96b9-3757895c469c","","613","
                <div class=""stimulus-container"">
                    <img src=""images/causal_sequence/museum_causal/museum_causal_7.png"" class=""exp-image"">
                    <div class=""question-area"">
                        <p style=""font-size: 20px; font-weight: bold; margin: 0;"">Is there a person in this image?</p>
                    </div>
                </div>","1","main_experiment_trial","7","museum_causal","causal_sequence","randomized","","","","",""
"","","","","","html-keyboard-response","134","387470","0.0-134.0","9482020C92D44BE095717E9EF690D5EB","019cf9d4-5b5e-71fe-9a0e-55385f727bbf","019cf9ba-391a-7c7b-96b9-3757895c469c","","null","
                <div class=""stimulus-container"">
                    <img src=""images/causal_sequence/museum_causal/museum_causal_9.png"" class=""exp-image"">
                    <div class=""question-area""></div> 
                </div>","null","","","","","","","","","",""
"","","","","","html-button-response","135","387902","0.0-135.0","9482020C92D44BE095717E9EF690D5EB","019cf9d4-5b5e-71fe-9a0e-55385f727bbf","019cf9ba-391a-7c7b-96b9-3757895c469c","","431","
                <div class=""stimulus-container"">
                    <img src=""images/causal_sequence/museum_causal/museum_causal_9.png"" class=""exp-image"">
                    <div class=""question-area"">
                        <p style=""font-size: 20px; font-weight: bold; margin: 0;"">Is there a person in this image?</p>
                    </div>
                </div>","1","main_experiment_trial","9","museum_causal","causal_sequence","randomized","","","","",""
"","","","","","html-keyboard-response","136","388906","0.0-136.0","9482020C92D44BE095717E9EF690D5EB","019cf9d4-5b5e-71fe-9a0e-55385f727bbf","019cf9ba-391a-7c7b-96b9-3757895c469c","","null","
                <div class=""stimulus-container"">
                    <img src=""images/causal_sequence/museum_causal/museum_causal_ten.png"" class=""exp-image"">
                    <div class=""question-area""></div> 
                </div>","null","","","","","","","","","",""
"","","","","","html-button-response","137","389632","0.0-137.0","9482020C92D44BE095717E9EF690D5EB","019cf9d4-5b5e-71fe-9a0e-55385f727bbf","019cf9ba-391a-7c7b-96b9-3757895c469c","","725","
                <div class=""stimulus-container"">
                    <img src=""images/causal_sequence/museum_causal/museum_causal_ten.png"" class=""exp-image"">
                    <div class=""question-area"">
                        <p style=""font-size: 20px; font-weight: bold; margin: 0;"">Is there a person in this image?</p>
                    </div>
                </div>","0","main_experiment_trial","ten","museum_causal","causal_sequence","randomized","","","","",""
"","","","","","html-keyboard-response","138","390646","0.0-138.0","9482020C92D44BE095717E9EF690D5EB","019cf9d4-5b5e-71fe-9a0e-55385f727bbf","019cf9ba-391a-7c7b-96b9-3757895c469c","","null","
                <div class=""stimulus-container"">
                    <img src=""images/causal_sequence/museum_causal/museum_causal_4.png"" class=""exp-image"">
                    <div class=""question-area""></div> 
                </div>","null","","","","","","","","","",""
"","","","","","html-button-response","139","391513","0.0-139.0","9482020C92D44BE095717E9EF690D5EB","019cf9d4-5b5e-71fe-9a0e-55385f727bbf","019cf9ba-391a-7c7b-96b9-3757895c469c","","865","
                <div class=""stimulus-container"">
                    <img src=""images/causal_sequence/museum_causal/museum_causal_4.png"" class=""exp-image"">
                    <div class=""question-area"">
                        <p style=""font-size: 20px; font-weight: bold; margin: 0;"">Is there a person in this image?</p>
                    </div>
                </div>","1","main_experiment_trial","4","museum_causal","causal_sequence","randomized","","","","",""
"","","","","","html-keyboard-response","140","392521","0.0-140.0","9482020C92D44BE095717E9EF690D5EB","019cf9d4-5b5e-71fe-9a0e-55385f727bbf","019cf9ba-391a-7c7b-96b9-3757895c469c","","null","
                <div class=""stimulus-container"">
                    <img src=""images/causal_sequence/museum_causal/museum_causal_6.png"" class=""exp-image"">
                    <div class=""question-area""></div> 
                </div>","null","","","","","","","","","",""
"","","","","","html-button-response","141","393605","0.0-141.0","9482020C92D44BE095717E9EF690D5EB","019cf9d4-5b5e-71fe-9a0e-55385f727bbf","019cf9ba-391a-7c7b-96b9-3757895c469c","","1083","
                <div class=""stimulus-container"">
                    <img src=""images/causal_sequence/museum_causal/museum_causal_6.png"" class=""exp-image"">
                    <div class=""question-area"">
                        <p style=""font-size: 20px; font-weight: bold; margin: 0;"">Is there a person in this image?</p>
                    </div>
                </div>","0","main_experiment_trial","6","museum_causal","causal_sequence","randomized","","","","",""
"","","","","","html-keyboard-response","142","398606","0.0-142.0","9482020C92D44BE095717E9EF690D5EB","019cf9d4-5b5e-71fe-9a0e-55385f727bbf","019cf9ba-391a-7c7b-96b9-3757895c469c","","null","<div style=""background-color: white; width: 100vw; height: 100vh;""></div>","null","","","","","","","","","",""
"","","","","","html-keyboard-response","143","399607","0.0-143.0","9482020C92D44BE095717E9EF690D5EB","019cf9d4-5b5e-71fe-9a0e-55385f727bbf","019cf9ba-391a-7c7b-96b9-3757895c469c","","null","
                <div class=""stimulus-container"">
                    <img src=""images/semantic_sequence/physical_activity_semantic/physical_activity_semantic_4.png"" class=""exp-image"">
                    <div class=""question-area""></div> 
                </div>","null","","","","","","","","","",""
"","","","","","html-button-response","144","401102","0.0-144.0","9482020C92D44BE095717E9EF690D5EB","019cf9d4-5b5e-71fe-9a0e-55385f727bbf","019cf9ba-391a-7c7b-96b9-3757895c469c","","1495","
                <div class=""stimulus-container"">
                    <img src=""images/semantic_sequence/physical_activity_semantic/physical_activity_semantic_4.png"" class=""exp-image"">
                    <div class=""question-area"">
                        <p style=""font-size: 20px; font-weight: bold; margin: 0;"">Is there a person in this image?</p>
                    </div>
                </div>","0","main_experiment_trial","4","physical_activity_semantic","semantic_sequence","randomized","","","","",""
"","","","","","html-keyboard-response","145","402114","0.0-145.0","9482020C92D44BE095717E9EF690D5EB","019cf9d4-5b5e-71fe-9a0e-55385f727bbf","019cf9ba-391a-7c7b-96b9-3757895c469c","","null","
                <div class=""stimulus-container"">
                    <img src=""images/semantic_sequence/physical_activity_semantic/physical_activity_semantic_6.png"" class=""exp-image"">
                    <div class=""question-area""></div> 
                </div>","null","","","","","","","","","",""
"","","","","","html-button-response","146","402733","0.0-146.0","9482020C92D44BE095717E9EF690D5EB","019cf9d4-5b5e-71fe-9a0e-55385f727bbf","019cf9ba-391a-7c7b-96b9-3757895c469c","","618","
                <div class=""stimulus-container"">
                    <img src=""images/semantic_sequence/physical_activity_semantic/physical_activity_semantic_6.png"" class=""exp-image"">
                    <div class=""question-area"">
                        <p style=""font-size: 20px; font-weight: bold; margin: 0;"">Is there a person in this image?</p>
                    </div>
                </div>","0","main_experiment_trial","6","physical_activity_semantic","semantic_sequence","randomized","","","","",""
"","","","","","html-keyboard-response","147","403742","0.0-147.0","9482020C92D44BE095717E9EF690D5EB","019cf9d4-5b5e-71fe-9a0e-55385f727bbf","019cf9ba-391a-7c7b-96b9-3757895c469c","","null","
                <div class=""stimulus-container"">
                    <img src=""images/semantic_sequence/physical_activity_semantic/physical_activity_semantic_9.png"" class=""exp-image"">
                    <div class=""question-area""></div> 
                </div>","null","","","","","","","","","",""
"","","","","","html-button-response","148","404571","0.0-148.0","9482020C92D44BE095717E9EF690D5EB","019cf9d4-5b5e-71fe-9a0e-55385f727bbf","019cf9ba-391a-7c7b-96b9-3757895c469c","","827","
                <div class=""stimulus-container"">
                    <img src=""images/semantic_sequence/physical_activity_semantic/physical_activity_semantic_9.png"" class=""exp-image"">
                    <div class=""question-area"">
                        <p style=""font-size: 20px; font-weight: bold; margin: 0;"">Is there a person in this image?</p>
                    </div>
                </div>","0","main_experiment_trial","9","physical_activity_semantic","semantic_sequence","randomized","","","","",""
"","","","","","html-keyboard-response","149","405576","0.0-149.0","9482020C92D44BE095717E9EF690D5EB","019cf9d4-5b5e-71fe-9a0e-55385f727bbf","019cf9ba-391a-7c7b-96b9-3757895c469c","","null","
                <div class=""stimulus-container"">
                    <img src=""images/semantic_sequence/physical_activity_semantic/physical_activity_semantic_ten.png"" class=""exp-image"">
                    <div class=""question-area""></div> 
                </div>","null","","","","","","","","","",""
"","","","","","html-button-response","150","406279","0.0-150.0","9482020C92D44BE095717E9EF690D5EB","019cf9d4-5b5e-71fe-9a0e-55385f727bbf","019cf9ba-391a-7c7b-96b9-3757895c469c","","702","
                <div class=""stimulus-container"">
                    <img src=""images/semantic_sequence/physical_activity_semantic/physical_activity_semantic_ten.png"" class=""exp-image"">
                    <div class=""question-area"">
                        <p style=""font-size: 20px; font-weight: bold; margin: 0;"">Is there a person in this image?</p>
                    </div>
                </div>","0","main_experiment_trial","ten","physical_activity_semantic","semantic_sequence","randomized","","","","",""
"","","","","","html-keyboard-response","151","407291","0.0-151.0","9482020C92D44BE095717E9EF690D5EB","019cf9d4-5b5e-71fe-9a0e-55385f727bbf","019cf9ba-391a-7c7b-96b9-3757895c469c","","null","
                <div class=""stimulus-container"">
                    <img src=""images/semantic_sequence/physical_activity_semantic/physical_activity_semantic_2.png"" class=""exp-image"">
                    <div class=""question-area""></div> 
                </div>","null","","","","","","","","","",""
"","","","","","html-button-response","152","408639","0.0-152.0","9482020C92D44BE095717E9EF690D5EB","019cf9d4-5b5e-71fe-9a0e-55385f727bbf","019cf9ba-391a-7c7b-96b9-3757895c469c","","1345","
                <div class=""stimulus-container"">
                    <img src=""images/semantic_sequence/physical_activity_semantic/physical_activity_semantic_2.png"" class=""exp-image"">
                    <div class=""question-area"">
                        <p style=""font-size: 20px; font-weight: bold; margin: 0;"">Is there a person in this image?</p>
                    </div>
                </div>","0","main_experiment_trial","2","physical_activity_semantic","semantic_sequence","randomized","","","","",""
"","","","","","html-keyboard-response","153","409649","0.0-153.0","9482020C92D44BE095717E9EF690D5EB","019cf9d4-5b5e-71fe-9a0e-55385f727bbf","019cf9ba-391a-7c7b-96b9-3757895c469c","","null","
                <div class=""stimulus-container"">
                    <img src=""images/semantic_sequence/physical_activity_semantic/physical_activity_semantic_7.png"" class=""exp-image"">
                    <div class=""question-area""></div> 
                </div>","null","","","","","","","","","",""
"","","","","","html-button-response","154","410134","0.0-154.0","9482020C92D44BE095717E9EF690D5EB","019cf9d4-5b5e-71fe-9a0e-55385f727bbf","019cf9ba-391a-7c7b-96b9-3757895c469c","","483","
                <div class=""stimulus-container"">
                    <img src=""images/semantic_sequence/physical_activity_semantic/physical_activity_semantic_7.png"" class=""exp-image"">
                    <div class=""question-area"">
                        <p style=""font-size: 20px; font-weight: bold; margin: 0;"">Is there a person in this image?</p>
                    </div>
                </div>","0","main_experiment_trial","7","physical_activity_semantic","semantic_sequence","randomized","","","","",""
"","","","","","html-keyboard-response","155","411150","0.0-155.0","9482020C92D44BE095717E9EF690D5EB","019cf9d4-5b5e-71fe-9a0e-55385f727bbf","019cf9ba-391a-7c7b-96b9-3757895c469c","","null","
                <div class=""stimulus-container"">
                    <img src=""images/semantic_sequence/physical_activity_semantic/physical_activity_semantic_3.png"" class=""exp-image"">
                    <div class=""question-area""></div> 
                </div>","null","","","","","","","","","",""
"","","","","","html-button-response","156","411723","0.0-156.0","9482020C92D44BE095717E9EF690D5EB","019cf9d4-5b5e-71fe-9a0e-55385f727bbf","019cf9ba-391a-7c7b-96b9-3757895c469c","","573","
                <div class=""stimulus-container"">
                    <img src=""images/semantic_sequence/physical_activity_semantic/physical_activity_semantic_3.png"" class=""exp-image"">
                    <div class=""question-area"">
                        <p style=""font-size: 20px; font-weight: bold; margin: 0;"">Is there a person in this image?</p>
                    </div>
                </div>","0","main_experiment_trial","3","physical_activity_semantic","semantic_sequence","randomized","","","","",""
"","","","","","html-keyboard-response","157","412729","0.0-157.0","9482020C92D44BE095717E9EF690D5EB","019cf9d4-5b5e-71fe-9a0e-55385f727bbf","019cf9ba-391a-7c7b-96b9-3757895c469c","","null","
                <div class=""stimulus-container"">
                    <img src=""images/semantic_sequence/physical_activity_semantic/physical_activity_semantic_1.png"" class=""exp-image"">
                    <div class=""question-area""></div> 
                </div>","null","","","","","","","","","",""
"","","","","","html-button-response","158","413248","0.0-158.0","9482020C92D44BE095717E9EF690D5EB","019cf9d4-5b5e-71fe-9a0e-55385f727bbf","019cf9ba-391a-7c7b-96b9-3757895c469c","","518","
                <div class=""stimulus-container"">
                    <img src=""images/semantic_sequence/physical_activity_semantic/physical_activity_semantic_1.png"" class=""exp-image"">
                    <div class=""question-area"">
                        <p style=""font-size: 20px; font-weight: bold; margin: 0;"">Is there a person in this image?</p>
                    </div>
                </div>","0","main_experiment_trial","1","physical_activity_semantic","semantic_sequence","randomized","","","","",""
"","","","","","html-keyboard-response","159","414258","0.0-159.0","9482020C92D44BE095717E9EF690D5EB","019cf9d4-5b5e-71fe-9a0e-55385f727bbf","019cf9ba-391a-7c7b-96b9-3757895c469c","","null","
                <div class=""stimulus-container"">
                    <img src=""images/semantic_sequence/physical_activity_semantic/physical_activity_semantic_5.png"" class=""exp-image"">
                    <div class=""question-area""></div> 
                </div>","null","","","","","","","","","",""
"","","","","","html-button-response","160","414845","0.0-160.0","9482020C92D44BE095717E9EF690D5EB","019cf9d4-5b5e-71fe-9a0e-55385f727bbf","019cf9ba-391a-7c7b-96b9-3757895c469c","","586","
                <div class=""stimulus-container"">
                    <img src=""images/semantic_sequence/physical_activity_semantic/physical_activity_semantic_5.png"" class=""exp-image"">
                    <div class=""question-area"">
                        <p style=""font-size: 20px; font-weight: bold; margin: 0;"">Is there a person in this image?</p>
                    </div>
                </div>","0","main_experiment_trial","5","physical_activity_semantic","semantic_sequence","randomized","","","","",""
"","","","","","html-keyboard-response","161","415852","0.0-161.0","9482020C92D44BE095717E9EF690D5EB","019cf9d4-5b5e-71fe-9a0e-55385f727bbf","019cf9ba-391a-7c7b-96b9-3757895c469c","","null","
                <div class=""stimulus-container"">
                    <img src=""images/semantic_sequence/physical_activity_semantic/physical_activity_semantic_8.png"" class=""exp-image"">
                    <div class=""question-area""></div> 
                </div>","null","","","","","","","","","",""
"","","","","","html-button-response","162","416146","0.0-162.0","9482020C92D44BE095717E9EF690D5EB","019cf9d4-5b5e-71fe-9a0e-55385f727bbf","019cf9ba-391a-7c7b-96b9-3757895c469c","","293","
                <div class=""stimulus-container"">
                    <img src=""images/semantic_sequence/physical_activity_semantic/physical_activity_semantic_8.png"" class=""exp-image"">
                    <div class=""question-area"">
                        <p style=""font-size: 20px; font-weight: bold; margin: 0;"">Is there a person in this image?</p>
                    </div>
                </div>","0","main_experiment_trial","8","physical_activity_semantic","semantic_sequence","randomized","","","","",""
"","","","","","html-keyboard-response","163","421151","0.0-163.0","9482020C92D44BE095717E9EF690D5EB","019cf9d4-5b5e-71fe-9a0e-55385f727bbf","019cf9ba-391a-7c7b-96b9-3757895c469c","","null","<div style=""background-color: white; width: 100vw; height: 100vh;""></div>","null","","","","","","","","","",""
"","","","","","html-keyboard-response","164","422154","0.0-164.0","9482020C92D44BE095717E9EF690D5EB","019cf9d4-5b5e-71fe-9a0e-55385f727bbf","019cf9ba-391a-7c7b-96b9-3757895c469c","","null","
                <div class=""stimulus-container"">
                    <img src=""images/semantic_sequence/cat_care_semantic/cat_care_semantic_3.png"" class=""exp-image"">
                    <div class=""question-area""></div> 
                </div>","null","","","","","","","","","",""
"","","","","","html-button-response","165","424319","0.0-165.0","9482020C92D44BE095717E9EF690D5EB","019cf9d4-5b5e-71fe-9a0e-55385f727bbf","019cf9ba-391a-7c7b-96b9-3757895c469c","","2165","
                <div class=""stimulus-container"">
                    <img src=""images/semantic_sequence/cat_care_semantic/cat_care_semantic_3.png"" class=""exp-image"">
                    <div class=""question-area"">
                        <p style=""font-size: 20px; font-weight: bold; margin: 0;"">Is there a person in this image?</p>
                    </div>
                </div>","1","main_experiment_trial","3","cat_care_semantic","semantic_sequence","randomized","","","","",""
"","","","","","html-keyboard-response","166","425332","0.0-166.0","9482020C92D44BE095717E9EF690D5EB","019cf9d4-5b5e-71fe-9a0e-55385f727bbf","019cf9ba-391a-7c7b-96b9-3757895c469c","","null","
                <div class=""stimulus-container"">
                    <img src=""images/semantic_sequence/cat_care_semantic/cat_care_semantic_9.png"" class=""exp-image"">
                    <div class=""question-area""></div> 
                </div>","null","","","","","","","","","",""
"","","","","","html-button-response","167","426755","0.0-167.0","9482020C92D44BE095717E9EF690D5EB","019cf9d4-5b5e-71fe-9a0e-55385f727bbf","019cf9ba-391a-7c7b-96b9-3757895c469c","","1421","
                <div class=""stimulus-container"">
                    <img src=""images/semantic_sequence/cat_care_semantic/cat_care_semantic_9.png"" class=""exp-image"">
                    <div class=""question-area"">
                        <p style=""font-size: 20px; font-weight: bold; margin: 0;"">Is there a person in this image?</p>
                    </div>
                </div>","0","main_experiment_trial","9","cat_care_semantic","semantic_sequence","randomized","","","","",""
"","","","","","html-keyboard-response","168","427761","0.0-168.0","9482020C92D44BE095717E9EF690D5EB","019cf9d4-5b5e-71fe-9a0e-55385f727bbf","019cf9ba-391a-7c7b-96b9-3757895c469c","","null","
                <div class=""stimulus-container"">
                    <img src=""images/semantic_sequence/cat_care_semantic/cat_care_semantic_2.png"" class=""exp-image"">
                    <div class=""question-area""></div> 
                </div>","null","","","","","","","","","",""
"","","","","","html-button-response","169","428707","0.0-169.0","9482020C92D44BE095717E9EF690D5EB","019cf9d4-5b5e-71fe-9a0e-55385f727bbf","019cf9ba-391a-7c7b-96b9-3757895c469c","","945","
                <div class=""stimulus-container"">
                    <img src=""images/semantic_sequence/cat_care_semantic/cat_care_semantic_2.png"" class=""exp-image"">
                    <div class=""question-area"">
                        <p style=""font-size: 20px; font-weight: bold; margin: 0;"">Is there a person in this image?</p>
                    </div>
                </div>","0","main_experiment_trial","2","cat_care_semantic","semantic_sequence","randomized","","","","",""
"","","","","","html-keyboard-response","170","429712","0.0-170.0","9482020C92D44BE095717E9EF690D5EB","019cf9d4-5b5e-71fe-9a0e-55385f727bbf","019cf9ba-391a-7c7b-96b9-3757895c469c","","null","
                <div class=""stimulus-container"">
                    <img src=""images/semantic_sequence/cat_care_semantic/cat_care_semantic_7.png"" class=""exp-image"">
                    <div class=""question-area""></div> 
                </div>","null","","","","","","","","","",""
"","","","","","html-button-response","171","430325","0.0-171.0","9482020C92D44BE095717E9EF690D5EB","019cf9d4-5b5e-71fe-9a0e-55385f727bbf","019cf9ba-391a-7c7b-96b9-3757895c469c","","612","
                <div class=""stimulus-container"">
                    <img src=""images/semantic_sequence/cat_care_semantic/cat_care_semantic_7.png"" class=""exp-image"">
                    <div class=""question-area"">
                        <p style=""font-size: 20px; font-weight: bold; margin: 0;"">Is there a person in this image?</p>
                    </div>
                </div>","0","main_experiment_trial","7","cat_care_semantic","semantic_sequence","randomized","","","","",""
"","","","","","html-keyboard-response","172","431334","0.0-172.0","9482020C92D44BE095717E9EF690D5EB","019cf9d4-5b5e-71fe-9a0e-55385f727bbf","019cf9ba-391a-7c7b-96b9-3757895c469c","","null","
                <div class=""stimulus-container"">
                    <img src=""images/semantic_sequence/cat_care_semantic/cat_care_semantic_5.png"" class=""exp-image"">
                    <div class=""question-area""></div> 
                </div>","null","","","","","","","","","",""
"","","","","","html-button-response","173","432346","0.0-173.0","9482020C92D44BE095717E9EF690D5EB","019cf9d4-5b5e-71fe-9a0e-55385f727bbf","019cf9ba-391a-7c7b-96b9-3757895c469c","","1010","
                <div class=""stimulus-container"">
                    <img src=""images/semantic_sequence/cat_care_semantic/cat_care_semantic_5.png"" class=""exp-image"">
                    <div class=""question-area"">
                        <p style=""font-size: 20px; font-weight: bold; margin: 0;"">Is there a person in this image?</p>
                    </div>
                </div>","0","main_experiment_trial","5","cat_care_semantic","semantic_sequence","randomized","","","","",""
"","","","","","html-keyboard-response","174","433361","0.0-174.0","9482020C92D44BE095717E9EF690D5EB","019cf9d4-5b5e-71fe-9a0e-55385f727bbf","019cf9ba-391a-7c7b-96b9-3757895c469c","","null","
                <div class=""stimulus-container"">
                    <img src=""images/semantic_sequence/cat_care_semantic/cat_care_semantic_1.png"" class=""exp-image"">
                    <div class=""question-area""></div> 
                </div>","null","","","","","","","","","",""
"","","","","","html-button-response","175","435083","0.0-175.0","9482020C92D44BE095717E9EF690D5EB","019cf9d4-5b5e-71fe-9a0e-55385f727bbf","019cf9ba-391a-7c7b-96b9-3757895c469c","","1721","
                <div class=""stimulus-container"">
                    <img src=""images/semantic_sequence/cat_care_semantic/cat_care_semantic_1.png"" class=""exp-image"">
                    <div class=""question-area"">
                        <p style=""font-size: 20px; font-weight: bold; margin: 0;"">Is there a person in this image?</p>
                    </div>
                </div>","0","main_experiment_trial","1","cat_care_semantic","semantic_sequence","randomized","","","","",""
"","","","","","html-keyboard-response","176","436095","0.0-176.0","9482020C92D44BE095717E9EF690D5EB","019cf9d4-5b5e-71fe-9a0e-55385f727bbf","019cf9ba-391a-7c7b-96b9-3757895c469c","","null","
                <div class=""stimulus-container"">
                    <img src=""images/semantic_sequence/cat_care_semantic/cat_care_semantic_4.png"" class=""exp-image"">
                    <div class=""question-area""></div> 
                </div>","null","","","","","","","","","",""
"","","","","","html-button-response","177","438065","0.0-177.0","9482020C92D44BE095717E9EF690D5EB","019cf9d4-5b5e-71fe-9a0e-55385f727bbf","019cf9ba-391a-7c7b-96b9-3757895c469c","","1969","
                <div class=""stimulus-container"">
                    <img src=""images/semantic_sequence/cat_care_semantic/cat_care_semantic_4.png"" class=""exp-image"">
                    <div class=""question-area"">
                        <p style=""font-size: 20px; font-weight: bold; margin: 0;"">Is there a person in this image?</p>
                    </div>
                </div>","0","main_experiment_trial","4","cat_care_semantic","semantic_sequence","randomized","","","","",""
"","","","","","html-keyboard-response","178","439075","0.0-178.0","9482020C92D44BE095717E9EF690D5EB","019cf9d4-5b5e-71fe-9a0e-55385f727bbf","019cf9ba-391a-7c7b-96b9-3757895c469c","","null","
                <div class=""stimulus-container"">
                    <img src=""images/semantic_sequence/cat_care_semantic/cat_care_semantic_6.png"" class=""exp-image"">
                    <div class=""question-area""></div> 
                </div>","null","","","","","","","","","",""
"","","","","","html-button-response","179","440738","0.0-179.0","9482020C92D44BE095717E9EF690D5EB","019cf9d4-5b5e-71fe-9a0e-55385f727bbf","019cf9ba-391a-7c7b-96b9-3757895c469c","","1662","
                <div class=""stimulus-container"">
                    <img src=""images/semantic_sequence/cat_care_semantic/cat_care_semantic_6.png"" class=""exp-image"">
                    <div class=""question-area"">
                        <p style=""font-size: 20px; font-weight: bold; margin: 0;"">Is there a person in this image?</p>
                    </div>
