"success","timeout","failed_images","failed_audio","failed_video","trial_type","trial_index","time_elapsed","internal_node_id","subject_id","study_id","session_id","view_history","rt","stimulus","response","task","image_index","folder","sequence_type","valuable_image_index","reward_type","chosen_image_index","target_X","correct_choice"
"true","false","[]","[]","[]","preload","0","22500","0.0-0.0","56D42B25AD0D451492236546DCB8F694","019cf860-f3f2-7e1e-b7fc-44bf0ab87970","019cf855-66fc-7d76-a612-8313d2c5c123","","","","","","","","","","","","",""
"","","","","","instructions","1","28522","0.0-1.0","56D42B25AD0D451492236546DCB8F694","019cf860-f3f2-7e1e-b7fc-44bf0ab87970","019cf855-66fc-7d76-a612-8313d2c5c123","[{""page_index"":0,""viewing_time"":6022}]","6022","","","","","","","","","","",""
"","","","","","instructions","2","63861","0.0-2.0","56D42B25AD0D451492236546DCB8F694","019cf860-f3f2-7e1e-b7fc-44bf0ab87970","019cf855-66fc-7d76-a612-8313d2c5c123","[{""page_index"":0,""viewing_time"":35338}]","35338","","","","","","","","","","",""
"true","","","","","fullscreen","3","66178","0.0-3.0","56D42B25AD0D451492236546DCB8F694","019cf860-f3f2-7e1e-b7fc-44bf0ab87970","019cf855-66fc-7d76-a612-8313d2c5c123","","1315","","","","","","","","","","",""
"","","","","","instructions","4","73041","0.0-4.0","56D42B25AD0D451492236546DCB8F694","019cf860-f3f2-7e1e-b7fc-44bf0ab87970","019cf855-66fc-7d76-a612-8313d2c5c123","[{""page_index"":0,""viewing_time"":6863}]","6863","","","","","","","","","","",""
"","","","","","instructions","5","84054","0.0-5.0","56D42B25AD0D451492236546DCB8F694","019cf860-f3f2-7e1e-b7fc-44bf0ab87970","019cf855-66fc-7d76-a612-8313d2c5c123","[{""page_index"":0,""viewing_time"":11012}]","11012","","","","","","","","","","",""
"","","","","","html-keyboard-response","6","88059","0.0-6.0","56D42B25AD0D451492236546DCB8F694","019cf860-f3f2-7e1e-b7fc-44bf0ab87970","019cf855-66fc-7d76-a612-8313d2c5c123","","null","
                <div class=""stimulus-container"">
                    <img src=""images/instructions/movie_1.png"" class=""exp-image"">
                    <div class=""question-area""></div> 
                </div>","null","","","","","","","","",""
"","","","","","html-button-response","7","89041","0.0-7.0","56D42B25AD0D451492236546DCB8F694","019cf860-f3f2-7e1e-b7fc-44bf0ab87970","019cf855-66fc-7d76-a612-8313d2c5c123","","981","
                <div class=""stimulus-container"">
                    <img src=""images/instructions/movie_1.png"" class=""exp-image"">
                    <div class=""question-area"">
                        <p style=""font-size: 20px; font-weight: bold; margin: 0;"">Was there a person in this image?</p>
                    </div>
                </div>","0","example_question","1","","","","","","",""
"","","","","","html-keyboard-response","8","93059","0.0-8.0","56D42B25AD0D451492236546DCB8F694","019cf860-f3f2-7e1e-b7fc-44bf0ab87970","019cf855-66fc-7d76-a612-8313d2c5c123","","null","
                <div class=""stimulus-container"">
                    <img src=""images/instructions/movie_2.png"" class=""exp-image"">
                    <div class=""question-area""></div> 
                </div>","null","","","","","","","","",""
"","","","","","html-button-response","9","96066","0.0-9.0","56D42B25AD0D451492236546DCB8F694","019cf860-f3f2-7e1e-b7fc-44bf0ab87970","019cf855-66fc-7d76-a612-8313d2c5c123","","null","
                <div class=""stimulus-container"">
                    <img src=""images/instructions/movie_2.png"" class=""exp-image"">
                    <div class=""question-area"">
                        <p style=""font-size: 20px; font-weight: bold; margin: 0;"">Was there a person in this image?</p>
                    </div>
                </div>","null","example_question","2","","","","","","",""
"","","","","","html-keyboard-response","10","100079","0.0-10.0","56D42B25AD0D451492236546DCB8F694","019cf860-f3f2-7e1e-b7fc-44bf0ab87970","019cf855-66fc-7d76-a612-8313d2c5c123","","null","
                <div class=""stimulus-container"">
                    <img src=""images/instructions/movie_3.png"" class=""exp-image"">
                    <div class=""question-area""></div> 
                </div>","null","","","","","","","","",""
"","","","","","html-button-response","11","100894","0.0-11.0","56D42B25AD0D451492236546DCB8F694","019cf860-f3f2-7e1e-b7fc-44bf0ab87970","019cf855-66fc-7d76-a612-8313d2c5c123","","815","
                <div class=""stimulus-container"">
                    <img src=""images/instructions/movie_3.png"" class=""exp-image"">
                    <div class=""question-area"">
                        <p style=""font-size: 20px; font-weight: bold; margin: 0;"">Was there a person in this image?</p>
                    </div>
                </div>","0","example_question","3","","","","","","",""
"","","","","","html-keyboard-response","12","104901","0.0-12.0","56D42B25AD0D451492236546DCB8F694","019cf860-f3f2-7e1e-b7fc-44bf0ab87970","019cf855-66fc-7d76-a612-8313d2c5c123","","null","
                <div class=""stimulus-container"">
                    <img src=""images/instructions/movie_4.png"" class=""exp-image"">
                    <div class=""question-area""></div> 
                </div>","null","","","","","","","","",""
"","","","","","html-button-response","13","105502","0.0-13.0","56D42B25AD0D451492236546DCB8F694","019cf860-f3f2-7e1e-b7fc-44bf0ab87970","019cf855-66fc-7d76-a612-8313d2c5c123","","600","
                <div class=""stimulus-container"">
                    <img src=""images/instructions/movie_4.png"" class=""exp-image"">
                    <div class=""question-area"">
                        <p style=""font-size: 20px; font-weight: bold; margin: 0;"">Was there a person in this image?</p>
                    </div>
                </div>","0","example_question","4","","","","","","",""
"","","","","","instructions","14","108914","0.0-14.0","56D42B25AD0D451492236546DCB8F694","019cf860-f3f2-7e1e-b7fc-44bf0ab87970","019cf855-66fc-7d76-a612-8313d2c5c123","[{""page_index"":0,""viewing_time"":3412}]","3412","","","","","","","","","","",""
"","","","","","instructions","15","115698","0.0-15.0","56D42B25AD0D451492236546DCB8F694","019cf860-f3f2-7e1e-b7fc-44bf0ab87970","019cf855-66fc-7d76-a612-8313d2c5c123","[{""page_index"":0,""viewing_time"":6783}]","6783","","","","","","","","","","",""
"","","","","","html-keyboard-response","16","116719","0.0-16.0","56D42B25AD0D451492236546DCB8F694","019cf860-f3f2-7e1e-b7fc-44bf0ab87970","019cf855-66fc-7d76-a612-8313d2c5c123","","null","<div style=""background-color: white; width: 100vw; height: 100vh;""></div>","null","","","","","","","","",""
"","","","","","html-keyboard-response","17","121738","0.0-17.0","56D42B25AD0D451492236546DCB8F694","019cf860-f3f2-7e1e-b7fc-44bf0ab87970","019cf855-66fc-7d76-a612-8313d2c5c123","","null","
                <div class=""stimulus-container"">
                    <img src=""images/semantic_sequence/self_care_activities_semantic/self_care_activities_semantic_1.png"" class=""exp-image"">
                    <div class=""question-area""></div> 
                </div>","null","","","","","","","","",""
"","","","","","html-button-response","18","122774","0.0-18.0","56D42B25AD0D451492236546DCB8F694","019cf860-f3f2-7e1e-b7fc-44bf0ab87970","019cf855-66fc-7d76-a612-8313d2c5c123","","1034","
                <div class=""stimulus-container"">
                    <img src=""images/semantic_sequence/self_care_activities_semantic/self_care_activities_semantic_1.png"" class=""exp-image"">
                    <div class=""question-area"">
                        <p style=""font-size: 20px; font-weight: bold; margin: 0;"">Is there a person in this image?</p>
                    </div>
                </div>","0","main_experiment_trial","1","self_care_activities_semantic","semantic_sequence","","","","",""
"","","","","","html-keyboard-response","19","127779","0.0-19.0","56D42B25AD0D451492236546DCB8F694","019cf860-f3f2-7e1e-b7fc-44bf0ab87970","019cf855-66fc-7d76-a612-8313d2c5c123","","null","
                <div class=""stimulus-container"">
                    <img src=""images/semantic_sequence/self_care_activities_semantic/self_care_activities_semantic_2.png"" class=""exp-image"">
                    <div class=""question-area""></div> 
                </div>","null","","","","","","","","",""
"","","","","","html-button-response","20","128331","0.0-20.0","56D42B25AD0D451492236546DCB8F694","019cf860-f3f2-7e1e-b7fc-44bf0ab87970","019cf855-66fc-7d76-a612-8313d2c5c123","","552","
                <div class=""stimulus-container"">
                    <img src=""images/semantic_sequence/self_care_activities_semantic/self_care_activities_semantic_2.png"" class=""exp-image"">
                    <div class=""question-area"">
                        <p style=""font-size: 20px; font-weight: bold; margin: 0;"">Is there a person in this image?</p>
                    </div>
                </div>","0","main_experiment_trial","2","self_care_activities_semantic","semantic_sequence","","","","",""
"","","","","","html-keyboard-response","21","133349","0.0-21.0","56D42B25AD0D451492236546DCB8F694","019cf860-f3f2-7e1e-b7fc-44bf0ab87970","019cf855-66fc-7d76-a612-8313d2c5c123","","null","
                <div class=""stimulus-container"">
                    <img src=""images/semantic_sequence/self_care_activities_semantic/self_care_activities_semantic_3.png"" class=""exp-image"">
                    <div class=""question-area""></div> 
                </div>","null","","","","","","","","",""
"","","","","","html-button-response","22","134117","0.0-22.0","56D42B25AD0D451492236546DCB8F694","019cf860-f3f2-7e1e-b7fc-44bf0ab87970","019cf855-66fc-7d76-a612-8313d2c5c123","","768","
                <div class=""stimulus-container"">
                    <img src=""images/semantic_sequence/self_care_activities_semantic/self_care_activities_semantic_3.png"" class=""exp-image"">
                    <div class=""question-area"">
                        <p style=""font-size: 20px; font-weight: bold; margin: 0;"">Is there a person in this image?</p>
                    </div>
                </div>","0","main_experiment_trial","3","self_care_activities_semantic","semantic_sequence","","","","",""
"","","","","","html-keyboard-response","23","139129","0.0-23.0","56D42B25AD0D451492236546DCB8F694","019cf860-f3f2-7e1e-b7fc-44bf0ab87970","019cf855-66fc-7d76-a612-8313d2c5c123","","null","
                <div class=""stimulus-container"">
                    <img src=""images/semantic_sequence/self_care_activities_semantic/self_care_activities_semantic_4.png"" class=""exp-image"">
                    <div class=""question-area""></div> 
                </div>","null","","","","","","","","",""
"","","","","","html-button-response","24","142133","0.0-24.0","56D42B25AD0D451492236546DCB8F694","019cf860-f3f2-7e1e-b7fc-44bf0ab87970","019cf855-66fc-7d76-a612-8313d2c5c123","","null","
                <div class=""stimulus-container"">
                    <img src=""images/semantic_sequence/self_care_activities_semantic/self_care_activities_semantic_4.png"" class=""exp-image"">
                    <div class=""question-area"">
                        <p style=""font-size: 20px; font-weight: bold; margin: 0;"">Is there a person in this image?</p>
                    </div>
                </div>","null","main_experiment_trial","4","self_care_activities_semantic","semantic_sequence","","","","",""
"","","","","","html-keyboard-response","25","147139","0.0-25.0","56D42B25AD0D451492236546DCB8F694","019cf860-f3f2-7e1e-b7fc-44bf0ab87970","019cf855-66fc-7d76-a612-8313d2c5c123","","null","
                <div class=""stimulus-container"">
                    <img src=""images/semantic_sequence/self_care_activities_semantic/self_care_activities_semantic_5.png"" class=""exp-image"">
                    <div class=""question-area""></div> 
                </div>","null","","","","","","","","",""
"","","","","","html-button-response","26","147893","0.0-26.0","56D42B25AD0D451492236546DCB8F694","019cf860-f3f2-7e1e-b7fc-44bf0ab87970","019cf855-66fc-7d76-a612-8313d2c5c123","","754","
                <div class=""stimulus-container"">
                    <img src=""images/semantic_sequence/self_care_activities_semantic/self_care_activities_semantic_5.png"" class=""exp-image"">
                    <div class=""question-area"">
                        <p style=""font-size: 20px; font-weight: bold; margin: 0;"">Is there a person in this image?</p>
                    </div>
                </div>","0","main_experiment_trial","5","self_care_activities_semantic","semantic_sequence","","","","",""
"","","","","","html-keyboard-response","27","152909","0.0-27.0","56D42B25AD0D451492236546DCB8F694","019cf860-f3f2-7e1e-b7fc-44bf0ab87970","019cf855-66fc-7d76-a612-8313d2c5c123","","null","
                <div class=""stimulus-container"">
                    <img src=""images/semantic_sequence/self_care_activities_semantic/self_care_activities_semantic_6.png"" class=""exp-image"">
                    <div class=""question-area""></div> 
                </div>","null","","","","","","","","",""
"","","","","","html-button-response","28","153654","0.0-28.0","56D42B25AD0D451492236546DCB8F694","019cf860-f3f2-7e1e-b7fc-44bf0ab87970","019cf855-66fc-7d76-a612-8313d2c5c123","","744","
                <div class=""stimulus-container"">
                    <img src=""images/semantic_sequence/self_care_activities_semantic/self_care_activities_semantic_6.png"" class=""exp-image"">
                    <div class=""question-area"">
                        <p style=""font-size: 20px; font-weight: bold; margin: 0;"">Is there a person in this image?</p>
                    </div>
                </div>","1","main_experiment_trial","6","self_care_activities_semantic","semantic_sequence","","","","",""
"","","","","","html-keyboard-response","29","158655","0.0-29.0","56D42B25AD0D451492236546DCB8F694","019cf860-f3f2-7e1e-b7fc-44bf0ab87970","019cf855-66fc-7d76-a612-8313d2c5c123","","null","
                <div class=""stimulus-container"">
                    <img src=""images/semantic_sequence/self_care_activities_semantic/self_care_activities_semantic_7.png"" class=""exp-image"">
                    <div class=""question-area""></div> 
                </div>","null","","","","","","","","",""
"","","","","","html-button-response","30","159242","0.0-30.0","56D42B25AD0D451492236546DCB8F694","019cf860-f3f2-7e1e-b7fc-44bf0ab87970","019cf855-66fc-7d76-a612-8313d2c5c123","","586","
                <div class=""stimulus-container"">
                    <img src=""images/semantic_sequence/self_care_activities_semantic/self_care_activities_semantic_7.png"" class=""exp-image"">
                    <div class=""question-area"">
                        <p style=""font-size: 20px; font-weight: bold; margin: 0;"">Is there a person in this image?</p>
                    </div>
                </div>","0","main_experiment_trial","7","self_care_activities_semantic","semantic_sequence","","","","",""
"","","","","","html-keyboard-response","31","164249","0.0-31.0","56D42B25AD0D451492236546DCB8F694","019cf860-f3f2-7e1e-b7fc-44bf0ab87970","019cf855-66fc-7d76-a612-8313d2c5c123","","null","
                <div class=""stimulus-container"">
                    <img src=""images/semantic_sequence/self_care_activities_semantic/self_care_activities_semantic_8.png"" class=""exp-image"">
                    <div class=""question-area""></div> 
                </div>","null","","","","","","","","",""
"","","","","","html-button-response","32","164715","0.0-32.0","56D42B25AD0D451492236546DCB8F694","019cf860-f3f2-7e1e-b7fc-44bf0ab87970","019cf855-66fc-7d76-a612-8313d2c5c123","","465","
                <div class=""stimulus-container"">
                    <img src=""images/semantic_sequence/self_care_activities_semantic/self_care_activities_semantic_8.png"" class=""exp-image"">
                    <div class=""question-area"">
                        <p style=""font-size: 20px; font-weight: bold; margin: 0;"">Is there a person in this image?</p>
                    </div>
                </div>","0","main_experiment_trial","8","self_care_activities_semantic","semantic_sequence","","","","",""
"","","","","","html-keyboard-response","33","169718","0.0-33.0","56D42B25AD0D451492236546DCB8F694","019cf860-f3f2-7e1e-b7fc-44bf0ab87970","019cf855-66fc-7d76-a612-8313d2c5c123","","null","
                <div class=""stimulus-container"">
                    <img src=""images/semantic_sequence/self_care_activities_semantic/self_care_activities_semantic_9.png"" class=""exp-image"">
                    <div class=""question-area""></div> 
                </div>","null","","","","","","","","",""
"","","","","","html-button-response","34","170278","0.0-34.0","56D42B25AD0D451492236546DCB8F694","019cf860-f3f2-7e1e-b7fc-44bf0ab87970","019cf855-66fc-7d76-a612-8313d2c5c123","","560","
                <div class=""stimulus-container"">
                    <img src=""images/semantic_sequence/self_care_activities_semantic/self_care_activities_semantic_9.png"" class=""exp-image"">
                    <div class=""question-area"">
                        <p style=""font-size: 20px; font-weight: bold; margin: 0;"">Is there a person in this image?</p>
                    </div>
                </div>","0","main_experiment_trial","9","self_care_activities_semantic","semantic_sequence","","","","",""
"","","","","","html-keyboard-response","35","175283","0.0-35.0","56D42B25AD0D451492236546DCB8F694","019cf860-f3f2-7e1e-b7fc-44bf0ab87970","019cf855-66fc-7d76-a612-8313d2c5c123","","null","
                <div class=""stimulus-container"">
                    <img src=""images/semantic_sequence/self_care_activities_semantic/self_care_activities_semantic_ten.png"" class=""exp-image"">
                    <div class=""question-area""></div> 
                </div>","null","","","","","","","","",""
"","","","","","html-button-response","36","176076","0.0-36.0","56D42B25AD0D451492236546DCB8F694","019cf860-f3f2-7e1e-b7fc-44bf0ab87970","019cf855-66fc-7d76-a612-8313d2c5c123","","793","
                <div class=""stimulus-container"">
                    <img src=""images/semantic_sequence/self_care_activities_semantic/self_care_activities_semantic_ten.png"" class=""exp-image"">
                    <div class=""question-area"">
                        <p style=""font-size: 20px; font-weight: bold; margin: 0;"">Is there a person in this image?</p>
                    </div>
                </div>","0","main_experiment_trial","ten","self_care_activities_semantic","semantic_sequence","","","","",""
"","","","","","html-keyboard-response","37","177079","0.0-37.0","56D42B25AD0D451492236546DCB8F694","019cf860-f3f2-7e1e-b7fc-44bf0ab87970","019cf855-66fc-7d76-a612-8313d2c5c123","","null","<div style=""background-color: white; width: 100vw; height: 100vh;""></div>","null","","","","","","","","",""
"","","","","","html-keyboard-response","38","182089","0.0-38.0","56D42B25AD0D451492236546DCB8F694","019cf860-f3f2-7e1e-b7fc-44bf0ab87970","019cf855-66fc-7d76-a612-8313d2c5c123","","null","
                <div class=""stimulus-container"">
                    <img src=""images/schematic_sequence/dinner_party_scheme/dinner_party_scheme_1.png"" class=""exp-image"">
                    <div class=""question-area""></div> 
                </div>","null","","","","","","","","",""
"","","","","","html-button-response","39","182486","0.0-39.0","56D42B25AD0D451492236546DCB8F694","019cf860-f3f2-7e1e-b7fc-44bf0ab87970","019cf855-66fc-7d76-a612-8313d2c5c123","","397","
                <div class=""stimulus-container"">
                    <img src=""images/schematic_sequence/dinner_party_scheme/dinner_party_scheme_1.png"" class=""exp-image"">
                    <div class=""question-area"">
                        <p style=""font-size: 20px; font-weight: bold; margin: 0;"">Is there a person in this image?</p>
                    </div>
                </div>","0","main_experiment_trial","1","dinner_party_scheme","schematic_sequence","","","","",""
"","","","","","html-keyboard-response","40","187499","0.0-40.0","56D42B25AD0D451492236546DCB8F694","019cf860-f3f2-7e1e-b7fc-44bf0ab87970","019cf855-66fc-7d76-a612-8313d2c5c123","","null","
                <div class=""stimulus-container"">
                    <img src=""images/schematic_sequence/dinner_party_scheme/dinner_party_scheme_2.png"" class=""exp-image"">
                    <div class=""question-area""></div> 
                </div>","null","","","","","","","","",""
"","","","","","html-button-response","41","187881","0.0-41.0","56D42B25AD0D451492236546DCB8F694","019cf860-f3f2-7e1e-b7fc-44bf0ab87970","019cf855-66fc-7d76-a612-8313d2c5c123","","382","
                <div class=""stimulus-container"">
                    <img src=""images/schematic_sequence/dinner_party_scheme/dinner_party_scheme_2.png"" class=""exp-image"">
                    <div class=""question-area"">
                        <p style=""font-size: 20px; font-weight: bold; margin: 0;"">Is there a person in this image?</p>
                    </div>
                </div>","0","main_experiment_trial","2","dinner_party_scheme","schematic_sequence","","","","",""
"","","","","","html-keyboard-response","42","192899","0.0-42.0","56D42B25AD0D451492236546DCB8F694","019cf860-f3f2-7e1e-b7fc-44bf0ab87970","019cf855-66fc-7d76-a612-8313d2c5c123","","null","
                <div class=""stimulus-container"">
                    <img src=""images/schematic_sequence/dinner_party_scheme/dinner_party_scheme_3.png"" class=""exp-image"">
                    <div class=""question-area""></div> 
                </div>","null","","","","","","","","",""
"","","","","","html-button-response","43","193379","0.0-43.0","56D42B25AD0D451492236546DCB8F694","019cf860-f3f2-7e1e-b7fc-44bf0ab87970","019cf855-66fc-7d76-a612-8313d2c5c123","","479","
                <div class=""stimulus-container"">
                    <img src=""images/schematic_sequence/dinner_party_scheme/dinner_party_scheme_3.png"" class=""exp-image"">
                    <div class=""question-area"">
                        <p style=""font-size: 20px; font-weight: bold; margin: 0;"">Is there a person in this image?</p>
                    </div>
                </div>","0","main_experiment_trial","3","dinner_party_scheme","schematic_sequence","","","","",""
"","","","","","html-keyboard-response","44","198399","0.0-44.0","56D42B25AD0D451492236546DCB8F694","019cf860-f3f2-7e1e-b7fc-44bf0ab87970","019cf855-66fc-7d76-a612-8313d2c5c123","","null","
                <div class=""stimulus-container"">
                    <img src=""images/schematic_sequence/dinner_party_scheme/dinner_party_scheme_4.png"" class=""exp-image"">
                    <div class=""question-area""></div> 
                </div>","null","","","","","","","","",""
"","","","","","html-button-response","45","198960","0.0-45.0","56D42B25AD0D451492236546DCB8F694","019cf860-f3f2-7e1e-b7fc-44bf0ab87970","019cf855-66fc-7d76-a612-8313d2c5c123","","560","
                <div class=""stimulus-container"">
                    <img src=""images/schematic_sequence/dinner_party_scheme/dinner_party_scheme_4.png"" class=""exp-image"">
                    <div class=""question-area"">
                        <p style=""font-size: 20px; font-weight: bold; margin: 0;"">Is there a person in this image?</p>
                    </div>
                </div>","0","main_experiment_trial","4","dinner_party_scheme","schematic_sequence","","","","",""
"","","","","","html-keyboard-response","46","203969","0.0-46.0","56D42B25AD0D451492236546DCB8F694","019cf860-f3f2-7e1e-b7fc-44bf0ab87970","019cf855-66fc-7d76-a612-8313d2c5c123","","null","
                <div class=""stimulus-container"">
                    <img src=""images/schematic_sequence/dinner_party_scheme/dinner_party_scheme_5.png"" class=""exp-image"">
                    <div class=""question-area""></div> 
                </div>","null","","","","","","","","",""
"","","","","","html-button-response","47","204409","0.0-47.0","56D42B25AD0D451492236546DCB8F694","019cf860-f3f2-7e1e-b7fc-44bf0ab87970","019cf855-66fc-7d76-a612-8313d2c5c123","","440","
                <div class=""stimulus-container"">
                    <img src=""images/schematic_sequence/dinner_party_scheme/dinner_party_scheme_5.png"" class=""exp-image"">
                    <div class=""question-area"">
                        <p style=""font-size: 20px; font-weight: bold; margin: 0;"">Is there a person in this image?</p>
                    </div>
                </div>","0","main_experiment_trial","5","dinner_party_scheme","schematic_sequence","","","","",""
"","","","","","html-keyboard-response","48","209424","0.0-48.0","56D42B25AD0D451492236546DCB8F694","019cf860-f3f2-7e1e-b7fc-44bf0ab87970","019cf855-66fc-7d76-a612-8313d2c5c123","","null","
                <div class=""stimulus-container"">
                    <img src=""images/schematic_sequence/dinner_party_scheme/dinner_party_scheme_6.png"" class=""exp-image"">
                    <div class=""question-area""></div> 
                </div>","null","","","","","","","","",""
"","","","","","html-button-response","49","209949","0.0-49.0","56D42B25AD0D451492236546DCB8F694","019cf860-f3f2-7e1e-b7fc-44bf0ab87970","019cf855-66fc-7d76-a612-8313d2c5c123","","525","
                <div class=""stimulus-container"">
                    <img src=""images/schematic_sequence/dinner_party_scheme/dinner_party_scheme_6.png"" class=""exp-image"">
                    <div class=""question-area"">
                        <p style=""font-size: 20px; font-weight: bold; margin: 0;"">Is there a person in this image?</p>
                    </div>
                </div>","0","main_experiment_trial","6","dinner_party_scheme","schematic_sequence","","","","",""
"","","","","","html-keyboard-response","50","214954","0.0-50.0","56D42B25AD0D451492236546DCB8F694","019cf860-f3f2-7e1e-b7fc-44bf0ab87970","019cf855-66fc-7d76-a612-8313d2c5c123","","null","
                <div class=""stimulus-container"">
                    <img src=""images/schematic_sequence/dinner_party_scheme/dinner_party_scheme_7.png"" class=""exp-image"">
                    <div class=""question-area""></div> 
                </div>","null","","","","","","","","",""
"","","","","","html-button-response","51","215446","0.0-51.0","56D42B25AD0D451492236546DCB8F694","019cf860-f3f2-7e1e-b7fc-44bf0ab87970","019cf855-66fc-7d76-a612-8313d2c5c123","","492","
                <div class=""stimulus-container"">
                    <img src=""images/schematic_sequence/dinner_party_scheme/dinner_party_scheme_7.png"" class=""exp-image"">
                    <div class=""question-area"">
                        <p style=""font-size: 20px; font-weight: bold; margin: 0;"">Is there a person in this image?</p>
                    </div>
                </div>","0","main_experiment_trial","7","dinner_party_scheme","schematic_sequence","","","","",""
"","","","","","html-keyboard-response","52","220449","0.0-52.0","56D42B25AD0D451492236546DCB8F694","019cf860-f3f2-7e1e-b7fc-44bf0ab87970","019cf855-66fc-7d76-a612-8313d2c5c123","","null","
                <div class=""stimulus-container"">
                    <img src=""images/schematic_sequence/dinner_party_scheme/dinner_party_scheme_8.png"" class=""exp-image"">
                    <div class=""question-area""></div> 
                </div>","null","","","","","","","","",""
"","","","","","html-button-response","53","221298","0.0-53.0","56D42B25AD0D451492236546DCB8F694","019cf860-f3f2-7e1e-b7fc-44bf0ab87970","019cf855-66fc-7d76-a612-8313d2c5c123","","849","
                <div class=""stimulus-container"">
                    <img src=""images/schematic_sequence/dinner_party_scheme/dinner_party_scheme_8.png"" class=""exp-image"">
                    <div class=""question-area"">
                        <p style=""font-size: 20px; font-weight: bold; margin: 0;"">Is there a person in this image?</p>
                    </div>
                </div>","0","main_experiment_trial","8","dinner_party_scheme","schematic_sequence","","","","",""
"","","","","","html-keyboard-response","54","226319","0.0-54.0","56D42B25AD0D451492236546DCB8F694","019cf860-f3f2-7e1e-b7fc-44bf0ab87970","019cf855-66fc-7d76-a612-8313d2c5c123","","null","
                <div class=""stimulus-container"">
                    <img src=""images/schematic_sequence/dinner_party_scheme/dinner_party_scheme_9.png"" class=""exp-image"">
                    <div class=""question-area""></div> 
                </div>","null","","","","","","","","",""
"","","","","","html-button-response","55","227420","0.0-55.0","56D42B25AD0D451492236546DCB8F694","019cf860-f3f2-7e1e-b7fc-44bf0ab87970","019cf855-66fc-7d76-a612-8313d2c5c123","","1100","
                <div class=""stimulus-container"">
                    <img src=""images/schematic_sequence/dinner_party_scheme/dinner_party_scheme_9.png"" class=""exp-image"">
                    <div class=""question-area"">
                        <p style=""font-size: 20px; font-weight: bold; margin: 0;"">Is there a person in this image?</p>
                    </div>
                </div>","0","main_experiment_trial","9","dinner_party_scheme","schematic_sequence","","","","",""
"","","","","","html-keyboard-response","56","232439","0.0-56.0","56D42B25AD0D451492236546DCB8F694","019cf860-f3f2-7e1e-b7fc-44bf0ab87970","019cf855-66fc-7d76-a612-8313d2c5c123","","null","
                <div class=""stimulus-container"">
                    <img src=""images/schematic_sequence/dinner_party_scheme/dinner_party_scheme_ten.png"" class=""exp-image"">
                    <div class=""question-area""></div> 
                </div>","null","","","","","","","","",""
"","","","","","html-button-response","57","233601","0.0-57.0","56D42B25AD0D451492236546DCB8F694","019cf860-f3f2-7e1e-b7fc-44bf0ab87970","019cf855-66fc-7d76-a612-8313d2c5c123","","1161","
                <div class=""stimulus-container"">
                    <img src=""images/schematic_sequence/dinner_party_scheme/dinner_party_scheme_ten.png"" class=""exp-image"">
                    <div class=""question-area"">
                        <p style=""font-size: 20px; font-weight: bold; margin: 0;"">Is there a person in this image?</p>
                    </div>
                </div>","0","main_experiment_trial","ten","dinner_party_scheme","schematic_sequence","","","","",""
"","","","","","html-keyboard-response","58","234609","0.0-58.0","56D42B25AD0D451492236546DCB8F694","019cf860-f3f2-7e1e-b7fc-44bf0ab87970","019cf855-66fc-7d76-a612-8313d2c5c123","","null","<div style=""background-color: white; width: 100vw; height: 100vh;""></div>","null","","","","","","","","",""
"","","","","","html-keyboard-response","59","239629","0.0-59.0","56D42B25AD0D451492236546DCB8F694","019cf860-f3f2-7e1e-b7fc-44bf0ab87970","019cf855-66fc-7d76-a612-8313d2c5c123","","null","
                <div class=""stimulus-container"">
                    <img src=""images/semantic_sequence/housework_semantic/housework_semantic_1.png"" class=""exp-image"">
                    <div class=""question-area""></div> 
                </div>","null","","","","","","","","",""
"","","","","","html-button-response","60","240811","0.0-60.0","56D42B25AD0D451492236546DCB8F694","019cf860-f3f2-7e1e-b7fc-44bf0ab87970","019cf855-66fc-7d76-a612-8313d2c5c123","","1182","
                <div class=""stimulus-container"">
                    <img src=""images/semantic_sequence/housework_semantic/housework_semantic_1.png"" class=""exp-image"">
                    <div class=""question-area"">
                        <p style=""font-size: 20px; font-weight: bold; margin: 0;"">Is there a person in this image?</p>
                    </div>
                </div>","0","main_experiment_trial","1","housework_semantic","semantic_sequence","","","","",""
"","","","","","html-keyboard-response","61","245829","0.0-61.0","56D42B25AD0D451492236546DCB8F694","019cf860-f3f2-7e1e-b7fc-44bf0ab87970","019cf855-66fc-7d76-a612-8313d2c5c123","","null","
                <div class=""stimulus-container"">
                    <img src=""images/semantic_sequence/housework_semantic/housework_semantic_2.png"" class=""exp-image"">
                    <div class=""question-area""></div> 
                </div>","null","","","","","","","","",""
"","","","","","html-button-response","62","246554","0.0-62.0","56D42B25AD0D451492236546DCB8F694","019cf860-f3f2-7e1e-b7fc-44bf0ab87970","019cf855-66fc-7d76-a612-8313d2c5c123","","725","
                <div class=""stimulus-container"">
                    <img src=""images/semantic_sequence/housework_semantic/housework_semantic_2.png"" class=""exp-image"">
                    <div class=""question-area"">
                        <p style=""font-size: 20px; font-weight: bold; margin: 0;"">Is there a person in this image?</p>
                    </div>
                </div>","0","main_experiment_trial","2","housework_semantic","semantic_sequence","","","","",""
"","","","","","html-keyboard-response","63","251566","0.0-63.0","56D42B25AD0D451492236546DCB8F694","019cf860-f3f2-7e1e-b7fc-44bf0ab87970","019cf855-66fc-7d76-a612-8313d2c5c123","","null","
                <div class=""stimulus-container"">
                    <img src=""images/semantic_sequence/housework_semantic/housework_semantic_3.png"" class=""exp-image"">
                    <div class=""question-area""></div> 
                </div>","null","","","","","","","","",""
"","","","","","html-button-response","64","252244","0.0-64.0","56D42B25AD0D451492236546DCB8F694","019cf860-f3f2-7e1e-b7fc-44bf0ab87970","019cf855-66fc-7d76-a612-8313d2c5c123","","677","
                <div class=""stimulus-container"">
                    <img src=""images/semantic_sequence/housework_semantic/housework_semantic_3.png"" class=""exp-image"">
                    <div class=""question-area"">
                        <p style=""font-size: 20px; font-weight: bold; margin: 0;"">Is there a person in this image?</p>
                    </div>
                </div>","0","main_experiment_trial","3","housework_semantic","semantic_sequence","","","","",""
"","","","","","html-keyboard-response","65","257258","0.0-65.0","56D42B25AD0D451492236546DCB8F694","019cf860-f3f2-7e1e-b7fc-44bf0ab87970","019cf855-66fc-7d76-a612-8313d2c5c123","","null","
                <div class=""stimulus-container"">
                    <img src=""images/semantic_sequence/housework_semantic/housework_semantic_4.png"" class=""exp-image"">
                    <div class=""question-area""></div> 
                </div>","null","","","","","","","","",""
"","","","","","html-button-response","66","257734","0.0-66.0","56D42B25AD0D451492236546DCB8F694","019cf860-f3f2-7e1e-b7fc-44bf0ab87970","019cf855-66fc-7d76-a612-8313d2c5c123","","475","
                <div class=""stimulus-container"">
                    <img src=""images/semantic_sequence/housework_semantic/housework_semantic_4.png"" class=""exp-image"">
                    <div class=""question-area"">
                        <p style=""font-size: 20px; font-weight: bold; margin: 0;"">Is there a person in this image?</p>
                    </div>
                </div>","0","main_experiment_trial","4","housework_semantic","semantic_sequence","","","","",""
"","","","","","html-keyboard-response","67","262735","0.0-67.0","56D42B25AD0D451492236546DCB8F694","019cf860-f3f2-7e1e-b7fc-44bf0ab87970","019cf855-66fc-7d76-a612-8313d2c5c123","","null","
                <div class=""stimulus-container"">
                    <img src=""images/semantic_sequence/housework_semantic/housework_semantic_5.png"" class=""exp-image"">
                    <div class=""question-area""></div> 
                </div>","null","","","","","","","","",""
"","","","","","html-button-response","68","263647","0.0-68.0","56D42B25AD0D451492236546DCB8F694","019cf860-f3f2-7e1e-b7fc-44bf0ab87970","019cf855-66fc-7d76-a612-8313d2c5c123","","912","
                <div class=""stimulus-container"">
                    <img src=""images/semantic_sequence/housework_semantic/housework_semantic_5.png"" class=""exp-image"">
                    <div class=""question-area"">
                        <p style=""font-size: 20px; font-weight: bold; margin: 0;"">Is there a person in this image?</p>
                    </div>
                </div>","0","main_experiment_trial","5","housework_semantic","semantic_sequence","","","","",""
"","","","","","html-keyboard-response","69","268659","0.0-69.0","56D42B25AD0D451492236546DCB8F694","019cf860-f3f2-7e1e-b7fc-44bf0ab87970","019cf855-66fc-7d76-a612-8313d2c5c123","","null","
                <div class=""stimulus-container"">
                    <img src=""images/semantic_sequence/housework_semantic/housework_semantic_6.png"" class=""exp-image"">
                    <div class=""question-area""></div> 
                </div>","null","","","","","","","","",""
"","","","","","html-button-response","70","269522","0.0-70.0","56D42B25AD0D451492236546DCB8F694","019cf860-f3f2-7e1e-b7fc-44bf0ab87970","019cf855-66fc-7d76-a612-8313d2c5c123","","863","
                <div class=""stimulus-container"">
                    <img src=""images/semantic_sequence/housework_semantic/housework_semantic_6.png"" class=""exp-image"">
                    <div class=""question-area"">
                        <p style=""font-size: 20px; font-weight: bold; margin: 0;"">Is there a person in this image?</p>
                    </div>
                </div>","0","main_experiment_trial","6","housework_semantic","semantic_sequence","","","","",""
"","","","","","html-keyboard-response","71","274539","0.0-71.0","56D42B25AD0D451492236546DCB8F694","019cf860-f3f2-7e1e-b7fc-44bf0ab87970","019cf855-66fc-7d76-a612-8313d2c5c123","","null","
                <div class=""stimulus-container"">
                    <img src=""images/semantic_sequence/housework_semantic/housework_semantic_7.png"" class=""exp-image"">
                    <div class=""question-area""></div> 
                </div>","null","","","","","","","","",""
"","","","","","html-button-response","72","275402","0.0-72.0","56D42B25AD0D451492236546DCB8F694","019cf860-f3f2-7e1e-b7fc-44bf0ab87970","019cf855-66fc-7d76-a612-8313d2c5c123","","863","
                <div class=""stimulus-container"">
                    <img src=""images/semantic_sequence/housework_semantic/housework_semantic_7.png"" class=""exp-image"">
                    <div class=""question-area"">
                        <p style=""font-size: 20px; font-weight: bold; margin: 0;"">Is there a person in this image?</p>
                    </div>
                </div>","0","main_experiment_trial","7","housework_semantic","semantic_sequence","","","","",""
"","","","","","html-keyboard-response","73","280419","0.0-73.0","56D42B25AD0D451492236546DCB8F694","019cf860-f3f2-7e1e-b7fc-44bf0ab87970","019cf855-66fc-7d76-a612-8313d2c5c123","","null","
                <div class=""stimulus-container"">
                    <img src=""images/semantic_sequence/housework_semantic/housework_semantic_8.png"" class=""exp-image"">
                    <div class=""question-area""></div> 
                </div>","null","","","","","","","","",""
"","","","","","html-button-response","74","281495","0.0-74.0","56D42B25AD0D451492236546DCB8F694","019cf860-f3f2-7e1e-b7fc-44bf0ab87970","019cf855-66fc-7d76-a612-8313d2c5c123","","1075","
                <div class=""stimulus-container"">
                    <img src=""images/semantic_sequence/housework_semantic/housework_semantic_8.png"" class=""exp-image"">
                    <div class=""question-area"">
                        <p style=""font-size: 20px; font-weight: bold; margin: 0;"">Is there a person in this image?</p>
                    </div>
                </div>","0","main_experiment_trial","8","housework_semantic","semantic_sequence","","","","",""
"","","","","","html-keyboard-response","75","286509","0.0-75.0","56D42B25AD0D451492236546DCB8F694","019cf860-f3f2-7e1e-b7fc-44bf0ab87970","019cf855-66fc-7d76-a612-8313d2c5c123","","null","
                <div class=""stimulus-container"">
                    <img src=""images/semantic_sequence/housework_semantic/housework_semantic_9.png"" class=""exp-image"">
                    <div class=""question-area""></div> 
                </div>","null","","","","","","","","",""
"","","","","","html-button-response","76","287917","0.0-76.0","56D42B25AD0D451492236546DCB8F694","019cf860-f3f2-7e1e-b7fc-44bf0ab87970","019cf855-66fc-7d76-a612-8313d2c5c123","","1407","
                <div class=""stimulus-container"">
                    <img src=""images/semantic_sequence/housework_semantic/housework_semantic_9.png"" class=""exp-image"">
                    <div class=""question-area"">
                        <p style=""font-size: 20px; font-weight: bold; margin: 0;"">Is there a person in this image?</p>
                    </div>
                </div>","0","main_experiment_trial","9","housework_semantic","semantic_sequence","","","","",""
"","","","","","html-keyboard-response","77","292929","0.0-77.0","56D42B25AD0D451492236546DCB8F694","019cf860-f3f2-7e1e-b7fc-44bf0ab87970","019cf855-66fc-7d76-a612-8313d2c5c123","","null","
                <div class=""stimulus-container"">
                    <img src=""images/semantic_sequence/housework_semantic/housework_semantic_ten.png"" class=""exp-image"">
                    <div class=""question-area""></div> 
                </div>","null","","","","","","","","",""
"","","","","","html-button-response","78","293552","0.0-78.0","56D42B25AD0D451492236546DCB8F694","019cf860-f3f2-7e1e-b7fc-44bf0ab87970","019cf855-66fc-7d76-a612-8313d2c5c123","","622","
                <div class=""stimulus-container"">
                    <img src=""images/semantic_sequence/housework_semantic/housework_semantic_ten.png"" class=""exp-image"">
                    <div class=""question-area"">
                        <p style=""font-size: 20px; font-weight: bold; margin: 0;"">Is there a person in this image?</p>
                    </div>
                </div>","0","main_experiment_trial","ten","housework_semantic","semantic_sequence","","","","",""
"","","","","","html-keyboard-response","79","294569","0.0-79.0","56D42B25AD0D451492236546DCB8F694","019cf860-f3f2-7e1e-b7fc-44bf0ab87970","019cf855-66fc-7d76-a612-8313d2c5c123","","null","<div style=""background-color: white; width: 100vw; height: 100vh;""></div>","null","","","","","","","","",""
"","","","","","html-keyboard-response","80","299579","0.0-80.0","56D42B25AD0D451492236546DCB8F694","019cf860-f3f2-7e1e-b7fc-44bf0ab87970","019cf855-66fc-7d76-a612-8313d2c5c123","","null","
                <div class=""stimulus-container"">
                    <img src=""images/semantic_sequence/redecorating_a_house_semantic/redecorating_a_house_semantic_1.png"" class=""exp-image"">
                    <div class=""question-area""></div> 
                </div>","null","","","","","","","","",""
"","","","","","html-button-response","81","300425","0.0-81.0","56D42B25AD0D451492236546DCB8F694","019cf860-f3f2-7e1e-b7fc-44bf0ab87970","019cf855-66fc-7d76-a612-8313d2c5c123","","846","
                <div class=""stimulus-container"">
                    <img src=""images/semantic_sequence/redecorating_a_house_semantic/redecorating_a_house_semantic_1.png"" class=""exp-image"">
                    <div class=""question-area"">
                        <p style=""font-size: 20px; font-weight: bold; margin: 0;"">Is there a person in this image?</p>
                    </div>
                </div>","0","main_experiment_trial","1","redecorating_a_house_semantic","semantic_sequence","","","","",""
"","","","","","html-keyboard-response","82","305439","0.0-82.0","56D42B25AD0D451492236546DCB8F694","019cf860-f3f2-7e1e-b7fc-44bf0ab87970","019cf855-66fc-7d76-a612-8313d2c5c123","","null","
                <div class=""stimulus-container"">
                    <img src=""images/semantic_sequence/redecorating_a_house_semantic/redecorating_a_house_semantic_2.png"" class=""exp-image"">
                    <div class=""question-area""></div> 
                </div>","null","","","","","","","","",""
"","","","","","html-button-response","83","306114","0.0-83.0","56D42B25AD0D451492236546DCB8F694","019cf860-f3f2-7e1e-b7fc-44bf0ab87970","019cf855-66fc-7d76-a612-8313d2c5c123","","674","
                <div class=""stimulus-container"">
                    <img src=""images/semantic_sequence/redecorating_a_house_semantic/redecorating_a_house_semantic_2.png"" class=""exp-image"">
                    <div class=""question-area"">
                        <p style=""font-size: 20px; font-weight: bold; margin: 0;"">Is there a person in this image?</p>
                    </div>
                </div>","0","main_experiment_trial","2","redecorating_a_house_semantic","semantic_sequence","","","","",""
"","","","","","html-keyboard-response","84","311129","0.0-84.0","56D42B25AD0D451492236546DCB8F694","019cf860-f3f2-7e1e-b7fc-44bf0ab87970","019cf855-66fc-7d76-a612-8313d2c5c123","","null","
                <div class=""stimulus-container"">
                    <img src=""images/semantic_sequence/redecorating_a_house_semantic/redecorating_a_house_semantic_3.png"" class=""exp-image"">
                    <div class=""question-area""></div> 
                </div>","null","","","","","","","","",""
"","","","","","html-button-response","85","312211","0.0-85.0","56D42B25AD0D451492236546DCB8F694","019cf860-f3f2-7e1e-b7fc-44bf0ab87970","019cf855-66fc-7d76-a612-8313d2c5c123","","1082","
                <div class=""stimulus-container"">
                    <img src=""images/semantic_sequence/redecorating_a_house_semantic/redecorating_a_house_semantic_3.png"" class=""exp-image"">
                    <div class=""question-area"">
                        <p style=""font-size: 20px; font-weight: bold; margin: 0;"">Is there a person in this image?</p>
                    </div>
                </div>","0","main_experiment_trial","3","redecorating_a_house_semantic","semantic_sequence","","","","",""
"","","","","","html-keyboard-response","86","317229","0.0-86.0","56D42B25AD0D451492236546DCB8F694","019cf860-f3f2-7e1e-b7fc-44bf0ab87970","019cf855-66fc-7d76-a612-8313d2c5c123","","null","
                <div class=""stimulus-container"">
                    <img src=""images/semantic_sequence/redecorating_a_house_semantic/redecorating_a_house_semantic_4.png"" class=""exp-image"">
                    <div class=""question-area""></div> 
                </div>","null","","","","","","","","",""
"","","","","","html-button-response","87","317924","0.0-87.0","56D42B25AD0D451492236546DCB8F694","019cf860-f3f2-7e1e-b7fc-44bf0ab87970","019cf855-66fc-7d76-a612-8313d2c5c123","","695","
                <div class=""stimulus-container"">
                    <img src=""images/semantic_sequence/redecorating_a_house_semantic/redecorating_a_house_semantic_4.png"" class=""exp-image"">
                    <div class=""question-area"">
                        <p style=""font-size: 20px; font-weight: bold; margin: 0;"">Is there a person in this image?</p>
                    </div>
                </div>","0","main_experiment_trial","4","redecorating_a_house_semantic","semantic_sequence","","","","",""
"","","","","","html-keyboard-response","88","322943","0.0-88.0","56D42B25AD0D451492236546DCB8F694","019cf860-f3f2-7e1e-b7fc-44bf0ab87970","019cf855-66fc-7d76-a612-8313d2c5c123","","null","
                <div class=""stimulus-container"">
                    <img src=""images/semantic_sequence/redecorating_a_house_semantic/redecorating_a_house_semantic_5.png"" class=""exp-image"">
                    <div class=""question-area""></div> 
                </div>","null","","","","","","","","",""
"","","","","","html-button-response","89","324406","0.0-89.0","56D42B25AD0D451492236546DCB8F694","019cf860-f3f2-7e1e-b7fc-44bf0ab87970","019cf855-66fc-7d76-a612-8313d2c5c123","","1462","
                <div class=""stimulus-container"">
                    <img src=""images/semantic_sequence/redecorating_a_house_semantic/redecorating_a_house_semantic_5.png"" class=""exp-image"">
                    <div class=""question-area"">
                        <p style=""font-size: 20px; font-weight: bold; margin: 0;"">Is there a person in this image?</p>
                    </div>
                </div>","0","main_experiment_trial","5","redecorating_a_house_semantic","semantic_sequence","","","","",""
"","","","","","html-keyboard-response","90","329409","0.0-90.0","56D42B25AD0D451492236546DCB8F694","019cf860-f3f2-7e1e-b7fc-44bf0ab87970","019cf855-66fc-7d76-a612-8313d2c5c123","","null","
                <div class=""stimulus-container"">
                    <img src=""images/semantic_sequence/redecorating_a_house_semantic/redecorating_a_house_semantic_6.png"" class=""exp-image"">
                    <div class=""question-area""></div> 
                </div>","null","","","","","","","","",""
"","","","","","html-button-response","91","332402","0.0-91.0","56D42B25AD0D451492236546DCB8F694","019cf860-f3f2-7e1e-b7fc-44bf0ab87970","019cf855-66fc-7d76-a612-8313d2c5c123","","2993","
                <div class=""stimulus-container"">
                    <img src=""images/semantic_sequence/redecorating_a_house_semantic/redecorating_a_house_semantic_6.png"" class=""exp-image"">
                    <div class=""question-area"">
                        <p style=""font-size: 20px; font-weight: bold; margin: 0;"">Is there a person in this image?</p>
                    </div>
                </div>","0","main_experiment_trial","6","redecorating_a_house_semantic","semantic_sequence","","","","",""
"","","","","","html-keyboard-response","92","337409","0.0-92.0","56D42B25AD0D451492236546DCB8F694","019cf860-f3f2-7e1e-b7fc-44bf0ab87970","019cf855-66fc-7d76-a612-8313d2c5c123","","null","
                <div class=""stimulus-container"">
                    <img src=""images/semantic_sequence/redecorating_a_house_semantic/redecorating_a_house_semantic_7.png"" class=""exp-image"">
                    <div class=""question-area""></div> 
                </div>","null","","","","","","","","",""
"","","","","","html-button-response","93","340429","0.0-93.0","56D42B25AD0D451492236546DCB8F694","019cf860-f3f2-7e1e-b7fc-44bf0ab87970","019cf855-66fc-7d76-a612-8313d2c5c123","","null","
                <div class=""stimulus-container"">
                    <img src=""images/semantic_sequence/redecorating_a_house_semantic/redecorating_a_house_semantic_7.png"" class=""exp-image"">
                    <div class=""question-area"">
                        <p style=""font-size: 20px; font-weight: bold; margin: 0;"">Is there a person in this image?</p>
                    </div>
                </div>","null","main_experiment_trial","7","redecorating_a_house_semantic","semantic_sequence","","","","",""
"","","","","","html-keyboard-response","94","345439","0.0-94.0","56D42B25AD0D451492236546DCB8F694","019cf860-f3f2-7e1e-b7fc-44bf0ab87970","019cf855-66fc-7d76-a612-8313d2c5c123","","null","
                <div class=""stimulus-container"">
                    <img src=""images/semantic_sequence/redecorating_a_house_semantic/redecorating_a_house_semantic_8.png"" class=""exp-image"">
                    <div class=""question-area""></div> 
                </div>","null","","","","","","","","",""
"","","","","","html-button-response","95","346237","0.0-95.0","56D42B25AD0D451492236546DCB8F694","019cf860-f3f2-7e1e-b7fc-44bf0ab87970","019cf855-66fc-7d76-a612-8313d2c5c123","","798","
                <div class=""stimulus-container"">
                    <img src=""images/semantic_sequence/redecorating_a_house_semantic/redecorating_a_house_semantic_8.png"" class=""exp-image"">
                    <div class=""question-area"">
                        <p style=""font-size: 20px; font-weight: bold; margin: 0;"">Is there a person in this image?</p>
                    </div>
                </div>","0","main_experiment_trial","8","redecorating_a_house_semantic","semantic_sequence","","","","",""
"","","","","","html-keyboard-response","96","351238","0.0-96.0","56D42B25AD0D451492236546DCB8F694","019cf860-f3f2-7e1e-b7fc-44bf0ab87970","019cf855-66fc-7d76-a612-8313d2c5c123","","null","
                <div class=""stimulus-container"">
                    <img src=""images/semantic_sequence/redecorating_a_house_semantic/redecorating_a_house_semantic_9.png"" class=""exp-image"">
                    <div class=""question-area""></div> 
                </div>","null","","","","","","","","",""
"","","","","","html-button-response","97","352016","0.0-97.0","56D42B25AD0D451492236546DCB8F694","019cf860-f3f2-7e1e-b7fc-44bf0ab87970","019cf855-66fc-7d76-a612-8313d2c5c123","","777","
                <div class=""stimulus-container"">
                    <img src=""images/semantic_sequence/redecorating_a_house_semantic/redecorating_a_house_semantic_9.png"" class=""exp-image"">
                    <div class=""question-area"">
                        <p style=""font-size: 20px; font-weight: bold; margin: 0;"">Is there a person in this image?</p>
                    </div>
                </div>","0","main_experiment_trial","9","redecorating_a_house_semantic","semantic_sequence","","","","",""
"","","","","","html-keyboard-response","98","357017","0.0-98.0","56D42B25AD0D451492236546DCB8F694","019cf860-f3f2-7e1e-b7fc-44bf0ab87970","019cf855-66fc-7d76-a612-8313d2c5c123","","null","
                <div class=""stimulus-container"">
                    <img src=""images/semantic_sequence/redecorating_a_house_semantic/redecorating_a_house_semantic_ten.png"" class=""exp-image"">
                    <div class=""question-area""></div> 
                </div>","null","","","","","","","","",""
"","","","","","html-button-response","99","357410","0.0-99.0","56D42B25AD0D451492236546DCB8F694","019cf860-f3f2-7e1e-b7fc-44bf0ab87970","019cf855-66fc-7d76-a612-8313d2c5c123","","392","
                <div class=""stimulus-container"">
                    <img src=""images/semantic_sequence/redecorating_a_house_semantic/redecorating_a_house_semantic_ten.png"" class=""exp-image"">
                    <div class=""question-area"">
                        <p style=""font-size: 20px; font-weight: bold; margin: 0;"">Is there a person in this image?</p>
                    </div>
                </div>","0","main_experiment_trial","ten","redecorating_a_house_semantic","semantic_sequence","","","","",""
"","","","","","html-keyboard-response","100","358419","0.0-100.0","56D42B25AD0D451492236546DCB8F694","019cf860-f3f2-7e1e-b7fc-44bf0ab87970","019cf855-66fc-7d76-a612-8313d2c5c123","","null","<div style=""background-color: white; width: 100vw; height: 100vh;""></div>","null","","","","","","","","",""
"","","","","","html-keyboard-response","101","363439","0.0-101.0","56D42B25AD0D451492236546DCB8F694","019cf860-f3f2-7e1e-b7fc-44bf0ab87970","019cf855-66fc-7d76-a612-8313d2c5c123","","null","
                <div class=""stimulus-container"">
                    <img src=""images/semantic_sequence/maintaining_a_car_semantic/maintaining_a_car_semantic_1.png"" class=""exp-image"">
                    <div class=""question-area""></div> 
                </div>","null","","","","","","","","",""
"","","","","","html-button-response","102","363916","0.0-102.0","56D42B25AD0D451492236546DCB8F694","019cf860-f3f2-7e1e-b7fc-44bf0ab87970","019cf855-66fc-7d76-a612-8313d2c5c123","","477","
                <div class=""stimulus-container"">
                    <img src=""images/semantic_sequence/maintaining_a_car_semantic/maintaining_a_car_semantic_1.png"" class=""exp-image"">
                    <div class=""question-area"">
                        <p style=""font-size: 20px; font-weight: bold; margin: 0;"">Is there a person in this image?</p>
                    </div>
                </div>","0","main_experiment_trial","1","maintaining_a_car_semantic","semantic_sequence","","","","",""
"","","","","","html-keyboard-response","103","368929","0.0-103.0","56D42B25AD0D451492236546DCB8F694","019cf860-f3f2-7e1e-b7fc-44bf0ab87970","019cf855-66fc-7d76-a612-8313d2c5c123","","null","
                <div class=""stimulus-container"">
                    <img src=""images/semantic_sequence/maintaining_a_car_semantic/maintaining_a_car_semantic_2.png"" class=""exp-image"">
                    <div class=""question-area""></div> 
                </div>","null","","","","","","","","",""
"","","","","","html-button-response","104","369562","0.0-104.0","56D42B25AD0D451492236546DCB8F694","019cf860-f3f2-7e1e-b7fc-44bf0ab87970","019cf855-66fc-7d76-a612-8313d2c5c123","","632","
                <div class=""stimulus-container"">
                    <img src=""images/semantic_sequence/maintaining_a_car_semantic/maintaining_a_car_semantic_2.png"" class=""exp-image"">
                    <div class=""question-area"">
                        <p style=""font-size: 20px; font-weight: bold; margin: 0;"">Is there a person in this image?</p>
                    </div>
                </div>","0","main_experiment_trial","2","maintaining_a_car_semantic","semantic_sequence","","","","",""
"","","","","","html-keyboard-response","105","374578","0.0-105.0","56D42B25AD0D451492236546DCB8F694","019cf860-f3f2-7e1e-b7fc-44bf0ab87970","019cf855-66fc-7d76-a612-8313d2c5c123","","null","
                <div class=""stimulus-container"">
                    <img src=""images/semantic_sequence/maintaining_a_car_semantic/maintaining_a_car_semantic_3.png"" class=""exp-image"">
                    <div class=""question-area""></div> 
                </div>","null","","","","","","","","",""
"","","","","","html-button-response","106","375461","0.0-106.0","56D42B25AD0D451492236546DCB8F694","019cf860-f3f2-7e1e-b7fc-44bf0ab87970","019cf855-66fc-7d76-a612-8313d2c5c123","","882","
                <div class=""stimulus-container"">
                    <img src=""images/semantic_sequence/maintaining_a_car_semantic/maintaining_a_car_semantic_3.png"" class=""exp-image"">
                    <div class=""question-area"">
                        <p style=""font-size: 20px; font-weight: bold; margin: 0;"">Is there a person in this image?</p>
                    </div>
                </div>","0","main_experiment_trial","3","maintaining_a_car_semantic","semantic_sequence","","","","",""
"","","","","","html-keyboard-response","107","380479","0.0-107.0","56D42B25AD0D451492236546DCB8F694","019cf860-f3f2-7e1e-b7fc-44bf0ab87970","019cf855-66fc-7d76-a612-8313d2c5c123","","null","
                <div class=""stimulus-container"">
                    <img src=""images/semantic_sequence/maintaining_a_car_semantic/maintaining_a_car_semantic_4.png"" class=""exp-image"">
                    <div class=""question-area""></div> 
                </div>","null","","","","","","","","",""
"","","","","","html-button-response","108","381114","0.0-108.0","56D42B25AD0D451492236546DCB8F694","019cf860-f3f2-7e1e-b7fc-44bf0ab87970","019cf855-66fc-7d76-a612-8313d2c5c123","","635","
                <div class=""stimulus-container"">
                    <img src=""images/semantic_sequence/maintaining_a_car_semantic/maintaining_a_car_semantic_4.png"" class=""exp-image"">
                    <div class=""question-area"">
                        <p style=""font-size: 20px; font-weight: bold; margin: 0;"">Is there a person in this image?</p>
                    </div>
                </div>","0","main_experiment_trial","4","maintaining_a_car_semantic","semantic_sequence","","","","",""
"","","","","","html-keyboard-response","109","386116","0.0-109.0","56D42B25AD0D451492236546DCB8F694","019cf860-f3f2-7e1e-b7fc-44bf0ab87970","019cf855-66fc-7d76-a612-8313d2c5c123","","null","
                <div class=""stimulus-container"">
                    <img src=""images/semantic_sequence/maintaining_a_car_semantic/maintaining_a_car_semantic_5.png"" class=""exp-image"">
                    <div class=""question-area""></div> 
                </div>","null","","","","","","","","",""
"","","","","","html-button-response","110","386814","0.0-110.0","56D42B25AD0D451492236546DCB8F694","019cf860-f3f2-7e1e-b7fc-44bf0ab87970","019cf855-66fc-7d76-a612-8313d2c5c123","","698","
                <div class=""stimulus-container"">
                    <img src=""images/semantic_sequence/maintaining_a_car_semantic/maintaining_a_car_semantic_5.png"" class=""exp-image"">
                    <div class=""question-area"">
                        <p style=""font-size: 20px; font-weight: bold; margin: 0;"">Is there a person in this image?</p>
                    </div>
                </div>","0","main_experiment_trial","5","maintaining_a_car_semantic","semantic_sequence","","","","",""
"","","","","","html-keyboard-response","111","391819","0.0-111.0","56D42B25AD0D451492236546DCB8F694","019cf860-f3f2-7e1e-b7fc-44bf0ab87970","019cf855-66fc-7d76-a612-8313d2c5c123","","null","
                <div class=""stimulus-container"">
                    <img src=""images/semantic_sequence/maintaining_a_car_semantic/maintaining_a_car_semantic_6.png"" class=""exp-image"">
                    <div class=""question-area""></div> 
                </div>","null","","","","","","","","",""
"","","","","","html-button-response","112","392689","0.0-112.0","56D42B25AD0D451492236546DCB8F694","019cf860-f3f2-7e1e-b7fc-44bf0ab87970","019cf855-66fc-7d76-a612-8313d2c5c123","","870","
                <div class=""stimulus-container"">
                    <img src=""images/semantic_sequence/maintaining_a_car_semantic/maintaining_a_car_semantic_6.png"" class=""exp-image"">
                    <div class=""question-area"">
                        <p style=""font-size: 20px; font-weight: bold; margin: 0;"">Is there a person in this image?</p>
                    </div>
                </div>","0","main_experiment_trial","6","maintaining_a_car_semantic","semantic_sequence","","","","",""
"","","","","","html-keyboard-response","113","397698","0.0-113.0","56D42B25AD0D451492236546DCB8F694","019cf860-f3f2-7e1e-b7fc-44bf0ab87970","019cf855-66fc-7d76-a612-8313d2c5c123","","null","
                <div class=""stimulus-container"">
                    <img src=""images/semantic_sequence/maintaining_a_car_semantic/maintaining_a_car_semantic_7.png"" class=""exp-image"">
                    <div class=""question-area""></div> 
                </div>","null","","","","","","","","",""
"","","","","","html-button-response","114","399825","0.0-114.0","56D42B25AD0D451492236546DCB8F694","019cf860-f3f2-7e1e-b7fc-44bf0ab87970","019cf855-66fc-7d76-a612-8313d2c5c123","","2126","
                <div class=""stimulus-container"">
                    <img src=""images/semantic_sequence/maintaining_a_car_semantic/maintaining_a_car_semantic_7.png"" class=""exp-image"">
                    <div class=""question-area"">
                        <p style=""font-size: 20px; font-weight: bold; margin: 0;"">Is there a person in this image?</p>
                    </div>
                </div>","0","main_experiment_trial","7","maintaining_a_car_semantic","semantic_sequence","","","","",""
"","","","","","html-keyboard-response","115","404838","0.0-115.0","56D42B25AD0D451492236546DCB8F694","019cf860-f3f2-7e1e-b7fc-44bf0ab87970","019cf855-66fc-7d76-a612-8313d2c5c123","","null","
                <div class=""stimulus-container"">
                    <img src=""images/semantic_sequence/maintaining_a_car_semantic/maintaining_a_car_semantic_8.png"" class=""exp-image"">
                    <div class=""question-area""></div> 
                </div>","null","","","","","","","","",""
"","","","","","html-button-response","116","405891","0.0-116.0","56D42B25AD0D451492236546DCB8F694","019cf860-f3f2-7e1e-b7fc-44bf0ab87970","019cf855-66fc-7d76-a612-8313d2c5c123","","1052","
                <div class=""stimulus-container"">
                    <img src=""images/semantic_sequence/maintaining_a_car_semantic/maintaining_a_car_semantic_8.png"" class=""exp-image"">
                    <div class=""question-area"">
                        <p style=""font-size: 20px; font-weight: bold; margin: 0;"">Is there a person in this image?</p>
                    </div>
                </div>","0","main_experiment_trial","8","maintaining_a_car_semantic","semantic_sequence","","","","",""
"","","","","","html-keyboard-response","117","410897","0.0-117.0","56D42B25AD0D451492236546DCB8F694","019cf860-f3f2-7e1e-b7fc-44bf0ab87970","019cf855-66fc-7d76-a612-8313d2c5c123","","null","
                <div class=""stimulus-container"">
                    <img src=""images/semantic_sequence/maintaining_a_car_semantic/maintaining_a_car_semantic_9.png"" class=""exp-image"">
                    <div class=""question-area""></div> 
                </div>","null","","","","","","","","",""
"","","","","","html-button-response","118","411562","0.0-118.0","56D42B25AD0D451492236546DCB8F694","019cf860-f3f2-7e1e-b7fc-44bf0ab87970","019cf855-66fc-7d76-a612-8313d2c5c123","","664","
                <div class=""stimulus-container"">
                    <img src=""images/semantic_sequence/maintaining_a_car_semantic/maintaining_a_car_semantic_9.png"" class=""exp-image"">
                    <div class=""question-area"">
                        <p style=""font-size: 20px; font-weight: bold; margin: 0;"">Is there a person in this image?</p>
                    </div>
                </div>","0","main_experiment_trial","9","maintaining_a_car_semantic","semantic_sequence","","","","",""
"","","","","","html-keyboard-response","119","416579","0.0-119.0","56D42B25AD0D451492236546DCB8F694","019cf860-f3f2-7e1e-b7fc-44bf0ab87970","019cf855-66fc-7d76-a612-8313d2c5c123","","null","
                <div class=""stimulus-container"">
                    <img src=""images/semantic_sequence/maintaining_a_car_semantic/maintaining_a_car_semantic_ten.png"" class=""exp-image"">
                    <div class=""question-area""></div> 
                </div>","null","","","","","","","","",""
"","","","","","html-button-response","120","417647","0.0-120.0","56D42B25AD0D451492236546DCB8F694","019cf860-f3f2-7e1e-b7fc-44bf0ab87970","019cf855-66fc-7d76-a612-8313d2c5c123","","1067","
                <div class=""stimulus-container"">
                    <img src=""images/semantic_sequence/maintaining_a_car_semantic/maintaining_a_car_semantic_ten.png"" class=""exp-image"">
                    <div class=""question-area"">
                        <p style=""font-size: 20px; font-weight: bold; margin: 0;"">Is there a person in this image?</p>
                    </div>
                </div>","0","main_experiment_trial","ten","maintaining_a_car_semantic","semantic_sequence","","","","",""
"","","","","","html-keyboard-response","121","418649","0.0-121.0","56D42B25AD0D451492236546DCB8F694","019cf860-f3f2-7e1e-b7fc-44bf0ab87970","019cf855-66fc-7d76-a612-8313d2c5c123","","null","<div style=""background-color: white; width: 100vw; height: 100vh;""></div>","null","","","","","","","","",""
"","","","","","html-keyboard-response","122","423649","0.0-122.0","56D42B25AD0D451492236546DCB8F694","019cf860-f3f2-7e1e-b7fc-44bf0ab87970","019cf855-66fc-7d76-a612-8313d2c5c123","","null","
                <div class=""stimulus-container"">
                    <img src=""images/schematic_sequence/supermarket_scheme/supermarket_scheme_1.png"" class=""exp-image"">
                    <div class=""question-area""></div> 
                </div>","null","","","","","","","","",""
"","","","","","html-button-response","123","424434","0.0-123.0","56D42B25AD0D451492236546DCB8F694","019cf860-f3f2-7e1e-b7fc-44bf0ab87970","019cf855-66fc-7d76-a612-8313d2c5c123","","784","
                <div class=""stimulus-container"">
                    <img src=""images/schematic_sequence/supermarket_scheme/supermarket_scheme_1.png"" class=""exp-image"">
                    <div class=""question-area"">
                        <p style=""font-size: 20px; font-weight: bold; margin: 0;"">Is there a person in this image?</p>
                    </div>
                </div>","1","main_experiment_trial","1","supermarket_scheme","schematic_sequence","","","","",""
"","","","","","html-keyboard-response","124","429449","0.0-124.0","56D42B25AD0D451492236546DCB8F694","019cf860-f3f2-7e1e-b7fc-44bf0ab87970","019cf855-66fc-7d76-a612-8313d2c5c123","","null","
                <div class=""stimulus-container"">
                    <img src=""images/schematic_sequence/supermarket_scheme/supermarket_scheme_2.png"" class=""exp-image"">
                    <div class=""question-area""></div> 
                </div>","null","","","","","","","","",""
"","","","","","html-button-response","125","429979","0.0-125.0","56D42B25AD0D451492236546DCB8F694","019cf860-f3f2-7e1e-b7fc-44bf0ab87970","019cf855-66fc-7d76-a612-8313d2c5c123","","530","
                <div class=""stimulus-container"">
                    <img src=""images/schematic_sequence/supermarket_scheme/supermarket_scheme_2.png"" class=""exp-image"">
                    <div class=""question-area"">
                        <p style=""font-size: 20px; font-weight: bold; margin: 0;"">Is there a person in this image?</p>
                    </div>
                </div>","1","main_experiment_trial","2","supermarket_scheme","schematic_sequence","","","","",""
"","","","","","html-keyboard-response","126","434989","0.0-126.0","56D42B25AD0D451492236546DCB8F694","019cf860-f3f2-7e1e-b7fc-44bf0ab87970","019cf855-66fc-7d76-a612-8313d2c5c123","","null","
                <div class=""stimulus-container"">
                    <img src=""images/schematic_sequence/supermarket_scheme/supermarket_scheme_3.png"" class=""exp-image"">
                    <div class=""question-area""></div> 
                </div>","null","","","","","","","","",""
"","","","","","html-button-response","127","435638","0.0-127.0","56D42B25AD0D451492236546DCB8F694","019cf860-f3f2-7e1e-b7fc-44bf0ab87970","019cf855-66fc-7d76-a612-8313d2c5c123","","649","
                <div class=""stimulus-container"">
                    <img src=""images/schematic_sequence/supermarket_scheme/supermarket_scheme_3.png"" class=""exp-image"">
                    <div class=""question-area"">
                        <p style=""font-size: 20px; font-weight: bold; margin: 0;"">Is there a person in this image?</p>
                    </div>
                </div>","1","main_experiment_trial","3","supermarket_scheme","schematic_sequence","","","","",""
"","","","","","html-keyboard-response","128","440649","0.0-128.0","56D42B25AD0D451492236546DCB8F694","019cf860-f3f2-7e1e-b7fc-44bf0ab87970","019cf855-66fc-7d76-a612-8313d2c5c123","","null","
                <div class=""stimulus-container"">
                    <img src=""images/schematic_sequence/supermarket_scheme/supermarket_scheme_4.png"" class=""exp-image"">
                    <div class=""question-area""></div> 
                </div>","null","","","","","","","","",""
"","","","","","html-button-response","129","441982","0.0-129.0","56D42B25AD0D451492236546DCB8F694","019cf860-f3f2-7e1e-b7fc-44bf0ab87970","019cf855-66fc-7d76-a612-8313d2c5c123","","1333","
                <div class=""stimulus-container"">
                    <img src=""images/schematic_sequence/supermarket_scheme/supermarket_scheme_4.png"" class=""exp-image"">
                    <div class=""question-area"">
                        <p style=""font-size: 20px; font-weight: bold; margin: 0;"">Is there a person in this image?</p>
                    </div>
                </div>","0","main_experiment_trial","4","supermarket_scheme","schematic_sequence","","","","",""
"","","","","","html-keyboard-response","130","446990","0.0-130.0","56D42B25AD0D451492236546DCB8F694","019cf860-f3f2-7e1e-b7fc-44bf0ab87970","019cf855-66fc-7d76-a612-8313d2c5c123","","null","
                <div class=""stimulus-container"">
                    <img src=""images/schematic_sequence/supermarket_scheme/supermarket_scheme_5.png"" class=""exp-image"">
                    <div class=""question-area""></div> 
                </div>","null","","","","","","","","",""
"","","","","","html-button-response","131","447971","0.0-131.0","56D42B25AD0D451492236546DCB8F694","019cf860-f3f2-7e1e-b7fc-44bf0ab87970","019cf855-66fc-7d76-a612-8313d2c5c123","","980","
                <div class=""stimulus-container"">
                    <img src=""images/schematic_sequence/supermarket_scheme/supermarket_scheme_5.png"" class=""exp-image"">
                    <div class=""question-area"">
                        <p style=""font-size: 20px; font-weight: bold; margin: 0;"">Is there a person in this image?</p>
                    </div>
                </div>","1","main_experiment_trial","5","supermarket_scheme","schematic_sequence","","","","",""
"","","","","","html-keyboard-response","132","452989","0.0-132.0","56D42B25AD0D451492236546DCB8F694","019cf860-f3f2-7e1e-b7fc-44bf0ab87970","019cf855-66fc-7d76-a612-8313d2c5c123","","null","
                <div class=""stimulus-container"">
                    <img src=""images/schematic_sequence/supermarket_scheme/supermarket_scheme_6.png"" class=""exp-image"">
                    <div class=""question-area""></div> 
                </div>","null","","","","","","","","",""
"","","","","","html-button-response","133","453737","0.0-133.0","56D42B25AD0D451492236546DCB8F694","019cf860-f3f2-7e1e-b7fc-44bf0ab87970","019cf855-66fc-7d76-a612-8313d2c5c123","","747","
                <div class=""stimulus-container"">
                    <img src=""images/schematic_sequence/supermarket_scheme/supermarket_scheme_6.png"" class=""exp-image"">
                    <div class=""question-area"">
                        <p style=""font-size: 20px; font-weight: bold; margin: 0;"">Is there a person in this image?</p>
                    </div>
                </div>","0","main_experiment_trial","6","supermarket_scheme","schematic_sequence","","","","",""
"","","","","","html-keyboard-response","134","458748","0.0-134.0","56D42B25AD0D451492236546DCB8F694","019cf860-f3f2-7e1e-b7fc-44bf0ab87970","019cf855-66fc-7d76-a612-8313d2c5c123","","null","
                <div class=""stimulus-container"">
                    <img src=""images/schematic_sequence/supermarket_scheme/supermarket_scheme_7.png"" class=""exp-image"">
                    <div class=""question-area""></div> 
                </div>","null","","","","","","","","",""
"","","","","","html-button-response","135","460748","0.0-135.0","56D42B25AD0D451492236546DCB8F694","019cf860-f3f2-7e1e-b7fc-44bf0ab87970","019cf855-66fc-7d76-a612-8313d2c5c123","","1999","
                <div class=""stimulus-container"">
                    <img src=""images/schematic_sequence/supermarket_scheme/supermarket_scheme_7.png"" class=""exp-image"">
                    <div class=""question-area"">
                        <p style=""font-size: 20px; font-weight: bold; margin: 0;"">Is there a person in this image?</p>
                    </div>
                </div>","0","main_experiment_trial","7","supermarket_scheme","schematic_sequence","","","","",""
"","","","","","html-keyboard-response","136","465749","0.0-136.0","56D42B25AD0D451492236546DCB8F694","019cf860-f3f2-7e1e-b7fc-44bf0ab87970","019cf855-66fc-7d76-a612-8313d2c5c123","","null","
                <div class=""stimulus-container"">
                    <img src=""images/schematic_sequence/supermarket_scheme/supermarket_scheme_8.png"" class=""exp-image"">
                    <div class=""question-area""></div> 
                </div>","null","","","","","","","","",""
"","","","","","html-button-response","137","466460","0.0-137.0","56D42B25AD0D451492236546DCB8F694","019cf860-f3f2-7e1e-b7fc-44bf0ab87970","019cf855-66fc-7d76-a612-8313d2c5c123","","710","
                <div class=""stimulus-container"">
                    <img src=""images/schematic_sequence/supermarket_scheme/supermarket_scheme_8.png"" class=""exp-image"">
                    <div class=""question-area"">
                        <p style=""font-size: 20px; font-weight: bold; margin: 0;"">Is there a person in this image?</p>
                    </div>
                </div>","0","main_experiment_trial","8","supermarket_scheme","schematic_sequence","","","","",""
"","","","","","html-keyboard-response","138","471474","0.0-138.0","56D42B25AD0D451492236546DCB8F694","019cf860-f3f2-7e1e-b7fc-44bf0ab87970","019cf855-66fc-7d76-a612-8313d2c5c123","","null","
                <div class=""stimulus-container"">
                    <img src=""images/schematic_sequence/supermarket_scheme/supermarket_scheme_9.png"" class=""exp-image"">
                    <div class=""question-area""></div> 
                </div>","null","","","","","","","","",""
"","","","","","html-button-response","139","472281","0.0-139.0","56D42B25AD0D451492236546DCB8F694","019cf860-f3f2-7e1e-b7fc-44bf0ab87970","019cf855-66fc-7d76-a612-8313d2c5c123","","806","
                <div class=""stimulus-container"">
                    <img src=""images/schematic_sequence/supermarket_scheme/supermarket_scheme_9.png"" class=""exp-image"">
                    <div class=""question-area"">
                        <p style=""font-size: 20px; font-weight: bold; margin: 0;"">Is there a person in this image?</p>
                    </div>
                </div>","0","main_experiment_trial","9","supermarket_scheme","schematic_sequence","","","","",""
"","","","","","html-keyboard-response","140","477299","0.0-140.0","56D42B25AD0D451492236546DCB8F694","019cf860-f3f2-7e1e-b7fc-44bf0ab87970","019cf855-66fc-7d76-a612-8313d2c5c123","","null","
                <div class=""stimulus-container"">
                    <img src=""images/schematic_sequence/supermarket_scheme/supermarket_scheme_ten.png"" class=""exp-image"">
                    <div class=""question-area""></div> 
                </div>","null","","","","","","","","",""
"","","","","","html-button-response","141","478113","0.0-141.0","56D42B25AD0D451492236546DCB8F694","019cf860-f3f2-7e1e-b7fc-44bf0ab87970","019cf855-66fc-7d76-a612-8313d2c5c123","","814","
                <div class=""stimulus-container"">
                    <img src=""images/schematic_sequence/supermarket_scheme/supermarket_scheme_ten.png"" class=""exp-image"">
                    <div class=""question-area"">
                        <p style=""font-size: 20px; font-weight: bold; margin: 0;"">Is there a person in this image?</p>
                    </div>
                </div>","1","main_experiment_trial","ten","supermarket_scheme","schematic_sequence","","","","",""
"","","","","","html-keyboard-response","142","479125","0.0-142.0","56D42B25AD0D451492236546DCB8F694","019cf860-f3f2-7e1e-b7fc-44bf0ab87970","019cf855-66fc-7d76-a612-8313d2c5c123","","null","<div style=""background-color: white; width: 100vw; height: 100vh;""></div>","null","","","","","","","","",""
"","","","","","html-keyboard-response","143","484129","0.0-143.0","56D42B25AD0D451492236546DCB8F694","019cf860-f3f2-7e1e-b7fc-44bf0ab87970","019cf855-66fc-7d76-a612-8313d2c5c123","","null","
                <div class=""stimulus-container"">
                    <img src=""images/schematic_sequence/restaurant_scheme/restaurant_scheme_1.png"" class=""exp-image"">
                    <div class=""question-area""></div> 
                </div>","null","","","","","","","","",""
"","","","","","html-button-response","144","484998","0.0-144.0","56D42B25AD0D451492236546DCB8F694","019cf860-f3f2-7e1e-b7fc-44bf0ab87970","019cf855-66fc-7d76-a612-8313d2c5c123","","869","
                <div class=""stimulus-container"">
                    <img src=""images/schematic_sequence/restaurant_scheme/restaurant_scheme_1.png"" class=""exp-image"">
                    <div class=""question-area"">
                        <p style=""font-size: 20px; font-weight: bold; margin: 0;"">Is there a person in this image?</p>
                    </div>
                </div>","0","main_experiment_trial","1","restaurant_scheme","schematic_sequence","","","","",""
"","","","","","html-keyboard-response","145","490019","0.0-145.0","56D42B25AD0D451492236546DCB8F694","019cf860-f3f2-7e1e-b7fc-44bf0ab87970","019cf855-66fc-7d76-a612-8313d2c5c123","","null","
                <div class=""stimulus-container"">
                    <img src=""images/schematic_sequence/restaurant_scheme/restaurant_scheme_2.png"" class=""exp-image"">
                    <div class=""question-area""></div> 
                </div>","null","","","","","","","","",""
"","","","","","html-button-response","146","491155","0.0-146.0","56D42B25AD0D451492236546DCB8F694","019cf860-f3f2-7e1e-b7fc-44bf0ab87970","019cf855-66fc-7d76-a612-8313d2c5c123","","1136","
                <div class=""stimulus-container"">
                    <img src=""images/schematic_sequence/restaurant_scheme/restaurant_scheme_2.png"" class=""exp-image"">
                    <div class=""question-area"">
                        <p style=""font-size: 20px; font-weight: bold; margin: 0;"">Is there a person in this image?</p>
                    </div>
                </div>","1","main_experiment_trial","2","restaurant_scheme","schematic_sequence","","","","",""
"","","","","","html-keyboard-response","147","496179","0.0-147.0","56D42B25AD0D451492236546DCB8F694","019cf860-f3f2-7e1e-b7fc-44bf0ab87970","019cf855-66fc-7d76-a612-8313d2c5c123","","null","
                <div class=""stimulus-container"">
                    <img src=""images/schematic_sequence/restaurant_scheme/restaurant_scheme_3.png"" class=""exp-image"">
                    <div class=""question-area""></div> 
                </div>","null","","","","","","","","",""
"","","","","","html-button-response","148","497126","0.0-148.0","56D42B25AD0D451492236546DCB8F694","019cf860-f3f2-7e1e-b7fc-44bf0ab87970","019cf855-66fc-7d76-a612-8313d2c5c123","","947","
                <div class=""stimulus-container"">
                    <img src=""images/schematic_sequence/restaurant_scheme/restaurant_scheme_3.png"" class=""exp-image"">
                    <div class=""question-area"">
                        <p style=""font-size: 20px; font-weight: bold; margin: 0;"">Is there a person in this image?</p>
                    </div>
                </div>","1","main_experiment_trial","3","restaurant_scheme","schematic_sequence","","","","",""
"","","","","","html-keyboard-response","149","502139","0.0-149.0","56D42B25AD0D451492236546DCB8F694","019cf860-f3f2-7e1e-b7fc-44bf0ab87970","019cf855-66fc-7d76-a612-8313d2c5c123","","null","
                <div class=""stimulus-container"">
                    <img src=""images/schematic_sequence/restaurant_scheme/restaurant_scheme_4.png"" class=""exp-image"">
                    <div class=""question-area""></div> 
                </div>","null","","","","","","","","",""
"","","","","","html-button-response","150","503103","0.0-150.0","56D42B25AD0D451492236546DCB8F694","019cf860-f3f2-7e1e-b7fc-44bf0ab87970","019cf855-66fc-7d76-a612-8313d2c5c123","","963","
                <div class=""stimulus-container"">
                    <img src=""images/schematic_sequence/restaurant_scheme/restaurant_scheme_4.png"" class=""exp-image"">
                    <div class=""question-area"">
                        <p style=""font-size: 20px; font-weight: bold; margin: 0;"">Is there a person in this image?</p>
                    </div>
                </div>","0","main_experiment_trial","4","restaurant_scheme","schematic_sequence","","","","",""
"","","","","","html-keyboard-response","151","508118","0.0-151.0","56D42B25AD0D451492236546DCB8F694","019cf860-f3f2-7e1e-b7fc-44bf0ab87970","019cf855-66fc-7d76-a612-8313d2c5c123","","null","
                <div class=""stimulus-container"">
                    <img src=""images/schematic_sequence/restaurant_scheme/restaurant_scheme_5.png"" class=""exp-image"">
                    <div class=""question-area""></div> 
                </div>","null","","","","","","","","",""
"","","","","","html-button-response","152","509794","0.0-152.0","56D42B25AD0D451492236546DCB8F694","019cf860-f3f2-7e1e-b7fc-44bf0ab87970","019cf855-66fc-7d76-a612-8313d2c5c123","","1675","
                <div class=""stimulus-container"">
                    <img src=""images/schematic_sequence/restaurant_scheme/restaurant_scheme_5.png"" class=""exp-image"">
                    <div class=""question-area"">
                        <p style=""font-size: 20px; font-weight: bold; margin: 0;"">Is there a person in this image?</p>
                    </div>
                </div>","0","main_experiment_trial","5","restaurant_scheme","schematic_sequence","","","","",""
"","","","","","html-keyboard-response","153","514809","0.0-153.0","56D42B25AD0D451492236546DCB8F694","019cf860-f3f2-7e1e-b7fc-44bf0ab87970","019cf855-66fc-7d76-a612-8313d2c5c123","","null","
                <div class=""stimulus-container"">
                    <img src=""images/schematic_sequence/restaurant_scheme/restaurant_scheme_6.png"" class=""exp-image"">
                    <div class=""question-area""></div> 
                </div>","null","","","","","","","","",""
"","","","","","html-button-response","154","516275","0.0-154.0","56D42B25AD0D451492236546DCB8F694","019cf860-f3f2-7e1e-b7fc-44bf0ab87970","019cf855-66fc-7d76-a612-8313d2c5c123","","1466","
                <div class=""stimulus-container"">
                    <img src=""images/schematic_sequence/restaurant_scheme/restaurant_scheme_6.png"" class=""exp-image"">
                    <div class=""question-area"">
                        <p style=""font-size: 20px; font-weight: bold; margin: 0;"">Is there a person in this image?</p>
                    </div>
                </div>","1","main_experiment_trial","6","restaurant_scheme","schematic_sequence","","","","",""
"","","","","","html-keyboard-response","155","521288","0.0-155.0","56D42B25AD0D451492236546DCB8F694","019cf860-f3f2-7e1e-b7fc-44bf0ab87970","019cf855-66fc-7d76-a612-8313d2c5c123","","null","
                <div class=""stimulus-container"">
                    <img src=""images/schematic_sequence/restaurant_scheme/restaurant_scheme_7.png"" class=""exp-image"">
                    <div class=""question-area""></div> 
                </div>","null","","","","","","","","",""
"","","","","","html-button-response","156","523436","0.0-156.0","56D42B25AD0D451492236546DCB8F694","019cf860-f3f2-7e1e-b7fc-44bf0ab87970","019cf855-66fc-7d76-a612-8313d2c5c123","","2147","
                <div class=""stimulus-container"">
                    <img src=""images/schematic_sequence/restaurant_scheme/restaurant_scheme_7.png"" class=""exp-image"">
                    <div class=""question-area"">
                        <p style=""font-size: 20px; font-weight: bold; margin: 0;"">Is there a person in this image?</p>
                    </div>
                </div>","1","main_experiment_trial","7","restaurant_scheme","schematic_sequence","","","","",""
"","","","","","html-keyboard-response","157","528448","0.0-157.0","56D42B25AD0D451492236546DCB8F694","019cf860-f3f2-7e1e-b7fc-44bf0ab87970","019cf855-66fc-7d76-a612-8313d2c5c123","","null","
                <div class=""stimulus-container"">
                    <img src=""images/schematic_sequence/restaurant_scheme/restaurant_scheme_8.png"" class=""exp-image"">
                    <div class=""question-area""></div> 
                </div>","null","","","","","","","","",""
"","","","","","html-button-response","158","529172","0.0-158.0","56D42B25AD0D451492236546DCB8F694","019cf860-f3f2-7e1e-b7fc-44bf0ab87970","019cf855-66fc-7d76-a612-8313d2c5c123","","723","
                <div class=""stimulus-container"">
                    <img src=""images/schematic_sequence/restaurant_scheme/restaurant_scheme_8.png"" class=""exp-image"">
                    <div class=""question-area"">
                        <p style=""font-size: 20px; font-weight: bold; margin: 0;"">Is there a person in this image?</p>
                    </div>
                </div>","0","main_experiment_trial","8","restaurant_scheme","schematic_sequence","","","","",""
"","","","","","html-keyboard-response","159","534175","0.0-159.0","56D42B25AD0D451492236546DCB8F694","019cf860-f3f2-7e1e-b7fc-44bf0ab87970","019cf855-66fc-7d76-a612-8313d2c5c123","","null","
                <div class=""stimulus-container"">
                    <img src=""images/schematic_sequence/restaurant_scheme/restaurant_scheme_9.png"" class=""exp-image"">
                    <div class=""question-area""></div> 
                </div>","null","","","","","","","","",""
"","","","","","html-button-response","160","534656","0.0-160.0","56D42B25AD0D451492236546DCB8F694","019cf860-f3f2-7e1e-b7fc-44bf0ab87970","019cf855-66fc-7d76-a612-8313d2c5c123","","480","
                <div class=""stimulus-container"">
                    <img src=""images/schematic_sequence/restaurant_scheme/restaurant_scheme_9.png"" class=""exp-image"">
                    <div class=""question-area"">
                        <p style=""font-size: 20px; font-weight: bold; margin: 0;"">Is there a person in this image?</p>
                    </div>
                </div>","0","main_experiment_trial","9","restaurant_scheme","schematic_sequence","","","","",""
"","","","","","html-keyboard-response","161","539668","0.0-161.0","56D42B25AD0D451492236546DCB8F694","019cf860-f3f2-7e1e-b7fc-44bf0ab87970","019cf855-66fc-7d76-a612-8313d2c5c123","","null","
                <div class=""stimulus-container"">
                    <img src=""images/schematic_sequence/restaurant_scheme/restaurant_scheme_ten.png"" class=""exp-image"">
                    <div class=""question-area""></div> 
                </div>","null","","","","","","","","",""
"","","","","","html-button-response","162","540182","0.0-162.0","56D42B25AD0D451492236546DCB8F694","019cf860-f3f2-7e1e-b7fc-44bf0ab87970","019cf855-66fc-7d76-a612-8313d2c5c123","","513","
                <div class=""stimulus-container"">
                    <img src=""images/schematic_sequence/restaurant_scheme/restaurant_scheme_ten.png"" class=""exp-image"">
                    <div class=""question-area"">
                        <p style=""font-size: 20px; font-weight: bold; margin: 0;"">Is there a person in this image?</p>
                    </div>
                </div>","0","main_experiment_trial","ten","restaurant_scheme","schematic_sequence","","","","",""
"","","","","","html-keyboard-response","163","541188","0.0-163.0","56D42B25AD0D451492236546DCB8F694","019cf860-f3f2-7e1e-b7fc-44bf0ab87970","019cf855-66fc-7d76-a612-8313d2c5c123","","null","<div style=""background-color: white; width: 100vw; height: 100vh;""></div>","null","","","","","","","","",""
"","","","","","html-keyboard-response","164","546208","0.0-164.0","56D42B25AD0D451492236546DCB8F694","019cf860-f3f2-7e1e-b7fc-44bf0ab87970","019cf855-66fc-7d76-a612-8313d2c5c123","","null","
                <div class=""stimulus-container"">
                    <img src=""images/semantic_sequence/cat_care_semantic/cat_care_semantic_1.png"" class=""exp-image"">
                    <div class=""question-area""></div> 
                </div>","null","","","","","","","","",""
"","","","","","html-button-response","165","547083","0.0-165.0","56D42B25AD0D451492236546DCB8F694","019cf860-f3f2-7e1e-b7fc-44bf0ab87970","019cf855-66fc-7d76-a612-8313d2c5c123","","874","
                <div class=""stimulus-container"">
                    <img src=""images/semantic_sequence/cat_care_semantic/cat_care_semantic_1.png"" class=""exp-image"">
                    <div class=""question-area"">
                        <p style=""font-size: 20px; font-weight: bold; margin: 0;"">Is there a person in this image?</p>
                    </div>
                </div>","0","main_experiment_trial","1","cat_care_semantic","semantic_sequence","","","","",""
"","","","","","html-keyboard-response","166","552098","0.0-166.0","56D42B25AD0D451492236546DCB8F694","019cf860-f3f2-7e1e-b7fc-44bf0ab87970","019cf855-66fc-7d76-a612-8313d2c5c123","","null","
                <div class=""stimulus-container"">
                    <img src=""images/semantic_sequence/cat_care_semantic/cat_care_semantic_2.png"" class=""exp-image"">
                    <div class=""question-area""></div> 
                </div>","null","","","","","","","","",""
"","","","","","html-button-response","167","553252","0.0-167.0","56D42B25AD0D451492236546DCB8F694","019cf860-f3f2-7e1e-b7fc-44bf0ab87970","019cf855-66fc-7d76-a612-8313d2c5c123","","1153","
                <div class=""stimulus-container"">
                    <img src=""images/semantic_sequence/cat_care_semantic/cat_care_semantic_2.png"" class=""exp-image"">
                    <div class=""question-area"">
                        <p style=""font-size: 20px; font-weight: bold; margin: 0;"">Is there a person in this image?</p>
                    </div>
                </div>","0","main_experiment_trial","2","cat_care_semantic","semantic_sequence","","","","",""
"","","","","","html-keyboard-response","168","558268","0.0-168.0","56D42B25AD0D451492236546DCB8F694","019cf860-f3f2-7e1e-b7fc-44bf0ab87970","019cf855-66fc-7d76-a612-8313d2c5c123","","null","
                <div class=""stimulus-container"">
                    <img src=""images/semantic_sequence/cat_care_semantic/cat_care_semantic_3.png"" class=""exp-image"">
                    <div class=""question-area""></div> 
                </div>","null","","","","","","","","",""
"","","","","","html-button-response","169","560358","0.0-169.0","56D42B25AD0D451492236546DCB8F694","019cf860-f3f2-7e1e-b7fc-44bf0ab87970","019cf855-66fc-7d76-a612-8313d2c5c123","","2089","
                <div class=""stimulus-container"">
                    <img src=""images/semantic_sequence/cat_care_semantic/cat_care_semantic_3.png"" class=""exp-image"">
                    <div class=""question-area"">
                        <p style=""font-size: 20px; font-weight: bold; margin: 0;"">Is there a person in this image?</p>
                    </div>
                </div>","0","main_experiment_trial","3","cat_care_semantic","semantic_sequence","","","","",""
"","","","","","html-keyboard-response","170","565378","0.0-170.0","56D42B25AD0D451492236546DCB8F694","019cf860-f3f2-7e1e-b7fc-44bf0ab87970","019cf855-66fc-7d76-a612-8313d2c5c123","","null","
                <div class=""stimulus-container"">
                    <img src=""images/semantic_sequence/cat_care_semantic/cat_care_semantic_4.png"" class=""exp-image"">
                    <div class=""question-area""></div> 
                </div>","null","","","","","","","","",""
"","","","","","html-button-response","171","566552","0.0-171.0","56D42B25AD0D451492236546DCB8F694","019cf860-f3f2-7e1e-b7fc-44bf0ab87970","019cf855-66fc-7d76-a612-8313d2c5c123","","1173","
                <div class=""stimulus-container"">
                    <img src=""images/semantic_sequence/cat_care_semantic/cat_care_semantic_4.png"" class=""exp-image"">
                    <div class=""question-area"">
                        <p style=""font-size: 20px; font-weight: bold; margin: 0;"">Is there a person in this image?</p>
                    </div>
                </div>","0","main_experiment_trial","4","cat_care_semantic","semantic_sequence","","","","",""
"","","","","","html-keyboard-response","172","571568","0.0-172.0","56D42B25AD0D451492236546DCB8F694","019cf860-f3f2-7e1e-b7fc-44bf0ab87970","019cf855-66fc-7d76-a612-8313d2c5c123","","null","
                <div class=""stimulus-container"">
                    <img src=""images/semantic_sequence/cat_care_semantic/cat_care_semantic_5.png"" class=""exp-image"">
                    <div class=""question-area""></div> 
                </div>","null","","","","","","","","",""
"","","","","","html-button-response","173","572823","0.0-173.0","56D42B25AD0D451492236546DCB8F694","019cf860-f3f2-7e1e-b7fc-44bf0ab87970","019cf855-66fc-7d76-a612-8313d2c5c123","","1254","
                <div class=""stimulus-container"">
                    <img src=""images/semantic_sequence/cat_care_semantic/cat_care_semantic_5.png"" class=""exp-image"">
                    <div class=""question-area"">
                        <p style=""font-size: 20px; font-weight: bold; margin: 0;"">Is there a person in this image?</p>
                    </div>
                </div>","0","main_experiment_trial","5","cat_care_semantic","semantic_sequence","","","","",""
"","","","","","html-keyboard-response","174","577838","0.0-174.0","56D42B25AD0D451492236546DCB8F694","019cf860-f3f2-7e1e-b7fc-44bf0ab87970","019cf855-66fc-7d76-a612-8313d2c5c123","","null","
                <div class=""stimulus-container"">
                    <img src=""images/semantic_sequence/cat_care_semantic/cat_care_semantic_6.png"" class=""exp-image"">
                    <div class=""question-area""></div> 
                </div>","null","","","","","","","","",""
"","","","","","html-button-response","175","578631","0.0-175.0","56D42B25AD0D451492236546DCB8F694","019cf860-f3f2-7e1e-b7fc-44bf0ab87970","019cf855-66fc-7d76-a612-8313d2c5c123","","791","
                <div class=""stimulus-container"">
                    <img src=""images/semantic_sequence/cat_care_semantic/cat_care_semantic_6.png"" class=""exp-image"">
                    <div class=""question-area"">
                        <p style=""font-size: 20px; font-weight: bold; margin: 0;"">Is there a person in this image?</p>
                    </div>
                </div>","0","main_experiment_trial","6","cat_care_semantic","semantic_sequence","","","","",""
"","","","","","html-keyboard-response","176","583633","0.0-176.0","56D42B25AD0D451492236546DCB8F694","019cf860-f3f2-7e1e-b7fc-44bf0ab87970","019cf855-66fc-7d76-a612-8313d2c5c123","","null","
                <div class=""stimulus-container"">
                    <img src=""images/semantic_sequence/cat_care_semantic/cat_care_semantic_7.png"" class=""exp-image"">
                    <div class=""question-area""></div> 
                </div>","null","","","","","","","","",""
"","","","","","html-button-response","177","584837","0.0-177.0","56D42B25AD0D451492236546DCB8F694","019cf860-f3f2-7e1e-b7fc-44bf0ab87970","019cf855-66fc-7d76-a612-8313d2c5c123","","1203","
                <div class=""stimulus-container"">
                    <img src=""images/semantic_sequence/cat_care_semantic/cat_care_semantic_7.png"" class=""exp-image"">
                    <div class=""question-area"">
                        <p style=""font-size: 20px; font-weight: bold; margin: 0;"">Is there a person in this image?</p>
                    </div>
                </div>","0","main_experiment_trial","7","cat_care_semantic","semantic_sequence","","","","",""
"","","","","","html-keyboard-response","178","589838","0.0-178.0","56D42B25AD0D451492236546DCB8F694","019cf860-f3f2-7e1e-b7fc-44bf0ab87970","019cf855-66fc-7d76-a612-8313d2c5c123","","null","
                <div class=""stimulus-container"">
                    <img src=""images/semantic_sequence/cat_care_semantic/cat_care_semantic_8.png"" class=""exp-image"">
                    <div class=""question-area""></div> 
                </div>","null","","","","","","","","",""
"","","","","","html-button-response","179","592669","0.0-179.0","56D42B25AD0D451492236546DCB8F694","019cf860-f3f2-7e1e-b7fc-44bf0ab87970","019cf855-66fc-7d76-a612-8313d2c5c123","","2830","
