"success","timeout","failed_images","failed_audio","failed_video","trial_type","trial_index","time_elapsed","internal_node_id","subject_id","study_id","session_id","view_history","rt","stimulus","response","task","image_index","folder","sequence_type","valuable_image_index","reward_type","chosen_image_index","target_X","correct_choice"
"true","false","[]","[]","[]","preload","0","6291","0.0-0.0","69E224AC94954D30B88BC026C37212CC","019cf0df-891f-7dc5-be19-bfd826317c54","019cf037-5203-781a-b900-108ccb1cab86","","","","","","","","","","","","",""
"","","","","","instructions","1","28895","0.0-1.0","69E224AC94954D30B88BC026C37212CC","019cf0df-891f-7dc5-be19-bfd826317c54","019cf037-5203-781a-b900-108ccb1cab86","[{""page_index"":0,""viewing_time"":22602}]","22602","","","","","","","","","","",""
"","","","","","instructions","2","31660","0.0-2.0","69E224AC94954D30B88BC026C37212CC","019cf0df-891f-7dc5-be19-bfd826317c54","019cf037-5203-781a-b900-108ccb1cab86","[{""page_index"":0,""viewing_time"":2765}]","2766","","","","","","","","","","",""
"true","","","","","fullscreen","3","33929","0.0-3.0","69E224AC94954D30B88BC026C37212CC","019cf0df-891f-7dc5-be19-bfd826317c54","019cf037-5203-781a-b900-108ccb1cab86","","1261","","","","","","","","","","",""
"","","","","","instructions","4","39696","0.0-4.0","69E224AC94954D30B88BC026C37212CC","019cf0df-891f-7dc5-be19-bfd826317c54","019cf037-5203-781a-b900-108ccb1cab86","[{""page_index"":0,""viewing_time"":5766}]","5766","","","","","","","","","","",""
"","","","","","instructions","5","42187","0.0-5.0","69E224AC94954D30B88BC026C37212CC","019cf0df-891f-7dc5-be19-bfd826317c54","019cf037-5203-781a-b900-108ccb1cab86","[{""page_index"":0,""viewing_time"":2490}]","2490","","","","","","","","","","",""
"","","","","","html-keyboard-response","6","46196","0.0-6.0","69E224AC94954D30B88BC026C37212CC","019cf0df-891f-7dc5-be19-bfd826317c54","019cf037-5203-781a-b900-108ccb1cab86","","null","
                <div class=""stimulus-container"">
                    <img src=""images/instructions/movie_1.png"" class=""exp-image"">
                    <div class=""question-area""></div> 
                </div>","null","","","","","","","","",""
"","","","","","html-button-response","7","49201","0.0-7.0","69E224AC94954D30B88BC026C37212CC","019cf0df-891f-7dc5-be19-bfd826317c54","019cf037-5203-781a-b900-108ccb1cab86","","null","
                <div class=""stimulus-container"">
                    <img src=""images/instructions/movie_1.png"" class=""exp-image"">
                    <div class=""question-area"">
                        <p style=""font-size: 20px; font-weight: bold; margin: 0;"">Was there a person in this image?</p>
                    </div>
                </div>","null","example_question","1","","","","","","",""
"","","","","","html-keyboard-response","8","53203","0.0-8.0","69E224AC94954D30B88BC026C37212CC","019cf0df-891f-7dc5-be19-bfd826317c54","019cf037-5203-781a-b900-108ccb1cab86","","null","
                <div class=""stimulus-container"">
                    <img src=""images/instructions/movie_2.png"" class=""exp-image"">
                    <div class=""question-area""></div> 
                </div>","null","","","","","","","","",""
"","","","","","html-button-response","9","54519","0.0-9.0","69E224AC94954D30B88BC026C37212CC","019cf0df-891f-7dc5-be19-bfd826317c54","019cf037-5203-781a-b900-108ccb1cab86","","1315","
                <div class=""stimulus-container"">
                    <img src=""images/instructions/movie_2.png"" class=""exp-image"">
                    <div class=""question-area"">
                        <p style=""font-size: 20px; font-weight: bold; margin: 0;"">Was there a person in this image?</p>
                    </div>
                </div>","1","example_question","2","","","","","","",""
"","","","","","html-keyboard-response","10","58521","0.0-10.0","69E224AC94954D30B88BC026C37212CC","019cf0df-891f-7dc5-be19-bfd826317c54","019cf037-5203-781a-b900-108ccb1cab86","","null","
                <div class=""stimulus-container"">
                    <img src=""images/instructions/movie_3.png"" class=""exp-image"">
                    <div class=""question-area""></div> 
                </div>","null","","","","","","","","",""
"","","","","","html-button-response","11","59582","0.0-11.0","69E224AC94954D30B88BC026C37212CC","019cf0df-891f-7dc5-be19-bfd826317c54","019cf037-5203-781a-b900-108ccb1cab86","","1059","
                <div class=""stimulus-container"">
                    <img src=""images/instructions/movie_3.png"" class=""exp-image"">
                    <div class=""question-area"">
                        <p style=""font-size: 20px; font-weight: bold; margin: 0;"">Was there a person in this image?</p>
                    </div>
                </div>","0","example_question","3","","","","","","",""
"","","","","","html-keyboard-response","12","63588","0.0-12.0","69E224AC94954D30B88BC026C37212CC","019cf0df-891f-7dc5-be19-bfd826317c54","019cf037-5203-781a-b900-108ccb1cab86","","null","
                <div class=""stimulus-container"">
                    <img src=""images/instructions/movie_4.png"" class=""exp-image"">
                    <div class=""question-area""></div> 
                </div>","null","","","","","","","","",""
"","","","","","html-button-response","13","64330","0.0-13.0","69E224AC94954D30B88BC026C37212CC","019cf0df-891f-7dc5-be19-bfd826317c54","019cf037-5203-781a-b900-108ccb1cab86","","741","
                <div class=""stimulus-container"">
                    <img src=""images/instructions/movie_4.png"" class=""exp-image"">
                    <div class=""question-area"">
                        <p style=""font-size: 20px; font-weight: bold; margin: 0;"">Was there a person in this image?</p>
                    </div>
                </div>","0","example_question","4","","","","","","",""
"","","","","","instructions","14","65913","0.0-14.0","69E224AC94954D30B88BC026C37212CC","019cf0df-891f-7dc5-be19-bfd826317c54","019cf037-5203-781a-b900-108ccb1cab86","[{""page_index"":0,""viewing_time"":1581}]","1582","","","","","","","","","","",""
"","","","","","instructions","15","73872","0.0-15.0","69E224AC94954D30B88BC026C37212CC","019cf0df-891f-7dc5-be19-bfd826317c54","019cf037-5203-781a-b900-108ccb1cab86","[{""page_index"":0,""viewing_time"":7959}]","7959","","","","","","","","","","",""
"","","","","","html-keyboard-response","16","74879","0.0-16.0","69E224AC94954D30B88BC026C37212CC","019cf0df-891f-7dc5-be19-bfd826317c54","019cf037-5203-781a-b900-108ccb1cab86","","null","<div style=""background-color: white; width: 100vw; height: 100vh;""></div>","null","","","","","","","","",""
"","","","","","html-keyboard-response","17","79896","0.0-17.0","69E224AC94954D30B88BC026C37212CC","019cf0df-891f-7dc5-be19-bfd826317c54","019cf037-5203-781a-b900-108ccb1cab86","","null","
                <div class=""stimulus-container"">
                    <img src=""images/causal_sequence/dog_causal/dog_causal_1.png"" class=""exp-image"">
                    <div class=""question-area""></div> 
                </div>","null","","","","","","","","",""
"","","","","","html-button-response","18","81150","0.0-18.0","69E224AC94954D30B88BC026C37212CC","019cf0df-891f-7dc5-be19-bfd826317c54","019cf037-5203-781a-b900-108ccb1cab86","","1253","
                <div class=""stimulus-container"">
                    <img src=""images/causal_sequence/dog_causal/dog_causal_1.png"" class=""exp-image"">
                    <div class=""question-area"">
                        <p style=""font-size: 20px; font-weight: bold; margin: 0;"">Is there a person in this image?</p>
                    </div>
                </div>","0","main_experiment_trial","1","dog_causal","causal_sequence","","","","",""
"","","","","","html-keyboard-response","19","86159","0.0-19.0","69E224AC94954D30B88BC026C37212CC","019cf0df-891f-7dc5-be19-bfd826317c54","019cf037-5203-781a-b900-108ccb1cab86","","null","
                <div class=""stimulus-container"">
                    <img src=""images/causal_sequence/dog_causal/dog_causal_2.png"" class=""exp-image"">
                    <div class=""question-area""></div> 
                </div>","null","","","","","","","","",""
"","","","","","html-button-response","20","86980","0.0-20.0","69E224AC94954D30B88BC026C37212CC","019cf0df-891f-7dc5-be19-bfd826317c54","019cf037-5203-781a-b900-108ccb1cab86","","820","
                <div class=""stimulus-container"">
                    <img src=""images/causal_sequence/dog_causal/dog_causal_2.png"" class=""exp-image"">
                    <div class=""question-area"">
                        <p style=""font-size: 20px; font-weight: bold; margin: 0;"">Is there a person in this image?</p>
                    </div>
                </div>","0","main_experiment_trial","2","dog_causal","causal_sequence","","","","",""
"","","","","","html-keyboard-response","21","91992","0.0-21.0","69E224AC94954D30B88BC026C37212CC","019cf0df-891f-7dc5-be19-bfd826317c54","019cf037-5203-781a-b900-108ccb1cab86","","null","
                <div class=""stimulus-container"">
                    <img src=""images/causal_sequence/dog_causal/dog_causal_3.png"" class=""exp-image"">
                    <div class=""question-area""></div> 
                </div>","null","","","","","","","","",""
"","","","","","html-button-response","22","92724","0.0-22.0","69E224AC94954D30B88BC026C37212CC","019cf0df-891f-7dc5-be19-bfd826317c54","019cf037-5203-781a-b900-108ccb1cab86","","731","
                <div class=""stimulus-container"">
                    <img src=""images/causal_sequence/dog_causal/dog_causal_3.png"" class=""exp-image"">
                    <div class=""question-area"">
                        <p style=""font-size: 20px; font-weight: bold; margin: 0;"">Is there a person in this image?</p>
                    </div>
                </div>","0","main_experiment_trial","3","dog_causal","causal_sequence","","","","",""
"","","","","","html-keyboard-response","23","97729","0.0-23.0","69E224AC94954D30B88BC026C37212CC","019cf0df-891f-7dc5-be19-bfd826317c54","019cf037-5203-781a-b900-108ccb1cab86","","null","
                <div class=""stimulus-container"">
                    <img src=""images/causal_sequence/dog_causal/dog_causal_4.png"" class=""exp-image"">
                    <div class=""question-area""></div> 
                </div>","null","","","","","","","","",""
"","","","","","html-button-response","24","100739","0.0-24.0","69E224AC94954D30B88BC026C37212CC","019cf0df-891f-7dc5-be19-bfd826317c54","019cf037-5203-781a-b900-108ccb1cab86","","null","
                <div class=""stimulus-container"">
                    <img src=""images/causal_sequence/dog_causal/dog_causal_4.png"" class=""exp-image"">
                    <div class=""question-area"">
                        <p style=""font-size: 20px; font-weight: bold; margin: 0;"">Is there a person in this image?</p>
                    </div>
                </div>","null","main_experiment_trial","4","dog_causal","causal_sequence","","","","",""
"","","","","","html-keyboard-response","25","105746","0.0-25.0","69E224AC94954D30B88BC026C37212CC","019cf0df-891f-7dc5-be19-bfd826317c54","019cf037-5203-781a-b900-108ccb1cab86","","null","
                <div class=""stimulus-container"">
                    <img src=""images/causal_sequence/dog_causal/dog_causal_5.png"" class=""exp-image"">
                    <div class=""question-area""></div> 
                </div>","null","","","","","","","","",""
"","","","","","html-button-response","26","108755","0.0-26.0","69E224AC94954D30B88BC026C37212CC","019cf0df-891f-7dc5-be19-bfd826317c54","019cf037-5203-781a-b900-108ccb1cab86","","null","
                <div class=""stimulus-container"">
                    <img src=""images/causal_sequence/dog_causal/dog_causal_5.png"" class=""exp-image"">
                    <div class=""question-area"">
                        <p style=""font-size: 20px; font-weight: bold; margin: 0;"">Is there a person in this image?</p>
                    </div>
                </div>","null","main_experiment_trial","5","dog_causal","causal_sequence","","","","",""
"","","","","","html-keyboard-response","27","113770","0.0-27.0","69E224AC94954D30B88BC026C37212CC","019cf0df-891f-7dc5-be19-bfd826317c54","019cf037-5203-781a-b900-108ccb1cab86","","null","
                <div class=""stimulus-container"">
                    <img src=""images/causal_sequence/dog_causal/dog_causal_6.png"" class=""exp-image"">
                    <div class=""question-area""></div> 
                </div>","null","","","","","","","","",""
"","","","","","html-button-response","28","114697","0.0-28.0","69E224AC94954D30B88BC026C37212CC","019cf0df-891f-7dc5-be19-bfd826317c54","019cf037-5203-781a-b900-108ccb1cab86","","926","
                <div class=""stimulus-container"">
                    <img src=""images/causal_sequence/dog_causal/dog_causal_6.png"" class=""exp-image"">
                    <div class=""question-area"">
                        <p style=""font-size: 20px; font-weight: bold; margin: 0;"">Is there a person in this image?</p>
                    </div>
                </div>","0","main_experiment_trial","6","dog_causal","causal_sequence","","","","",""
"","","","","","html-keyboard-response","29","119703","0.0-29.0","69E224AC94954D30B88BC026C37212CC","019cf0df-891f-7dc5-be19-bfd826317c54","019cf037-5203-781a-b900-108ccb1cab86","","null","
                <div class=""stimulus-container"">
                    <img src=""images/causal_sequence/dog_causal/dog_causal_7.png"" class=""exp-image"">
                    <div class=""question-area""></div> 
                </div>","null","","","","","","","","",""
"","","","","","html-button-response","30","120799","0.0-30.0","69E224AC94954D30B88BC026C37212CC","019cf0df-891f-7dc5-be19-bfd826317c54","019cf037-5203-781a-b900-108ccb1cab86","","1095","
                <div class=""stimulus-container"">
                    <img src=""images/causal_sequence/dog_causal/dog_causal_7.png"" class=""exp-image"">
                    <div class=""question-area"">
                        <p style=""font-size: 20px; font-weight: bold; margin: 0;"">Is there a person in this image?</p>
                    </div>
                </div>","0","main_experiment_trial","7","dog_causal","causal_sequence","","","","",""
"","","","","","html-keyboard-response","31","125806","0.0-31.0","69E224AC94954D30B88BC026C37212CC","019cf0df-891f-7dc5-be19-bfd826317c54","019cf037-5203-781a-b900-108ccb1cab86","","null","
                <div class=""stimulus-container"">
                    <img src=""images/causal_sequence/dog_causal/dog_causal_8.png"" class=""exp-image"">
                    <div class=""question-area""></div> 
                </div>","null","","","","","","","","",""
"","","","","","html-button-response","32","127552","0.0-32.0","69E224AC94954D30B88BC026C37212CC","019cf0df-891f-7dc5-be19-bfd826317c54","019cf037-5203-781a-b900-108ccb1cab86","","1745","
                <div class=""stimulus-container"">
                    <img src=""images/causal_sequence/dog_causal/dog_causal_8.png"" class=""exp-image"">
                    <div class=""question-area"">
                        <p style=""font-size: 20px; font-weight: bold; margin: 0;"">Is there a person in this image?</p>
                    </div>
                </div>","0","main_experiment_trial","8","dog_causal","causal_sequence","","","","",""
"","","","","","html-keyboard-response","33","132563","0.0-33.0","69E224AC94954D30B88BC026C37212CC","019cf0df-891f-7dc5-be19-bfd826317c54","019cf037-5203-781a-b900-108ccb1cab86","","null","
                <div class=""stimulus-container"">
                    <img src=""images/causal_sequence/dog_causal/dog_causal_9.png"" class=""exp-image"">
                    <div class=""question-area""></div> 
                </div>","null","","","","","","","","",""
"","","","","","html-button-response","34","135564","0.0-34.0","69E224AC94954D30B88BC026C37212CC","019cf0df-891f-7dc5-be19-bfd826317c54","019cf037-5203-781a-b900-108ccb1cab86","","null","
                <div class=""stimulus-container"">
                    <img src=""images/causal_sequence/dog_causal/dog_causal_9.png"" class=""exp-image"">
                    <div class=""question-area"">
                        <p style=""font-size: 20px; font-weight: bold; margin: 0;"">Is there a person in this image?</p>
                    </div>
                </div>","null","main_experiment_trial","9","dog_causal","causal_sequence","","","","",""
"","","","","","html-keyboard-response","35","140582","0.0-35.0","69E224AC94954D30B88BC026C37212CC","019cf0df-891f-7dc5-be19-bfd826317c54","019cf037-5203-781a-b900-108ccb1cab86","","null","
                <div class=""stimulus-container"">
                    <img src=""images/causal_sequence/dog_causal/dog_causal_ten.png"" class=""exp-image"">
                    <div class=""question-area""></div> 
                </div>","null","","","","","","","","",""
"","","","","","html-button-response","36","141801","0.0-36.0","69E224AC94954D30B88BC026C37212CC","019cf0df-891f-7dc5-be19-bfd826317c54","019cf037-5203-781a-b900-108ccb1cab86","","1217","
                <div class=""stimulus-container"">
                    <img src=""images/causal_sequence/dog_causal/dog_causal_ten.png"" class=""exp-image"">
                    <div class=""question-area"">
                        <p style=""font-size: 20px; font-weight: bold; margin: 0;"">Is there a person in this image?</p>
                    </div>
                </div>","0","main_experiment_trial","ten","dog_causal","causal_sequence","","","","",""
"","","","","","html-keyboard-response","37","142804","0.0-37.0","69E224AC94954D30B88BC026C37212CC","019cf0df-891f-7dc5-be19-bfd826317c54","019cf037-5203-781a-b900-108ccb1cab86","","null","<div style=""background-color: white; width: 100vw; height: 100vh;""></div>","null","","","","","","","","",""
"","","","","","html-keyboard-response","38","147818","0.0-38.0","69E224AC94954D30B88BC026C37212CC","019cf0df-891f-7dc5-be19-bfd826317c54","019cf037-5203-781a-b900-108ccb1cab86","","null","
                <div class=""stimulus-container"">
                    <img src=""images/causal_sequence/coin_causal/coin_causal_1.png"" class=""exp-image"">
                    <div class=""question-area""></div> 
                </div>","null","","","","","","","","",""
"","","","","","html-button-response","39","150830","0.0-39.0","69E224AC94954D30B88BC026C37212CC","019cf0df-891f-7dc5-be19-bfd826317c54","019cf037-5203-781a-b900-108ccb1cab86","","null","
                <div class=""stimulus-container"">
                    <img src=""images/causal_sequence/coin_causal/coin_causal_1.png"" class=""exp-image"">
                    <div class=""question-area"">
                        <p style=""font-size: 20px; font-weight: bold; margin: 0;"">Is there a person in this image?</p>
                    </div>
                </div>","null","main_experiment_trial","1","coin_causal","causal_sequence","","","","",""
"","","","","","html-keyboard-response","40","155838","0.0-40.0","69E224AC94954D30B88BC026C37212CC","019cf0df-891f-7dc5-be19-bfd826317c54","019cf037-5203-781a-b900-108ccb1cab86","","null","
                <div class=""stimulus-container"">
                    <img src=""images/causal_sequence/coin_causal/coin_causal_2.png"" class=""exp-image"">
                    <div class=""question-area""></div> 
                </div>","null","","","","","","","","",""
"","","","","","html-button-response","41","158846","0.0-41.0","69E224AC94954D30B88BC026C37212CC","019cf0df-891f-7dc5-be19-bfd826317c54","019cf037-5203-781a-b900-108ccb1cab86","","null","
                <div class=""stimulus-container"">
                    <img src=""images/causal_sequence/coin_causal/coin_causal_2.png"" class=""exp-image"">
                    <div class=""question-area"">
                        <p style=""font-size: 20px; font-weight: bold; margin: 0;"">Is there a person in this image?</p>
                    </div>
                </div>","null","main_experiment_trial","2","coin_causal","causal_sequence","","","","",""
"","","","","","html-keyboard-response","42","163854","0.0-42.0","69E224AC94954D30B88BC026C37212CC","019cf0df-891f-7dc5-be19-bfd826317c54","019cf037-5203-781a-b900-108ccb1cab86","","null","
                <div class=""stimulus-container"">
                    <img src=""images/causal_sequence/coin_causal/coin_causal_3.png"" class=""exp-image"">
                    <div class=""question-area""></div> 
                </div>","null","","","","","","","","",""
"","","","","","html-button-response","43","164422","0.0-43.0","69E224AC94954D30B88BC026C37212CC","019cf0df-891f-7dc5-be19-bfd826317c54","019cf037-5203-781a-b900-108ccb1cab86","","567","
                <div class=""stimulus-container"">
                    <img src=""images/causal_sequence/coin_causal/coin_causal_3.png"" class=""exp-image"">
                    <div class=""question-area"">
                        <p style=""font-size: 20px; font-weight: bold; margin: 0;"">Is there a person in this image?</p>
                    </div>
                </div>","0","main_experiment_trial","3","coin_causal","causal_sequence","","","","",""
"","","","","","html-keyboard-response","44","169428","0.0-44.0","69E224AC94954D30B88BC026C37212CC","019cf0df-891f-7dc5-be19-bfd826317c54","019cf037-5203-781a-b900-108ccb1cab86","","null","
                <div class=""stimulus-container"">
                    <img src=""images/causal_sequence/coin_causal/coin_causal_4.png"" class=""exp-image"">
                    <div class=""question-area""></div> 
                </div>","null","","","","","","","","",""
"","","","","","html-button-response","45","170031","0.0-45.0","69E224AC94954D30B88BC026C37212CC","019cf0df-891f-7dc5-be19-bfd826317c54","019cf037-5203-781a-b900-108ccb1cab86","","602","
                <div class=""stimulus-container"">
                    <img src=""images/causal_sequence/coin_causal/coin_causal_4.png"" class=""exp-image"">
                    <div class=""question-area"">
                        <p style=""font-size: 20px; font-weight: bold; margin: 0;"">Is there a person in this image?</p>
                    </div>
                </div>","0","main_experiment_trial","4","coin_causal","causal_sequence","","","","",""
"","","","","","html-keyboard-response","46","175038","0.0-46.0","69E224AC94954D30B88BC026C37212CC","019cf0df-891f-7dc5-be19-bfd826317c54","019cf037-5203-781a-b900-108ccb1cab86","","null","
                <div class=""stimulus-container"">
                    <img src=""images/causal_sequence/coin_causal/coin_causal_5.png"" class=""exp-image"">
                    <div class=""question-area""></div> 
                </div>","null","","","","","","","","",""
"","","","","","html-button-response","47","175694","0.0-47.0","69E224AC94954D30B88BC026C37212CC","019cf0df-891f-7dc5-be19-bfd826317c54","019cf037-5203-781a-b900-108ccb1cab86","","655","
                <div class=""stimulus-container"">
                    <img src=""images/causal_sequence/coin_causal/coin_causal_5.png"" class=""exp-image"">
                    <div class=""question-area"">
                        <p style=""font-size: 20px; font-weight: bold; margin: 0;"">Is there a person in this image?</p>
                    </div>
                </div>","0","main_experiment_trial","5","coin_causal","causal_sequence","","","","",""
"","","","","","html-keyboard-response","48","180704","0.0-48.0","69E224AC94954D30B88BC026C37212CC","019cf0df-891f-7dc5-be19-bfd826317c54","019cf037-5203-781a-b900-108ccb1cab86","","null","
                <div class=""stimulus-container"">
                    <img src=""images/causal_sequence/coin_causal/coin_causal_6.png"" class=""exp-image"">
                    <div class=""question-area""></div> 
                </div>","null","","","","","","","","",""
"","","","","","html-button-response","49","181233","0.0-49.0","69E224AC94954D30B88BC026C37212CC","019cf0df-891f-7dc5-be19-bfd826317c54","019cf037-5203-781a-b900-108ccb1cab86","","528","
                <div class=""stimulus-container"">
                    <img src=""images/causal_sequence/coin_causal/coin_causal_6.png"" class=""exp-image"">
                    <div class=""question-area"">
                        <p style=""font-size: 20px; font-weight: bold; margin: 0;"">Is there a person in this image?</p>
                    </div>
                </div>","0","main_experiment_trial","6","coin_causal","causal_sequence","","","","",""
"","","","","","html-keyboard-response","50","186240","0.0-50.0","69E224AC94954D30B88BC026C37212CC","019cf0df-891f-7dc5-be19-bfd826317c54","019cf037-5203-781a-b900-108ccb1cab86","","null","
                <div class=""stimulus-container"">
                    <img src=""images/causal_sequence/coin_causal/coin_causal_7.png"" class=""exp-image"">
                    <div class=""question-area""></div> 
                </div>","null","","","","","","","","",""
"","","","","","html-button-response","51","186885","0.0-51.0","69E224AC94954D30B88BC026C37212CC","019cf0df-891f-7dc5-be19-bfd826317c54","019cf037-5203-781a-b900-108ccb1cab86","","644","
                <div class=""stimulus-container"">
                    <img src=""images/causal_sequence/coin_causal/coin_causal_7.png"" class=""exp-image"">
                    <div class=""question-area"">
                        <p style=""font-size: 20px; font-weight: bold; margin: 0;"">Is there a person in this image?</p>
                    </div>
                </div>","1","main_experiment_trial","7","coin_causal","causal_sequence","","","","",""
"","","","","","html-keyboard-response","52","191900","0.0-52.0","69E224AC94954D30B88BC026C37212CC","019cf0df-891f-7dc5-be19-bfd826317c54","019cf037-5203-781a-b900-108ccb1cab86","","null","
                <div class=""stimulus-container"">
                    <img src=""images/causal_sequence/coin_causal/coin_causal_8.png"" class=""exp-image"">
                    <div class=""question-area""></div> 
                </div>","null","","","","","","","","",""
"","","","","","html-button-response","53","192471","0.0-53.0","69E224AC94954D30B88BC026C37212CC","019cf0df-891f-7dc5-be19-bfd826317c54","019cf037-5203-781a-b900-108ccb1cab86","","570","
                <div class=""stimulus-container"">
                    <img src=""images/causal_sequence/coin_causal/coin_causal_8.png"" class=""exp-image"">
                    <div class=""question-area"">
                        <p style=""font-size: 20px; font-weight: bold; margin: 0;"">Is there a person in this image?</p>
                    </div>
                </div>","0","main_experiment_trial","8","coin_causal","causal_sequence","","","","",""
"","","","","","html-keyboard-response","54","197479","0.0-54.0","69E224AC94954D30B88BC026C37212CC","019cf0df-891f-7dc5-be19-bfd826317c54","019cf037-5203-781a-b900-108ccb1cab86","","null","
                <div class=""stimulus-container"">
                    <img src=""images/causal_sequence/coin_causal/coin_causal_9.png"" class=""exp-image"">
                    <div class=""question-area""></div> 
                </div>","null","","","","","","","","",""
"","","","","","html-button-response","55","198004","0.0-55.0","69E224AC94954D30B88BC026C37212CC","019cf0df-891f-7dc5-be19-bfd826317c54","019cf037-5203-781a-b900-108ccb1cab86","","524","
                <div class=""stimulus-container"">
                    <img src=""images/causal_sequence/coin_causal/coin_causal_9.png"" class=""exp-image"">
                    <div class=""question-area"">
                        <p style=""font-size: 20px; font-weight: bold; margin: 0;"">Is there a person in this image?</p>
                    </div>
                </div>","0","main_experiment_trial","9","coin_causal","causal_sequence","","","","",""
"","","","","","html-keyboard-response","56","203009","0.0-56.0","69E224AC94954D30B88BC026C37212CC","019cf0df-891f-7dc5-be19-bfd826317c54","019cf037-5203-781a-b900-108ccb1cab86","","null","
                <div class=""stimulus-container"">
                    <img src=""images/causal_sequence/coin_causal/coin_causal_ten.png"" class=""exp-image"">
                    <div class=""question-area""></div> 
                </div>","null","","","","","","","","",""
"","","","","","html-button-response","57","203743","0.0-57.0","69E224AC94954D30B88BC026C37212CC","019cf0df-891f-7dc5-be19-bfd826317c54","019cf037-5203-781a-b900-108ccb1cab86","","732","
                <div class=""stimulus-container"">
                    <img src=""images/causal_sequence/coin_causal/coin_causal_ten.png"" class=""exp-image"">
                    <div class=""question-area"">
                        <p style=""font-size: 20px; font-weight: bold; margin: 0;"">Is there a person in this image?</p>
                    </div>
                </div>","0","main_experiment_trial","ten","coin_causal","causal_sequence","","","","",""
"","","","","","html-keyboard-response","58","204749","0.0-58.0","69E224AC94954D30B88BC026C37212CC","019cf0df-891f-7dc5-be19-bfd826317c54","019cf037-5203-781a-b900-108ccb1cab86","","null","<div style=""background-color: white; width: 100vw; height: 100vh;""></div>","null","","","","","","","","",""
"","","","","","html-keyboard-response","59","209752","0.0-59.0","69E224AC94954D30B88BC026C37212CC","019cf0df-891f-7dc5-be19-bfd826317c54","019cf037-5203-781a-b900-108ccb1cab86","","null","
                <div class=""stimulus-container"">
                    <img src=""images/schematic_sequence/flight_scheme/flight_scheme_1.png"" class=""exp-image"">
                    <div class=""question-area""></div> 
                </div>","null","","","","","","","","",""
"","","","","","html-button-response","60","211858","0.0-60.0","69E224AC94954D30B88BC026C37212CC","019cf0df-891f-7dc5-be19-bfd826317c54","019cf037-5203-781a-b900-108ccb1cab86","","2105","
                <div class=""stimulus-container"">
                    <img src=""images/schematic_sequence/flight_scheme/flight_scheme_1.png"" class=""exp-image"">
                    <div class=""question-area"">
                        <p style=""font-size: 20px; font-weight: bold; margin: 0;"">Is there a person in this image?</p>
                    </div>
                </div>","0","main_experiment_trial","1","flight_scheme","schematic_sequence","","","","",""
"","","","","","html-keyboard-response","61","216869","0.0-61.0","69E224AC94954D30B88BC026C37212CC","019cf0df-891f-7dc5-be19-bfd826317c54","019cf037-5203-781a-b900-108ccb1cab86","","null","
                <div class=""stimulus-container"">
                    <img src=""images/schematic_sequence/flight_scheme/flight_scheme_2.png"" class=""exp-image"">
                    <div class=""question-area""></div> 
                </div>","null","","","","","","","","",""
"","","","","","html-button-response","62","218502","0.0-62.0","69E224AC94954D30B88BC026C37212CC","019cf0df-891f-7dc5-be19-bfd826317c54","019cf037-5203-781a-b900-108ccb1cab86","","1633","
                <div class=""stimulus-container"">
                    <img src=""images/schematic_sequence/flight_scheme/flight_scheme_2.png"" class=""exp-image"">
                    <div class=""question-area"">
                        <p style=""font-size: 20px; font-weight: bold; margin: 0;"">Is there a person in this image?</p>
                    </div>
                </div>","1","main_experiment_trial","2","flight_scheme","schematic_sequence","","","","",""
"","","","","","html-keyboard-response","63","223515","0.0-63.0","69E224AC94954D30B88BC026C37212CC","019cf0df-891f-7dc5-be19-bfd826317c54","019cf037-5203-781a-b900-108ccb1cab86","","null","
                <div class=""stimulus-container"">
                    <img src=""images/schematic_sequence/flight_scheme/flight_scheme_3.png"" class=""exp-image"">
                    <div class=""question-area""></div> 
                </div>","null","","","","","","","","",""
"","","","","","html-button-response","64","224111","0.0-64.0","69E224AC94954D30B88BC026C37212CC","019cf0df-891f-7dc5-be19-bfd826317c54","019cf037-5203-781a-b900-108ccb1cab86","","595","
                <div class=""stimulus-container"">
                    <img src=""images/schematic_sequence/flight_scheme/flight_scheme_3.png"" class=""exp-image"">
                    <div class=""question-area"">
                        <p style=""font-size: 20px; font-weight: bold; margin: 0;"">Is there a person in this image?</p>
                    </div>
                </div>","0","main_experiment_trial","3","flight_scheme","schematic_sequence","","","","",""
"","","","","","html-keyboard-response","65","229113","0.0-65.0","69E224AC94954D30B88BC026C37212CC","019cf0df-891f-7dc5-be19-bfd826317c54","019cf037-5203-781a-b900-108ccb1cab86","","null","
                <div class=""stimulus-container"">
                    <img src=""images/schematic_sequence/flight_scheme/flight_scheme_4.png"" class=""exp-image"">
                    <div class=""question-area""></div> 
                </div>","null","","","","","","","","",""
"","","","","","html-button-response","66","230025","0.0-66.0","69E224AC94954D30B88BC026C37212CC","019cf0df-891f-7dc5-be19-bfd826317c54","019cf037-5203-781a-b900-108ccb1cab86","","912","
                <div class=""stimulus-container"">
                    <img src=""images/schematic_sequence/flight_scheme/flight_scheme_4.png"" class=""exp-image"">
                    <div class=""question-area"">
                        <p style=""font-size: 20px; font-weight: bold; margin: 0;"">Is there a person in this image?</p>
                    </div>
                </div>","0","main_experiment_trial","4","flight_scheme","schematic_sequence","","","","",""
"","","","","","html-keyboard-response","67","235040","0.0-67.0","69E224AC94954D30B88BC026C37212CC","019cf0df-891f-7dc5-be19-bfd826317c54","019cf037-5203-781a-b900-108ccb1cab86","","null","
                <div class=""stimulus-container"">
                    <img src=""images/schematic_sequence/flight_scheme/flight_scheme_5.png"" class=""exp-image"">
                    <div class=""question-area""></div> 
                </div>","null","","","","","","","","",""
"","","","","","html-button-response","68","235854","0.0-68.0","69E224AC94954D30B88BC026C37212CC","019cf0df-891f-7dc5-be19-bfd826317c54","019cf037-5203-781a-b900-108ccb1cab86","","812","
                <div class=""stimulus-container"">
                    <img src=""images/schematic_sequence/flight_scheme/flight_scheme_5.png"" class=""exp-image"">
                    <div class=""question-area"">
                        <p style=""font-size: 20px; font-weight: bold; margin: 0;"">Is there a person in this image?</p>
                    </div>
                </div>","0","main_experiment_trial","5","flight_scheme","schematic_sequence","","","","",""
"","","","","","html-keyboard-response","69","240862","0.0-69.0","69E224AC94954D30B88BC026C37212CC","019cf0df-891f-7dc5-be19-bfd826317c54","019cf037-5203-781a-b900-108ccb1cab86","","null","
                <div class=""stimulus-container"">
                    <img src=""images/schematic_sequence/flight_scheme/flight_scheme_6.png"" class=""exp-image"">
                    <div class=""question-area""></div> 
                </div>","null","","","","","","","","",""
"","","","","","html-button-response","70","241847","0.0-70.0","69E224AC94954D30B88BC026C37212CC","019cf0df-891f-7dc5-be19-bfd826317c54","019cf037-5203-781a-b900-108ccb1cab86","","984","
                <div class=""stimulus-container"">
                    <img src=""images/schematic_sequence/flight_scheme/flight_scheme_6.png"" class=""exp-image"">
                    <div class=""question-area"">
                        <p style=""font-size: 20px; font-weight: bold; margin: 0;"">Is there a person in this image?</p>
                    </div>
                </div>","1","main_experiment_trial","6","flight_scheme","schematic_sequence","","","","",""
"","","","","","html-keyboard-response","71","246849","0.0-71.0","69E224AC94954D30B88BC026C37212CC","019cf0df-891f-7dc5-be19-bfd826317c54","019cf037-5203-781a-b900-108ccb1cab86","","null","
                <div class=""stimulus-container"">
                    <img src=""images/schematic_sequence/flight_scheme/flight_scheme_7.png"" class=""exp-image"">
                    <div class=""question-area""></div> 
                </div>","null","","","","","","","","",""
"","","","","","html-button-response","72","249864","0.0-72.0","69E224AC94954D30B88BC026C37212CC","019cf0df-891f-7dc5-be19-bfd826317c54","019cf037-5203-781a-b900-108ccb1cab86","","null","
                <div class=""stimulus-container"">
                    <img src=""images/schematic_sequence/flight_scheme/flight_scheme_7.png"" class=""exp-image"">
                    <div class=""question-area"">
                        <p style=""font-size: 20px; font-weight: bold; margin: 0;"">Is there a person in this image?</p>
                    </div>
                </div>","null","main_experiment_trial","7","flight_scheme","schematic_sequence","","","","",""
"","","","","","html-keyboard-response","73","254867","0.0-73.0","69E224AC94954D30B88BC026C37212CC","019cf0df-891f-7dc5-be19-bfd826317c54","019cf037-5203-781a-b900-108ccb1cab86","","null","
                <div class=""stimulus-container"">
                    <img src=""images/schematic_sequence/flight_scheme/flight_scheme_8.png"" class=""exp-image"">
                    <div class=""question-area""></div> 
                </div>","null","","","","","","","","",""
"","","","","","html-button-response","74","255578","0.0-74.0","69E224AC94954D30B88BC026C37212CC","019cf0df-891f-7dc5-be19-bfd826317c54","019cf037-5203-781a-b900-108ccb1cab86","","710","
                <div class=""stimulus-container"">
                    <img src=""images/schematic_sequence/flight_scheme/flight_scheme_8.png"" class=""exp-image"">
                    <div class=""question-area"">
                        <p style=""font-size: 20px; font-weight: bold; margin: 0;"">Is there a person in this image?</p>
                    </div>
                </div>","1","main_experiment_trial","8","flight_scheme","schematic_sequence","","","","",""
"","","","","","html-keyboard-response","75","260592","0.0-75.0","69E224AC94954D30B88BC026C37212CC","019cf0df-891f-7dc5-be19-bfd826317c54","019cf037-5203-781a-b900-108ccb1cab86","","null","
                <div class=""stimulus-container"">
                    <img src=""images/schematic_sequence/flight_scheme/flight_scheme_9.png"" class=""exp-image"">
                    <div class=""question-area""></div> 
                </div>","null","","","","","","","","",""
"","","","","","html-button-response","76","263597","0.0-76.0","69E224AC94954D30B88BC026C37212CC","019cf0df-891f-7dc5-be19-bfd826317c54","019cf037-5203-781a-b900-108ccb1cab86","","null","
                <div class=""stimulus-container"">
                    <img src=""images/schematic_sequence/flight_scheme/flight_scheme_9.png"" class=""exp-image"">
                    <div class=""question-area"">
                        <p style=""font-size: 20px; font-weight: bold; margin: 0;"">Is there a person in this image?</p>
                    </div>
                </div>","null","main_experiment_trial","9","flight_scheme","schematic_sequence","","","","",""
"","","","","","html-keyboard-response","77","268604","0.0-77.0","69E224AC94954D30B88BC026C37212CC","019cf0df-891f-7dc5-be19-bfd826317c54","019cf037-5203-781a-b900-108ccb1cab86","","null","
                <div class=""stimulus-container"">
                    <img src=""images/schematic_sequence/flight_scheme/flight_scheme_ten.png"" class=""exp-image"">
                    <div class=""question-area""></div> 
                </div>","null","","","","","","","","",""
"","","","","","html-button-response","78","269182","0.0-78.0","69E224AC94954D30B88BC026C37212CC","019cf0df-891f-7dc5-be19-bfd826317c54","019cf037-5203-781a-b900-108ccb1cab86","","576","
                <div class=""stimulus-container"">
                    <img src=""images/schematic_sequence/flight_scheme/flight_scheme_ten.png"" class=""exp-image"">
                    <div class=""question-area"">
                        <p style=""font-size: 20px; font-weight: bold; margin: 0;"">Is there a person in this image?</p>
                    </div>
                </div>","0","main_experiment_trial","ten","flight_scheme","schematic_sequence","","","","",""
"","","","","","html-keyboard-response","79","270198","0.0-79.0","69E224AC94954D30B88BC026C37212CC","019cf0df-891f-7dc5-be19-bfd826317c54","019cf037-5203-781a-b900-108ccb1cab86","","null","<div style=""background-color: white; width: 100vw; height: 100vh;""></div>","null","","","","","","","","",""
"","","","","","html-keyboard-response","80","275204","0.0-80.0","69E224AC94954D30B88BC026C37212CC","019cf0df-891f-7dc5-be19-bfd826317c54","019cf037-5203-781a-b900-108ccb1cab86","","null","
                <div class=""stimulus-container"">
                    <img src=""images/schematic_sequence/hotel_scheme/hotel_scheme_1.png"" class=""exp-image"">
                    <div class=""question-area""></div> 
                </div>","null","","","","","","","","",""
"","","","","","html-button-response","81","278219","0.0-81.0","69E224AC94954D30B88BC026C37212CC","019cf0df-891f-7dc5-be19-bfd826317c54","019cf037-5203-781a-b900-108ccb1cab86","","null","
                <div class=""stimulus-container"">
                    <img src=""images/schematic_sequence/hotel_scheme/hotel_scheme_1.png"" class=""exp-image"">
                    <div class=""question-area"">
                        <p style=""font-size: 20px; font-weight: bold; margin: 0;"">Is there a person in this image?</p>
                    </div>
                </div>","null","main_experiment_trial","1","hotel_scheme","schematic_sequence","","","","",""
"","","","","","html-keyboard-response","82","283222","0.0-82.0","69E224AC94954D30B88BC026C37212CC","019cf0df-891f-7dc5-be19-bfd826317c54","019cf037-5203-781a-b900-108ccb1cab86","","null","
                <div class=""stimulus-container"">
                    <img src=""images/schematic_sequence/hotel_scheme/hotel_scheme_2.png"" class=""exp-image"">
                    <div class=""question-area""></div> 
                </div>","null","","","","","","","","",""
"","","","","","html-button-response","83","283835","0.0-83.0","69E224AC94954D30B88BC026C37212CC","019cf0df-891f-7dc5-be19-bfd826317c54","019cf037-5203-781a-b900-108ccb1cab86","","611","
                <div class=""stimulus-container"">
                    <img src=""images/schematic_sequence/hotel_scheme/hotel_scheme_2.png"" class=""exp-image"">
                    <div class=""question-area"">
                        <p style=""font-size: 20px; font-weight: bold; margin: 0;"">Is there a person in this image?</p>
                    </div>
                </div>","0","main_experiment_trial","2","hotel_scheme","schematic_sequence","","","","",""
"","","","","","html-keyboard-response","84","288846","0.0-84.0","69E224AC94954D30B88BC026C37212CC","019cf0df-891f-7dc5-be19-bfd826317c54","019cf037-5203-781a-b900-108ccb1cab86","","null","
                <div class=""stimulus-container"">
                    <img src=""images/schematic_sequence/hotel_scheme/hotel_scheme_3.png"" class=""exp-image"">
                    <div class=""question-area""></div> 
                </div>","null","","","","","","","","",""
"","","","","","html-button-response","85","289467","0.0-85.0","69E224AC94954D30B88BC026C37212CC","019cf0df-891f-7dc5-be19-bfd826317c54","019cf037-5203-781a-b900-108ccb1cab86","","619","
                <div class=""stimulus-container"">
                    <img src=""images/schematic_sequence/hotel_scheme/hotel_scheme_3.png"" class=""exp-image"">
                    <div class=""question-area"">
                        <p style=""font-size: 20px; font-weight: bold; margin: 0;"">Is there a person in this image?</p>
                    </div>
                </div>","0","main_experiment_trial","3","hotel_scheme","schematic_sequence","","","","",""
"","","","","","html-keyboard-response","86","294474","0.0-86.0","69E224AC94954D30B88BC026C37212CC","019cf0df-891f-7dc5-be19-bfd826317c54","019cf037-5203-781a-b900-108ccb1cab86","","null","
                <div class=""stimulus-container"">
                    <img src=""images/schematic_sequence/hotel_scheme/hotel_scheme_4.png"" class=""exp-image"">
                    <div class=""question-area""></div> 
                </div>","null","","","","","","","","",""
"","","","","","html-button-response","87","297007","0.0-87.0","69E224AC94954D30B88BC026C37212CC","019cf0df-891f-7dc5-be19-bfd826317c54","019cf037-5203-781a-b900-108ccb1cab86","","2532","
                <div class=""stimulus-container"">
                    <img src=""images/schematic_sequence/hotel_scheme/hotel_scheme_4.png"" class=""exp-image"">
                    <div class=""question-area"">
                        <p style=""font-size: 20px; font-weight: bold; margin: 0;"">Is there a person in this image?</p>
                    </div>
                </div>","1","main_experiment_trial","4","hotel_scheme","schematic_sequence","","","","",""
"","","","","","html-keyboard-response","88","302008","0.0-88.0","69E224AC94954D30B88BC026C37212CC","019cf0df-891f-7dc5-be19-bfd826317c54","019cf037-5203-781a-b900-108ccb1cab86","","null","
                <div class=""stimulus-container"">
                    <img src=""images/schematic_sequence/hotel_scheme/hotel_scheme_5.png"" class=""exp-image"">
                    <div class=""question-area""></div> 
                </div>","null","","","","","","","","",""
"","","","","","html-button-response","89","302581","0.0-89.0","69E224AC94954D30B88BC026C37212CC","019cf0df-891f-7dc5-be19-bfd826317c54","019cf037-5203-781a-b900-108ccb1cab86","","572","
                <div class=""stimulus-container"">
                    <img src=""images/schematic_sequence/hotel_scheme/hotel_scheme_5.png"" class=""exp-image"">
                    <div class=""question-area"">
                        <p style=""font-size: 20px; font-weight: bold; margin: 0;"">Is there a person in this image?</p>
                    </div>
                </div>","0","main_experiment_trial","5","hotel_scheme","schematic_sequence","","","","",""
"","","","","","html-keyboard-response","90","307587","0.0-90.0","69E224AC94954D30B88BC026C37212CC","019cf0df-891f-7dc5-be19-bfd826317c54","019cf037-5203-781a-b900-108ccb1cab86","","null","
                <div class=""stimulus-container"">
                    <img src=""images/schematic_sequence/hotel_scheme/hotel_scheme_6.png"" class=""exp-image"">
                    <div class=""question-area""></div> 
                </div>","null","","","","","","","","",""
"","","","","","html-button-response","91","309360","0.0-91.0","69E224AC94954D30B88BC026C37212CC","019cf0df-891f-7dc5-be19-bfd826317c54","019cf037-5203-781a-b900-108ccb1cab86","","1771","
                <div class=""stimulus-container"">
                    <img src=""images/schematic_sequence/hotel_scheme/hotel_scheme_6.png"" class=""exp-image"">
                    <div class=""question-area"">
                        <p style=""font-size: 20px; font-weight: bold; margin: 0;"">Is there a person in this image?</p>
                    </div>
                </div>","0","main_experiment_trial","6","hotel_scheme","schematic_sequence","","","","",""
"","","","","","html-keyboard-response","92","314376","0.0-92.0","69E224AC94954D30B88BC026C37212CC","019cf0df-891f-7dc5-be19-bfd826317c54","019cf037-5203-781a-b900-108ccb1cab86","","null","
                <div class=""stimulus-container"">
                    <img src=""images/schematic_sequence/hotel_scheme/hotel_scheme_7.png"" class=""exp-image"">
                    <div class=""question-area""></div> 
                </div>","null","","","","","","","","",""
"","","","","","html-button-response","93","314826","0.0-93.0","69E224AC94954D30B88BC026C37212CC","019cf0df-891f-7dc5-be19-bfd826317c54","019cf037-5203-781a-b900-108ccb1cab86","","449","
                <div class=""stimulus-container"">
                    <img src=""images/schematic_sequence/hotel_scheme/hotel_scheme_7.png"" class=""exp-image"">
                    <div class=""question-area"">
                        <p style=""font-size: 20px; font-weight: bold; margin: 0;"">Is there a person in this image?</p>
                    </div>
                </div>","0","main_experiment_trial","7","hotel_scheme","schematic_sequence","","","","",""
"","","","","","html-keyboard-response","94","319835","0.0-94.0","69E224AC94954D30B88BC026C37212CC","019cf0df-891f-7dc5-be19-bfd826317c54","019cf037-5203-781a-b900-108ccb1cab86","","null","
                <div class=""stimulus-container"">
                    <img src=""images/schematic_sequence/hotel_scheme/hotel_scheme_8.png"" class=""exp-image"">
                    <div class=""question-area""></div> 
                </div>","null","","","","","","","","",""
"","","","","","html-button-response","95","320288","0.0-95.0","69E224AC94954D30B88BC026C37212CC","019cf0df-891f-7dc5-be19-bfd826317c54","019cf037-5203-781a-b900-108ccb1cab86","","452","
                <div class=""stimulus-container"">
                    <img src=""images/schematic_sequence/hotel_scheme/hotel_scheme_8.png"" class=""exp-image"">
                    <div class=""question-area"">
                        <p style=""font-size: 20px; font-weight: bold; margin: 0;"">Is there a person in this image?</p>
                    </div>
                </div>","0","main_experiment_trial","8","hotel_scheme","schematic_sequence","","","","",""
"","","","","","html-keyboard-response","96","325291","0.0-96.0","69E224AC94954D30B88BC026C37212CC","019cf0df-891f-7dc5-be19-bfd826317c54","019cf037-5203-781a-b900-108ccb1cab86","","null","
                <div class=""stimulus-container"">
                    <img src=""images/schematic_sequence/hotel_scheme/hotel_scheme_9.png"" class=""exp-image"">
                    <div class=""question-area""></div> 
                </div>","null","","","","","","","","",""
"","","","","","html-button-response","97","325776","0.0-97.0","69E224AC94954D30B88BC026C37212CC","019cf0df-891f-7dc5-be19-bfd826317c54","019cf037-5203-781a-b900-108ccb1cab86","","484","
                <div class=""stimulus-container"">
                    <img src=""images/schematic_sequence/hotel_scheme/hotel_scheme_9.png"" class=""exp-image"">
                    <div class=""question-area"">
                        <p style=""font-size: 20px; font-weight: bold; margin: 0;"">Is there a person in this image?</p>
                    </div>
                </div>","0","main_experiment_trial","9","hotel_scheme","schematic_sequence","","","","",""
"","","","","","html-keyboard-response","98","330791","0.0-98.0","69E224AC94954D30B88BC026C37212CC","019cf0df-891f-7dc5-be19-bfd826317c54","019cf037-5203-781a-b900-108ccb1cab86","","null","
                <div class=""stimulus-container"">
                    <img src=""images/schematic_sequence/hotel_scheme/hotel_scheme_ten.png"" class=""exp-image"">
                    <div class=""question-area""></div> 
                </div>","null","","","","","","","","",""
"","","","","","html-button-response","99","331244","0.0-99.0","69E224AC94954D30B88BC026C37212CC","019cf0df-891f-7dc5-be19-bfd826317c54","019cf037-5203-781a-b900-108ccb1cab86","","451","
                <div class=""stimulus-container"">
                    <img src=""images/schematic_sequence/hotel_scheme/hotel_scheme_ten.png"" class=""exp-image"">
                    <div class=""question-area"">
                        <p style=""font-size: 20px; font-weight: bold; margin: 0;"">Is there a person in this image?</p>
                    </div>
                </div>","0","main_experiment_trial","ten","hotel_scheme","schematic_sequence","","","","",""
"","","","","","html-keyboard-response","100","332250","0.0-100.0","69E224AC94954D30B88BC026C37212CC","019cf0df-891f-7dc5-be19-bfd826317c54","019cf037-5203-781a-b900-108ccb1cab86","","null","<div style=""background-color: white; width: 100vw; height: 100vh;""></div>","null","","","","","","","","",""
"","","","","","html-keyboard-response","101","337263","0.0-101.0","69E224AC94954D30B88BC026C37212CC","019cf0df-891f-7dc5-be19-bfd826317c54","019cf037-5203-781a-b900-108ccb1cab86","","null","
                <div class=""stimulus-container"">
                    <img src=""images/schematic_sequence/supermarket_scheme/supermarket_scheme_1.png"" class=""exp-image"">
                    <div class=""question-area""></div> 
                </div>","null","","","","","","","","",""
"","","","","","html-button-response","102","338136","0.0-102.0","69E224AC94954D30B88BC026C37212CC","019cf0df-891f-7dc5-be19-bfd826317c54","019cf037-5203-781a-b900-108ccb1cab86","","871","
                <div class=""stimulus-container"">
                    <img src=""images/schematic_sequence/supermarket_scheme/supermarket_scheme_1.png"" class=""exp-image"">
                    <div class=""question-area"">
                        <p style=""font-size: 20px; font-weight: bold; margin: 0;"">Is there a person in this image?</p>
                    </div>
                </div>","1","main_experiment_trial","1","supermarket_scheme","schematic_sequence","","","","",""
"","","","","","html-keyboard-response","103","343137","0.0-103.0","69E224AC94954D30B88BC026C37212CC","019cf0df-891f-7dc5-be19-bfd826317c54","019cf037-5203-781a-b900-108ccb1cab86","","null","
                <div class=""stimulus-container"">
                    <img src=""images/schematic_sequence/supermarket_scheme/supermarket_scheme_2.png"" class=""exp-image"">
                    <div class=""question-area""></div> 
                </div>","null","","","","","","","","",""
"","","","","","html-button-response","104","346145","0.0-104.0","69E224AC94954D30B88BC026C37212CC","019cf0df-891f-7dc5-be19-bfd826317c54","019cf037-5203-781a-b900-108ccb1cab86","","null","
                <div class=""stimulus-container"">
                    <img src=""images/schematic_sequence/supermarket_scheme/supermarket_scheme_2.png"" class=""exp-image"">
                    <div class=""question-area"">
                        <p style=""font-size: 20px; font-weight: bold; margin: 0;"">Is there a person in this image?</p>
                    </div>
                </div>","null","main_experiment_trial","2","supermarket_scheme","schematic_sequence","","","","",""
"","","","","","html-keyboard-response","105","351153","0.0-105.0","69E224AC94954D30B88BC026C37212CC","019cf0df-891f-7dc5-be19-bfd826317c54","019cf037-5203-781a-b900-108ccb1cab86","","null","
                <div class=""stimulus-container"">
                    <img src=""images/schematic_sequence/supermarket_scheme/supermarket_scheme_3.png"" class=""exp-image"">
                    <div class=""question-area""></div> 
                </div>","null","","","","","","","","",""
"","","","","","html-button-response","106","351968","0.0-106.0","69E224AC94954D30B88BC026C37212CC","019cf0df-891f-7dc5-be19-bfd826317c54","019cf037-5203-781a-b900-108ccb1cab86","","814","
                <div class=""stimulus-container"">
                    <img src=""images/schematic_sequence/supermarket_scheme/supermarket_scheme_3.png"" class=""exp-image"">
                    <div class=""question-area"">
                        <p style=""font-size: 20px; font-weight: bold; margin: 0;"">Is there a person in this image?</p>
                    </div>
                </div>","1","main_experiment_trial","3","supermarket_scheme","schematic_sequence","","","","",""
"","","","","","html-keyboard-response","107","356981","0.0-107.0","69E224AC94954D30B88BC026C37212CC","019cf0df-891f-7dc5-be19-bfd826317c54","019cf037-5203-781a-b900-108ccb1cab86","","null","
                <div class=""stimulus-container"">
                    <img src=""images/schematic_sequence/supermarket_scheme/supermarket_scheme_4.png"" class=""exp-image"">
                    <div class=""question-area""></div> 
                </div>","null","","","","","","","","",""
"","","","","","html-button-response","108","358264","0.0-108.0","69E224AC94954D30B88BC026C37212CC","019cf0df-891f-7dc5-be19-bfd826317c54","019cf037-5203-781a-b900-108ccb1cab86","","1281","
                <div class=""stimulus-container"">
                    <img src=""images/schematic_sequence/supermarket_scheme/supermarket_scheme_4.png"" class=""exp-image"">
                    <div class=""question-area"">
                        <p style=""font-size: 20px; font-weight: bold; margin: 0;"">Is there a person in this image?</p>
                    </div>
                </div>","0","main_experiment_trial","4","supermarket_scheme","schematic_sequence","","","","",""
"","","","","","html-keyboard-response","109","363279","0.0-109.0","69E224AC94954D30B88BC026C37212CC","019cf0df-891f-7dc5-be19-bfd826317c54","019cf037-5203-781a-b900-108ccb1cab86","","null","
                <div class=""stimulus-container"">
                    <img src=""images/schematic_sequence/supermarket_scheme/supermarket_scheme_5.png"" class=""exp-image"">
                    <div class=""question-area""></div> 
                </div>","null","","","","","","","","",""
"","","","","","html-button-response","110","365435","0.0-110.0","69E224AC94954D30B88BC026C37212CC","019cf0df-891f-7dc5-be19-bfd826317c54","019cf037-5203-781a-b900-108ccb1cab86","","2155","
                <div class=""stimulus-container"">
                    <img src=""images/schematic_sequence/supermarket_scheme/supermarket_scheme_5.png"" class=""exp-image"">
                    <div class=""question-area"">
                        <p style=""font-size: 20px; font-weight: bold; margin: 0;"">Is there a person in this image?</p>
                    </div>
                </div>","1","main_experiment_trial","5","supermarket_scheme","schematic_sequence","","","","",""
"","","","","","html-keyboard-response","111","370436","0.0-111.0","69E224AC94954D30B88BC026C37212CC","019cf0df-891f-7dc5-be19-bfd826317c54","019cf037-5203-781a-b900-108ccb1cab86","","null","
                <div class=""stimulus-container"">
                    <img src=""images/schematic_sequence/supermarket_scheme/supermarket_scheme_6.png"" class=""exp-image"">
                    <div class=""question-area""></div> 
                </div>","null","","","","","","","","",""
"","","","","","html-button-response","112","371101","0.0-112.0","69E224AC94954D30B88BC026C37212CC","019cf0df-891f-7dc5-be19-bfd826317c54","019cf037-5203-781a-b900-108ccb1cab86","","664","
                <div class=""stimulus-container"">
                    <img src=""images/schematic_sequence/supermarket_scheme/supermarket_scheme_6.png"" class=""exp-image"">
                    <div class=""question-area"">
                        <p style=""font-size: 20px; font-weight: bold; margin: 0;"">Is there a person in this image?</p>
                    </div>
                </div>","0","main_experiment_trial","6","supermarket_scheme","schematic_sequence","","","","",""
"","","","","","html-keyboard-response","113","376118","0.0-113.0","69E224AC94954D30B88BC026C37212CC","019cf0df-891f-7dc5-be19-bfd826317c54","019cf037-5203-781a-b900-108ccb1cab86","","null","
                <div class=""stimulus-container"">
                    <img src=""images/schematic_sequence/supermarket_scheme/supermarket_scheme_7.png"" class=""exp-image"">
                    <div class=""question-area""></div> 
                </div>","null","","","","","","","","",""
"","","","","","html-button-response","114","376721","0.0-114.0","69E224AC94954D30B88BC026C37212CC","019cf0df-891f-7dc5-be19-bfd826317c54","019cf037-5203-781a-b900-108ccb1cab86","","602","
                <div class=""stimulus-container"">
                    <img src=""images/schematic_sequence/supermarket_scheme/supermarket_scheme_7.png"" class=""exp-image"">
                    <div class=""question-area"">
                        <p style=""font-size: 20px; font-weight: bold; margin: 0;"">Is there a person in this image?</p>
                    </div>
                </div>","0","main_experiment_trial","7","supermarket_scheme","schematic_sequence","","","","",""
"","","","","","html-keyboard-response","115","381728","0.0-115.0","69E224AC94954D30B88BC026C37212CC","019cf0df-891f-7dc5-be19-bfd826317c54","019cf037-5203-781a-b900-108ccb1cab86","","null","
                <div class=""stimulus-container"">
                    <img src=""images/schematic_sequence/supermarket_scheme/supermarket_scheme_8.png"" class=""exp-image"">
                    <div class=""question-area""></div> 
                </div>","null","","","","","","","","",""
"","","","","","html-button-response","116","382189","0.0-116.0","69E224AC94954D30B88BC026C37212CC","019cf0df-891f-7dc5-be19-bfd826317c54","019cf037-5203-781a-b900-108ccb1cab86","","460","
                <div class=""stimulus-container"">
                    <img src=""images/schematic_sequence/supermarket_scheme/supermarket_scheme_8.png"" class=""exp-image"">
                    <div class=""question-area"">
                        <p style=""font-size: 20px; font-weight: bold; margin: 0;"">Is there a person in this image?</p>
                    </div>
                </div>","0","main_experiment_trial","8","supermarket_scheme","schematic_sequence","","","","",""
"","","","","","html-keyboard-response","117","387204","0.0-117.0","69E224AC94954D30B88BC026C37212CC","019cf0df-891f-7dc5-be19-bfd826317c54","019cf037-5203-781a-b900-108ccb1cab86","","null","
                <div class=""stimulus-container"">
                    <img src=""images/schematic_sequence/supermarket_scheme/supermarket_scheme_9.png"" class=""exp-image"">
                    <div class=""question-area""></div> 
                </div>","null","","","","","","","","",""
"","","","","","html-button-response","118","387754","0.0-118.0","69E224AC94954D30B88BC026C37212CC","019cf0df-891f-7dc5-be19-bfd826317c54","019cf037-5203-781a-b900-108ccb1cab86","","550","
                <div class=""stimulus-container"">
                    <img src=""images/schematic_sequence/supermarket_scheme/supermarket_scheme_9.png"" class=""exp-image"">
                    <div class=""question-area"">
                        <p style=""font-size: 20px; font-weight: bold; margin: 0;"">Is there a person in this image?</p>
                    </div>
                </div>","0","main_experiment_trial","9","supermarket_scheme","schematic_sequence","","","","",""
"","","","","","html-keyboard-response","119","392760","0.0-119.0","69E224AC94954D30B88BC026C37212CC","019cf0df-891f-7dc5-be19-bfd826317c54","019cf037-5203-781a-b900-108ccb1cab86","","null","
                <div class=""stimulus-container"">
                    <img src=""images/schematic_sequence/supermarket_scheme/supermarket_scheme_ten.png"" class=""exp-image"">
                    <div class=""question-area""></div> 
                </div>","null","","","","","","","","",""
"","","","","","html-button-response","120","393496","0.0-120.0","69E224AC94954D30B88BC026C37212CC","019cf0df-891f-7dc5-be19-bfd826317c54","019cf037-5203-781a-b900-108ccb1cab86","","736","
                <div class=""stimulus-container"">
                    <img src=""images/schematic_sequence/supermarket_scheme/supermarket_scheme_ten.png"" class=""exp-image"">
                    <div class=""question-area"">
                        <p style=""font-size: 20px; font-weight: bold; margin: 0;"">Is there a person in this image?</p>
                    </div>
                </div>","1","main_experiment_trial","ten","supermarket_scheme","schematic_sequence","","","","",""
"","","","","","html-keyboard-response","121","394506","0.0-121.0","69E224AC94954D30B88BC026C37212CC","019cf0df-891f-7dc5-be19-bfd826317c54","019cf037-5203-781a-b900-108ccb1cab86","","null","<div style=""background-color: white; width: 100vw; height: 100vh;""></div>","null","","","","","","","","",""
"","","","","","html-keyboard-response","122","399514","0.0-122.0","69E224AC94954D30B88BC026C37212CC","019cf0df-891f-7dc5-be19-bfd826317c54","019cf037-5203-781a-b900-108ccb1cab86","","null","
                <div class=""stimulus-container"">
                    <img src=""images/schematic_sequence/interview_scheme/interview_scheme_1.png"" class=""exp-image"">
                    <div class=""question-area""></div> 
                </div>","null","","","","","","","","",""
"","","","","","html-button-response","123","400606","0.0-123.0","69E224AC94954D30B88BC026C37212CC","019cf0df-891f-7dc5-be19-bfd826317c54","019cf037-5203-781a-b900-108ccb1cab86","","1091","
                <div class=""stimulus-container"">
                    <img src=""images/schematic_sequence/interview_scheme/interview_scheme_1.png"" class=""exp-image"">
                    <div class=""question-area"">
                        <p style=""font-size: 20px; font-weight: bold; margin: 0;"">Is there a person in this image?</p>
                    </div>
                </div>","1","main_experiment_trial","1","interview_scheme","schematic_sequence","","","","",""
"","","","","","html-keyboard-response","124","405611","0.0-124.0","69E224AC94954D30B88BC026C37212CC","019cf0df-891f-7dc5-be19-bfd826317c54","019cf037-5203-781a-b900-108ccb1cab86","","null","
                <div class=""stimulus-container"">
                    <img src=""images/schematic_sequence/interview_scheme/interview_scheme_2.png"" class=""exp-image"">
                    <div class=""question-area""></div> 
                </div>","null","","","","","","","","",""
"","","","","","html-button-response","125","406091","0.0-125.0","69E224AC94954D30B88BC026C37212CC","019cf0df-891f-7dc5-be19-bfd826317c54","019cf037-5203-781a-b900-108ccb1cab86","","479","
                <div class=""stimulus-container"">
                    <img src=""images/schematic_sequence/interview_scheme/interview_scheme_2.png"" class=""exp-image"">
                    <div class=""question-area"">
                        <p style=""font-size: 20px; font-weight: bold; margin: 0;"">Is there a person in this image?</p>
                    </div>
                </div>","0","main_experiment_trial","2","interview_scheme","schematic_sequence","","","","",""
"","","","","","html-keyboard-response","126","411094","0.0-126.0","69E224AC94954D30B88BC026C37212CC","019cf0df-891f-7dc5-be19-bfd826317c54","019cf037-5203-781a-b900-108ccb1cab86","","null","
                <div class=""stimulus-container"">
                    <img src=""images/schematic_sequence/interview_scheme/interview_scheme_3.png"" class=""exp-image"">
                    <div class=""question-area""></div> 
                </div>","null","","","","","","","","",""
"","","","","","html-button-response","127","411643","0.0-127.0","69E224AC94954D30B88BC026C37212CC","019cf0df-891f-7dc5-be19-bfd826317c54","019cf037-5203-781a-b900-108ccb1cab86","","548","
                <div class=""stimulus-container"">
                    <img src=""images/schematic_sequence/interview_scheme/interview_scheme_3.png"" class=""exp-image"">
                    <div class=""question-area"">
                        <p style=""font-size: 20px; font-weight: bold; margin: 0;"">Is there a person in this image?</p>
                    </div>
                </div>","1","main_experiment_trial","3","interview_scheme","schematic_sequence","","","","",""
"","","","","","html-keyboard-response","128","416647","0.0-128.0","69E224AC94954D30B88BC026C37212CC","019cf0df-891f-7dc5-be19-bfd826317c54","019cf037-5203-781a-b900-108ccb1cab86","","null","
                <div class=""stimulus-container"">
                    <img src=""images/schematic_sequence/interview_scheme/interview_scheme_4.png"" class=""exp-image"">
                    <div class=""question-area""></div> 
                </div>","null","","","","","","","","",""
"","","","","","html-button-response","129","417496","0.0-129.0","69E224AC94954D30B88BC026C37212CC","019cf0df-891f-7dc5-be19-bfd826317c54","019cf037-5203-781a-b900-108ccb1cab86","","848","
                <div class=""stimulus-container"">
                    <img src=""images/schematic_sequence/interview_scheme/interview_scheme_4.png"" class=""exp-image"">
                    <div class=""question-area"">
                        <p style=""font-size: 20px; font-weight: bold; margin: 0;"">Is there a person in this image?</p>
                    </div>
                </div>","1","main_experiment_trial","4","interview_scheme","schematic_sequence","","","","",""
"","","","","","html-keyboard-response","130","422499","0.0-130.0","69E224AC94954D30B88BC026C37212CC","019cf0df-891f-7dc5-be19-bfd826317c54","019cf037-5203-781a-b900-108ccb1cab86","","null","
                <div class=""stimulus-container"">
                    <img src=""images/schematic_sequence/interview_scheme/interview_scheme_5.png"" class=""exp-image"">
                    <div class=""question-area""></div> 
                </div>","null","","","","","","","","",""
"","","","","","html-button-response","131","423015","0.0-131.0","69E224AC94954D30B88BC026C37212CC","019cf0df-891f-7dc5-be19-bfd826317c54","019cf037-5203-781a-b900-108ccb1cab86","","515","
                <div class=""stimulus-container"">
                    <img src=""images/schematic_sequence/interview_scheme/interview_scheme_5.png"" class=""exp-image"">
                    <div class=""question-area"">
                        <p style=""font-size: 20px; font-weight: bold; margin: 0;"">Is there a person in this image?</p>
                    </div>
                </div>","0","main_experiment_trial","5","interview_scheme","schematic_sequence","","","","",""
"","","","","","html-keyboard-response","132","428025","0.0-132.0","69E224AC94954D30B88BC026C37212CC","019cf0df-891f-7dc5-be19-bfd826317c54","019cf037-5203-781a-b900-108ccb1cab86","","null","
                <div class=""stimulus-container"">
                    <img src=""images/schematic_sequence/interview_scheme/interview_scheme_6.png"" class=""exp-image"">
                    <div class=""question-area""></div> 
                </div>","null","","","","","","","","",""
"","","","","","html-button-response","133","428656","0.0-133.0","69E224AC94954D30B88BC026C37212CC","019cf0df-891f-7dc5-be19-bfd826317c54","019cf037-5203-781a-b900-108ccb1cab86","","630","
                <div class=""stimulus-container"">
                    <img src=""images/schematic_sequence/interview_scheme/interview_scheme_6.png"" class=""exp-image"">
                    <div class=""question-area"">
                        <p style=""font-size: 20px; font-weight: bold; margin: 0;"">Is there a person in this image?</p>
                    </div>
                </div>","0","main_experiment_trial","6","interview_scheme","schematic_sequence","","","","",""
"","","","","","html-keyboard-response","134","433660","0.0-134.0","69E224AC94954D30B88BC026C37212CC","019cf0df-891f-7dc5-be19-bfd826317c54","019cf037-5203-781a-b900-108ccb1cab86","","null","
                <div class=""stimulus-container"">
                    <img src=""images/schematic_sequence/interview_scheme/interview_scheme_7.png"" class=""exp-image"">
                    <div class=""question-area""></div> 
                </div>","null","","","","","","","","",""
"","","","","","html-button-response","135","435457","0.0-135.0","69E224AC94954D30B88BC026C37212CC","019cf0df-891f-7dc5-be19-bfd826317c54","019cf037-5203-781a-b900-108ccb1cab86","","1796","
                <div class=""stimulus-container"">
                    <img src=""images/schematic_sequence/interview_scheme/interview_scheme_7.png"" class=""exp-image"">
                    <div class=""question-area"">
                        <p style=""font-size: 20px; font-weight: bold; margin: 0;"">Is there a person in this image?</p>
                    </div>
                </div>","0","main_experiment_trial","7","interview_scheme","schematic_sequence","","","","",""
"","","","","","html-keyboard-response","136","440460","0.0-136.0","69E224AC94954D30B88BC026C37212CC","019cf0df-891f-7dc5-be19-bfd826317c54","019cf037-5203-781a-b900-108ccb1cab86","","null","
                <div class=""stimulus-container"">
                    <img src=""images/schematic_sequence/interview_scheme/interview_scheme_8.png"" class=""exp-image"">
                    <div class=""question-area""></div> 
                </div>","null","","","","","","","","",""
"","","","","","html-button-response","137","440933","0.0-137.0","69E224AC94954D30B88BC026C37212CC","019cf0df-891f-7dc5-be19-bfd826317c54","019cf037-5203-781a-b900-108ccb1cab86","","472","
                <div class=""stimulus-container"">
                    <img src=""images/schematic_sequence/interview_scheme/interview_scheme_8.png"" class=""exp-image"">
                    <div class=""question-area"">
                        <p style=""font-size: 20px; font-weight: bold; margin: 0;"">Is there a person in this image?</p>
                    </div>
                </div>","0","main_experiment_trial","8","interview_scheme","schematic_sequence","","","","",""
"","","","","","html-keyboard-response","138","445946","0.0-138.0","69E224AC94954D30B88BC026C37212CC","019cf0df-891f-7dc5-be19-bfd826317c54","019cf037-5203-781a-b900-108ccb1cab86","","null","
                <div class=""stimulus-container"">
                    <img src=""images/schematic_sequence/interview_scheme/interview_scheme_9.png"" class=""exp-image"">
                    <div class=""question-area""></div> 
                </div>","null","","","","","","","","",""
"","","","","","html-button-response","139","446579","0.0-139.0","69E224AC94954D30B88BC026C37212CC","019cf0df-891f-7dc5-be19-bfd826317c54","019cf037-5203-781a-b900-108ccb1cab86","","632","
                <div class=""stimulus-container"">
                    <img src=""images/schematic_sequence/interview_scheme/interview_scheme_9.png"" class=""exp-image"">
                    <div class=""question-area"">
                        <p style=""font-size: 20px; font-weight: bold; margin: 0;"">Is there a person in this image?</p>
                    </div>
                </div>","0","main_experiment_trial","9","interview_scheme","schematic_sequence","","","","",""
"","","","","","html-keyboard-response","140","451586","0.0-140.0","69E224AC94954D30B88BC026C37212CC","019cf0df-891f-7dc5-be19-bfd826317c54","019cf037-5203-781a-b900-108ccb1cab86","","null","
                <div class=""stimulus-container"">
                    <img src=""images/schematic_sequence/interview_scheme/interview_scheme_ten.png"" class=""exp-image"">
                    <div class=""question-area""></div> 
                </div>","null","","","","","","","","",""
"","","","","","html-button-response","141","452049","0.0-141.0","69E224AC94954D30B88BC026C37212CC","019cf0df-891f-7dc5-be19-bfd826317c54","019cf037-5203-781a-b900-108ccb1cab86","","462","
                <div class=""stimulus-container"">
                    <img src=""images/schematic_sequence/interview_scheme/interview_scheme_ten.png"" class=""exp-image"">
                    <div class=""question-area"">
                        <p style=""font-size: 20px; font-weight: bold; margin: 0;"">Is there a person in this image?</p>
                    </div>
                </div>","0","main_experiment_trial","ten","interview_scheme","schematic_sequence","","","","",""
"","","","","","html-keyboard-response","142","453059","0.0-142.0","69E224AC94954D30B88BC026C37212CC","019cf0df-891f-7dc5-be19-bfd826317c54","019cf037-5203-781a-b900-108ccb1cab86","","null","<div style=""background-color: white; width: 100vw; height: 100vh;""></div>","null","","","","","","","","",""
"","","","","","html-keyboard-response","143","458076","0.0-143.0","69E224AC94954D30B88BC026C37212CC","019cf0df-891f-7dc5-be19-bfd826317c54","019cf037-5203-781a-b900-108ccb1cab86","","null","
                <div class=""stimulus-container"">
                    <img src=""images/schematic_sequence/restaurant_scheme/restaurant_scheme_1.png"" class=""exp-image"">
                    <div class=""question-area""></div> 
                </div>","null","","","","","","","","",""
"","","","","","html-button-response","144","460477","0.0-144.0","69E224AC94954D30B88BC026C37212CC","019cf0df-891f-7dc5-be19-bfd826317c54","019cf037-5203-781a-b900-108ccb1cab86","","2400","
                <div class=""stimulus-container"">
                    <img src=""images/schematic_sequence/restaurant_scheme/restaurant_scheme_1.png"" class=""exp-image"">
                    <div class=""question-area"">
                        <p style=""font-size: 20px; font-weight: bold; margin: 0;"">Is there a person in this image?</p>
                    </div>
                </div>","0","main_experiment_trial","1","restaurant_scheme","schematic_sequence","","","","",""
"","","","","","html-keyboard-response","145","465488","0.0-145.0","69E224AC94954D30B88BC026C37212CC","019cf0df-891f-7dc5-be19-bfd826317c54","019cf037-5203-781a-b900-108ccb1cab86","","null","
                <div class=""stimulus-container"">
                    <img src=""images/schematic_sequence/restaurant_scheme/restaurant_scheme_2.png"" class=""exp-image"">
                    <div class=""question-area""></div> 
                </div>","null","","","","","","","","",""
"","","","","","html-button-response","146","467936","0.0-146.0","69E224AC94954D30B88BC026C37212CC","019cf0df-891f-7dc5-be19-bfd826317c54","019cf037-5203-781a-b900-108ccb1cab86","","2447","
                <div class=""stimulus-container"">
                    <img src=""images/schematic_sequence/restaurant_scheme/restaurant_scheme_2.png"" class=""exp-image"">
                    <div class=""question-area"">
                        <p style=""font-size: 20px; font-weight: bold; margin: 0;"">Is there a person in this image?</p>
                    </div>
                </div>","1","main_experiment_trial","2","restaurant_scheme","schematic_sequence","","","","",""
"","","","","","html-keyboard-response","147","472948","0.0-147.0","69E224AC94954D30B88BC026C37212CC","019cf0df-891f-7dc5-be19-bfd826317c54","019cf037-5203-781a-b900-108ccb1cab86","","null","
                <div class=""stimulus-container"">
                    <img src=""images/schematic_sequence/restaurant_scheme/restaurant_scheme_3.png"" class=""exp-image"">
                    <div class=""question-area""></div> 
                </div>","null","","","","","","","","",""
"","","","","","html-button-response","148","474001","0.0-148.0","69E224AC94954D30B88BC026C37212CC","019cf0df-891f-7dc5-be19-bfd826317c54","019cf037-5203-781a-b900-108ccb1cab86","","1052","
                <div class=""stimulus-container"">
                    <img src=""images/schematic_sequence/restaurant_scheme/restaurant_scheme_3.png"" class=""exp-image"">
                    <div class=""question-area"">
                        <p style=""font-size: 20px; font-weight: bold; margin: 0;"">Is there a person in this image?</p>
                    </div>
                </div>","1","main_experiment_trial","3","restaurant_scheme","schematic_sequence","","","","",""
"","","","","","html-keyboard-response","149","479008","0.0-149.0","69E224AC94954D30B88BC026C37212CC","019cf0df-891f-7dc5-be19-bfd826317c54","019cf037-5203-781a-b900-108ccb1cab86","","null","
                <div class=""stimulus-container"">
                    <img src=""images/schematic_sequence/restaurant_scheme/restaurant_scheme_4.png"" class=""exp-image"">
                    <div class=""question-area""></div> 
                </div>","null","","","","","","","","",""
"","","","","","html-button-response","150","479586","0.0-150.0","69E224AC94954D30B88BC026C37212CC","019cf0df-891f-7dc5-be19-bfd826317c54","019cf037-5203-781a-b900-108ccb1cab86","","576","
                <div class=""stimulus-container"">
                    <img src=""images/schematic_sequence/restaurant_scheme/restaurant_scheme_4.png"" class=""exp-image"">
                    <div class=""question-area"">
                        <p style=""font-size: 20px; font-weight: bold; margin: 0;"">Is there a person in this image?</p>
                    </div>
                </div>","0","main_experiment_trial","4","restaurant_scheme","schematic_sequence","","","","",""
"","","","","","html-keyboard-response","151","484593","0.0-151.0","69E224AC94954D30B88BC026C37212CC","019cf0df-891f-7dc5-be19-bfd826317c54","019cf037-5203-781a-b900-108ccb1cab86","","null","
                <div class=""stimulus-container"">
                    <img src=""images/schematic_sequence/restaurant_scheme/restaurant_scheme_5.png"" class=""exp-image"">
                    <div class=""question-area""></div> 
                </div>","null","","","","","","","","",""
"","","","","","html-button-response","152","485178","0.0-152.0","69E224AC94954D30B88BC026C37212CC","019cf0df-891f-7dc5-be19-bfd826317c54","019cf037-5203-781a-b900-108ccb1cab86","","583","
                <div class=""stimulus-container"">
                    <img src=""images/schematic_sequence/restaurant_scheme/restaurant_scheme_5.png"" class=""exp-image"">
                    <div class=""question-area"">
                        <p style=""font-size: 20px; font-weight: bold; margin: 0;"">Is there a person in this image?</p>
                    </div>
                </div>","0","main_experiment_trial","5","restaurant_scheme","schematic_sequence","","","","",""
"","","","","","html-keyboard-response","153","490189","0.0-153.0","69E224AC94954D30B88BC026C37212CC","019cf0df-891f-7dc5-be19-bfd826317c54","019cf037-5203-781a-b900-108ccb1cab86","","null","
                <div class=""stimulus-container"">
                    <img src=""images/schematic_sequence/restaurant_scheme/restaurant_scheme_6.png"" class=""exp-image"">
                    <div class=""question-area""></div> 
                </div>","null","","","","","","","","",""
"","","","","","html-button-response","154","492535","0.0-154.0","69E224AC94954D30B88BC026C37212CC","019cf0df-891f-7dc5-be19-bfd826317c54","019cf037-5203-781a-b900-108ccb1cab86","","2345","
                <div class=""stimulus-container"">
                    <img src=""images/schematic_sequence/restaurant_scheme/restaurant_scheme_6.png"" class=""exp-image"">
                    <div class=""question-area"">
                        <p style=""font-size: 20px; font-weight: bold; margin: 0;"">Is there a person in this image?</p>
                    </div>
                </div>","1","main_experiment_trial","6","restaurant_scheme","schematic_sequence","","","","",""
"","","","","","html-keyboard-response","155","497536","0.0-155.0","69E224AC94954D30B88BC026C37212CC","019cf0df-891f-7dc5-be19-bfd826317c54","019cf037-5203-781a-b900-108ccb1cab86","","null","
                <div class=""stimulus-container"">
                    <img src=""images/schematic_sequence/restaurant_scheme/restaurant_scheme_7.png"" class=""exp-image"">
                    <div class=""question-area""></div> 
                </div>","null","","","","","","","","",""
"","","","","","html-button-response","156","498012","0.0-156.0","69E224AC94954D30B88BC026C37212CC","019cf0df-891f-7dc5-be19-bfd826317c54","019cf037-5203-781a-b900-108ccb1cab86","","474","
                <div class=""stimulus-container"">
                    <img src=""images/schematic_sequence/restaurant_scheme/restaurant_scheme_7.png"" class=""exp-image"">
                    <div class=""question-area"">
                        <p style=""font-size: 20px; font-weight: bold; margin: 0;"">Is there a person in this image?</p>
                    </div>
                </div>","1","main_experiment_trial","7","restaurant_scheme","schematic_sequence","","","","",""
"","","","","","html-keyboard-response","157","503014","0.0-157.0","69E224AC94954D30B88BC026C37212CC","019cf0df-891f-7dc5-be19-bfd826317c54","019cf037-5203-781a-b900-108ccb1cab86","","null","
                <div class=""stimulus-container"">
                    <img src=""images/schematic_sequence/restaurant_scheme/restaurant_scheme_8.png"" class=""exp-image"">
                    <div class=""question-area""></div> 
                </div>","null","","","","","","","","",""
"","","","","","html-button-response","158","503967","0.0-158.0","69E224AC94954D30B88BC026C37212CC","019cf0df-891f-7dc5-be19-bfd826317c54","019cf037-5203-781a-b900-108ccb1cab86","","952","
                <div class=""stimulus-container"">
                    <img src=""images/schematic_sequence/restaurant_scheme/restaurant_scheme_8.png"" class=""exp-image"">
                    <div class=""question-area"">
                        <p style=""font-size: 20px; font-weight: bold; margin: 0;"">Is there a person in this image?</p>
                    </div>
                </div>","0","main_experiment_trial","8","restaurant_scheme","schematic_sequence","","","","",""
"","","","","","html-keyboard-response","159","508976","0.0-159.0","69E224AC94954D30B88BC026C37212CC","019cf0df-891f-7dc5-be19-bfd826317c54","019cf037-5203-781a-b900-108ccb1cab86","","null","
                <div class=""stimulus-container"">
                    <img src=""images/schematic_sequence/restaurant_scheme/restaurant_scheme_9.png"" class=""exp-image"">
                    <div class=""question-area""></div> 
                </div>","null","","","","","","","","",""
"","","","","","html-button-response","160","510975","0.0-160.0","69E224AC94954D30B88BC026C37212CC","019cf0df-891f-7dc5-be19-bfd826317c54","019cf037-5203-781a-b900-108ccb1cab86","","1998","
                <div class=""stimulus-container"">
                    <img src=""images/schematic_sequence/restaurant_scheme/restaurant_scheme_9.png"" class=""exp-image"">
                    <div class=""question-area"">
                        <p style=""font-size: 20px; font-weight: bold; margin: 0;"">Is there a person in this image?</p>
                    </div>
                </div>","0","main_experiment_trial","9","restaurant_scheme","schematic_sequence","","","","",""
"","","","","","html-keyboard-response","161","515979","0.0-161.0","69E224AC94954D30B88BC026C37212CC","019cf0df-891f-7dc5-be19-bfd826317c54","019cf037-5203-781a-b900-108ccb1cab86","","null","
                <div class=""stimulus-container"">
                    <img src=""images/schematic_sequence/restaurant_scheme/restaurant_scheme_ten.png"" class=""exp-image"">
                    <div class=""question-area""></div> 
                </div>","null","","","","","","","","",""
"","","","","","html-button-response","162","516597","0.0-162.0","69E224AC94954D30B88BC026C37212CC","019cf0df-891f-7dc5-be19-bfd826317c54","019cf037-5203-781a-b900-108ccb1cab86","","616","
                <div class=""stimulus-container"">
                    <img src=""images/schematic_sequence/restaurant_scheme/restaurant_scheme_ten.png"" class=""exp-image"">
                    <div class=""question-area"">
                        <p style=""font-size: 20px; font-weight: bold; margin: 0;"">Is there a person in this image?</p>
                    </div>
                </div>","0","main_experiment_trial","ten","restaurant_scheme","schematic_sequence","","","","",""
"","","","","","html-keyboard-response","163","517599","0.0-163.0","69E224AC94954D30B88BC026C37212CC","019cf0df-891f-7dc5-be19-bfd826317c54","019cf037-5203-781a-b900-108ccb1cab86","","null","<div style=""background-color: white; width: 100vw; height: 100vh;""></div>","null","","","","","","","","",""
"","","","","","html-keyboard-response","164","522609","0.0-164.0","69E224AC94954D30B88BC026C37212CC","019cf0df-891f-7dc5-be19-bfd826317c54","019cf037-5203-781a-b900-108ccb1cab86","","null","
                <div class=""stimulus-container"">
                    <img src=""images/schematic_sequence/dinner_party_scheme/dinner_party_scheme_1.png"" class=""exp-image"">
                    <div class=""question-area""></div> 
                </div>","null","","","","","","","","",""
"","","","","","html-button-response","165","523248","0.0-165.0","69E224AC94954D30B88BC026C37212CC","019cf0df-891f-7dc5-be19-bfd826317c54","019cf037-5203-781a-b900-108ccb1cab86","","637","
                <div class=""stimulus-container"">
                    <img src=""images/schematic_sequence/dinner_party_scheme/dinner_party_scheme_1.png"" class=""exp-image"">
                    <div class=""question-area"">
                        <p style=""font-size: 20px; font-weight: bold; margin: 0;"">Is there a person in this image?</p>
                    </div>
                </div>","0","main_experiment_trial","1","dinner_party_scheme","schematic_sequence","","","","",""
"","","","","","html-keyboard-response","166","528261","0.0-166.0","69E224AC94954D30B88BC026C37212CC","019cf0df-891f-7dc5-be19-bfd826317c54","019cf037-5203-781a-b900-108ccb1cab86","","null","
                <div class=""stimulus-container"">
                    <img src=""images/schematic_sequence/dinner_party_scheme/dinner_party_scheme_2.png"" class=""exp-image"">
                    <div class=""question-area""></div> 
                </div>","null","","","","","","","","",""
"","","","","","html-button-response","167","528728","0.0-167.0","69E224AC94954D30B88BC026C37212CC","019cf0df-891f-7dc5-be19-bfd826317c54","019cf037-5203-781a-b900-108ccb1cab86","","466","
                <div class=""stimulus-container"">
                    <img src=""images/schematic_sequence/dinner_party_scheme/dinner_party_scheme_2.png"" class=""exp-image"">
                    <div class=""question-area"">
                        <p style=""font-size: 20px; font-weight: bold; margin: 0;"">Is there a person in this image?</p>
                    </div>
                </div>","0","main_experiment_trial","2","dinner_party_scheme","schematic_sequence","","","","",""
"","","","","","html-keyboard-response","168","533731","0.0-168.0","69E224AC94954D30B88BC026C37212CC","019cf0df-891f-7dc5-be19-bfd826317c54","019cf037-5203-781a-b900-108ccb1cab86","","null","
                <div class=""stimulus-container"">
                    <img src=""images/schematic_sequence/dinner_party_scheme/dinner_party_scheme_3.png"" class=""exp-image"">
                    <div class=""question-area""></div> 
                </div>","null","","","","","","","","",""
"","","","","","html-button-response","169","534267","0.0-169.0","69E224AC94954D30B88BC026C37212CC","019cf0df-891f-7dc5-be19-bfd826317c54","019cf037-5203-781a-b900-108ccb1cab86","","535","
                <div class=""stimulus-container"">
                    <img src=""images/schematic_sequence/dinner_party_scheme/dinner_party_scheme_3.png"" class=""exp-image"">
                    <div class=""question-area"">
                        <p style=""font-size: 20px; font-weight: bold; margin: 0;"">Is there a person in this image?</p>
                    </div>
                </div>","0","main_experiment_trial","3","dinner_party_scheme","schematic_sequence","","","","",""
"","","","","","html-keyboard-response","170","539268","0.0-170.0","69E224AC94954D30B88BC026C37212CC","019cf0df-891f-7dc5-be19-bfd826317c54","019cf037-5203-781a-b900-108ccb1cab86","","null","
                <div class=""stimulus-container"">
                    <img src=""images/schematic_sequence/dinner_party_scheme/dinner_party_scheme_4.png"" class=""exp-image"">
                    <div class=""question-area""></div> 
                </div>","null","","","","","","","","",""
"","","","","","html-button-response","171","540011","0.0-171.0","69E224AC94954D30B88BC026C37212CC","019cf0df-891f-7dc5-be19-bfd826317c54","019cf037-5203-781a-b900-108ccb1cab86","","741","
                <div class=""stimulus-container"">
                    <img src=""images/schematic_sequence/dinner_party_scheme/dinner_party_scheme_4.png"" class=""exp-image"">
                    <div class=""question-area"">
                        <p style=""font-size: 20px; font-weight: bold; margin: 0;"">Is there a person in this image?</p>
                    </div>
                </div>","0","main_experiment_trial","4","dinner_party_scheme","schematic_sequence","","","","",""
"","","","","","html-keyboard-response","172","545024","0.0-172.0","69E224AC94954D30B88BC026C37212CC","019cf0df-891f-7dc5-be19-bfd826317c54","019cf037-5203-781a-b900-108ccb1cab86","","null","
                <div class=""stimulus-container"">
                    <img src=""images/schematic_sequence/dinner_party_scheme/dinner_party_scheme_5.png"" class=""exp-image"">
                    <div class=""question-area""></div> 
                </div>","null","","","","","","","","",""
"","","","","","html-button-response","173","545619","0.0-173.0","69E224AC94954D30B88BC026C37212CC","019cf0df-891f-7dc5-be19-bfd826317c54","019cf037-5203-781a-b900-108ccb1cab86","","594","
                <div class=""stimulus-container"">
                    <img src=""images/schematic_sequence/dinner_party_scheme/dinner_party_scheme_5.png"" class=""exp-image"">
                    <div class=""question-area"">
                        <p style=""font-size: 20px; font-weight: bold; margin: 0;"">Is there a person in this image?</p>
                    </div>
                </div>","0","main_experiment_trial","5","dinner_party_scheme","schematic_sequence","","","","",""
"","","","","","html-keyboard-response","174","550624","0.0-174.0","69E224AC94954D30B88BC026C37212CC","019cf0df-891f-7dc5-be19-bfd826317c54","019cf037-5203-781a-b900-108ccb1cab86","","null","
                <div class=""stimulus-container"">
                    <img src=""images/schematic_sequence/dinner_party_scheme/dinner_party_scheme_6.png"" class=""exp-image"">
                    <div class=""question-area""></div> 
                </div>","null","","","","","","","","",""
"","","","","","html-button-response","175","551404","0.0-175.0","69E224AC94954D30B88BC026C37212CC","019cf0df-891f-7dc5-be19-bfd826317c54","019cf037-5203-781a-b900-108ccb1cab86","","780","
                <div class=""stimulus-container"">
                    <img src=""images/schematic_sequence/dinner_party_scheme/dinner_party_scheme_6.png"" class=""exp-image"">
                    <div class=""question-area"">
                        <p style=""font-size: 20px; font-weight: bold; margin: 0;"">Is there a person in this image?</p>
                    </div>
                </div>","0","main_experiment_trial","6","dinner_party_scheme","schematic_sequence","","","","",""
"","","","","","html-keyboard-response","176","556418","0.0-176.0","69E224AC94954D30B88BC026C37212CC","019cf0df-891f-7dc5-be19-bfd826317c54","019cf037-5203-781a-b900-108ccb1cab86","","null","
                <div class=""stimulus-container"">
                    <img src=""images/schematic_sequence/dinner_party_scheme/dinner_party_scheme_7.png"" class=""exp-image"">
                    <div class=""question-area""></div> 
                </div>","null","","","","","","","","",""
"","","","","","html-button-response","177","556942","0.0-177.0","69E224AC94954D30B88BC026C37212CC","019cf0df-891f-7dc5-be19-bfd826317c54","019cf037-5203-781a-b900-108ccb1cab86","","523","
                <div class=""stimulus-container"">
                    <img src=""images/schematic_sequence/dinner_party_scheme/dinner_party_scheme_7.png"" class=""exp-image"">
                    <div class=""question-area"">
                        <p style=""font-size: 20px; font-weight: bold; margin: 0;"">Is there a person in this image?</p>
                    </div>
                </div>","0","main_experiment_trial","7","dinner_party_scheme","schematic_sequence","","","","",""
"","","","","","html-keyboard-response","178","561944","0.0-178.0","69E224AC94954D30B88BC026C37212CC","019cf0df-891f-7dc5-be19-bfd826317c54","019cf037-5203-781a-b900-108ccb1cab86","","null","
                <div class=""stimulus-container"">
                    <img src=""images/schematic_sequence/dinner_party_scheme/dinner_party_scheme_8.png"" class=""exp-image"">
                    <div class=""question-area""></div> 
                </div>","null","","","","","","","","",""
"","","","","","html-button-response","179","562440","0.0-179.0","69E224AC94954D30B88BC026C37212CC","019cf0df-891f-7dc5-be19-bfd826317c54","019cf037-5203-781a-b900-108ccb1cab86","","495","
                <div class=""stimulus-container"">
                    <img src=""images/schematic_sequence/dinner_party_scheme/dinner_party_scheme_8.png"" class=""exp-image"">
                    <div class=""question-area"">
                        <p style=""font-size: 20px; font-weight: bold; margin: 0;"">Is there a person in this image?</p>
                    </div>
                </div>","0","main_experiment_trial","8","dinner_party_scheme","schematic_sequence","","","","",""
"","","","","","html-keyboard-response","180","567456","0.0-180.0","69E224AC94954D30B88BC026C37212CC","019cf0df-891f-7dc5-be19-bfd826317c54","019cf037-5203-781a-b900-108ccb1cab86","","null","
                <div class=""stimulus-container"">
                    <img src=""images/schematic_sequence/dinner_party_scheme/dinner_party_scheme_9.png"" class=""exp-image"">
                    <div class=""question-area""></div> 
                </div>","null","","","","","","","","",""
"","","","","","html-button-response","181","567984","0.0-181.0","69E224AC94954D30B88BC026C37212CC","019cf0df-891f-7dc5-be19-bfd826317c54","019cf037-5203-781a-b900-108ccb1cab86","","527","
                <div class=""stimulus-container"">
                    <img src=""images/schematic_sequence/dinner_party_scheme/dinner_party_scheme_9.png"" class=""exp-image"">
                    <div class=""question-area"">
                        <p style=""font-size: 20px; font-weight: bold; margin: 0;"">Is there a person in this image?</p>
                    </div>
                </div>","0","main_experiment_trial","9","dinner_party_scheme","schematic_sequence","","","","",""
"","","","","","html-keyboard-response","182","572997","0.0-182.0","69E224AC94954D30B88BC026C37212CC","019cf0df-891f-7dc5-be19-bfd826317c54","019cf037-5203-781a-b900-108ccb1cab86","","null","
                <div class=""stimulus-container"">
                    <img src=""images/schematic_sequence/dinner_party_scheme/dinner_party_scheme_ten.png"" class=""exp-image"">
                    <div class=""question-area""></div> 
                </div>","null","","","","","","","","",""
"","","","","","html-button-response","183","573667","0.0-183.0","69E224AC94954D30B88BC026C37212CC","019cf0df-891f-7dc5-be19-bfd826317c54","019cf037-5203-781a-b900-108ccb1cab86","","668","
                <div class=""stimulus-container"">
                    <img src=""images/schematic_sequence/dinner_party_scheme/dinner_party_scheme_ten.png"" class=""exp-image"">
                    <div class=""question-area"">
                        <p style=""font-size: 20px; font-weight: bold; margin: 0;"">Is there a person in this image?</p>
                    </div>
                </div>","0","main_experiment_trial","ten","dinner_party_scheme","schematic_sequence","","","","",""
