"success","timeout","failed_images","failed_audio","failed_video","trial_type","trial_index","time_elapsed","internal_node_id","subject_id","study_id","session_id","view_history","rt","stimulus","response","task","image_index","folder","valuable_image_index","valuable_X","chosen_image_index","distance_from_X"
"false","false","[]","[]","[]","preload","0","6112","0.0-0.0","4B8A4D6B25414251B03070A55B3D7D16","019ce7a8-e504-76d3-ae61-8148d7918dd7","019ce7a0-0965-7aa7-a556-174d32a8e773","","","","","","","","","","",""
"","","","","","instructions","1","7464","0.0-1.0","4B8A4D6B25414251B03070A55B3D7D16","019ce7a8-e504-76d3-ae61-8148d7918dd7","019ce7a0-0965-7aa7-a556-174d32a8e773","[{""page_index"":0,""viewing_time"":1351}]","1352","","","","","","","","",""
"","","","","","instructions","2","13167","0.0-2.0","4B8A4D6B25414251B03070A55B3D7D16","019ce7a8-e504-76d3-ae61-8148d7918dd7","019ce7a0-0965-7aa7-a556-174d32a8e773","[{""page_index"":0,""viewing_time"":5703}]","5703","","","","","","","","",""
"true","","","","","fullscreen","3","17293","0.0-3.0","4B8A4D6B25414251B03070A55B3D7D16","019ce7a8-e504-76d3-ae61-8148d7918dd7","019ce7a0-0965-7aa7-a556-174d32a8e773","","3123","","","","","","","","",""
"","","","","","instructions","4","115937","0.0-4.0","4B8A4D6B25414251B03070A55B3D7D16","019ce7a8-e504-76d3-ae61-8148d7918dd7","019ce7a0-0965-7aa7-a556-174d32a8e773","[{""page_index"":0,""viewing_time"":98644}]","98644","","","","","","","","",""
"","","","","","instructions","5","121970","0.0-5.0","4B8A4D6B25414251B03070A55B3D7D16","019ce7a8-e504-76d3-ae61-8148d7918dd7","019ce7a0-0965-7aa7-a556-174d32a8e773","[{""page_index"":0,""viewing_time"":6033}]","6033","","","","","","","","",""
"","","","","","html-keyboard-response","6","125971","0.0-6.0","4B8A4D6B25414251B03070A55B3D7D16","019ce7a8-e504-76d3-ae61-8148d7918dd7","019ce7a0-0965-7aa7-a556-174d32a8e773","","null","
                <div class=""stimulus-container"">
                    <img src=""images/instructions/movie_1.png"" class=""exp-image"">
                    <div class=""question-area""></div> 
                </div>","null","","","","","","",""
"","","","","","html-button-response","7","127046","0.0-7.0","4B8A4D6B25414251B03070A55B3D7D16","019ce7a8-e504-76d3-ae61-8148d7918dd7","019ce7a0-0965-7aa7-a556-174d32a8e773","","1074","
                <div class=""stimulus-container"">
                    <img src=""images/instructions/movie_1.png"" class=""exp-image"">
                    <div class=""question-area"">
                        <p style=""font-size: 20px; font-weight: bold; margin: 0;"">Was there a person in this image?</p>
                    </div>
                </div>","0","example_question","1","","","","",""
"","","","","","html-keyboard-response","8","131060","0.0-8.0","4B8A4D6B25414251B03070A55B3D7D16","019ce7a8-e504-76d3-ae61-8148d7918dd7","019ce7a0-0965-7aa7-a556-174d32a8e773","","null","
                <div class=""stimulus-container"">
                    <img src=""images/instructions/movie_2.png"" class=""exp-image"">
                    <div class=""question-area""></div> 
                </div>","null","","","","","","",""
"","","","","","html-button-response","9","131908","0.0-9.0","4B8A4D6B25414251B03070A55B3D7D16","019ce7a8-e504-76d3-ae61-8148d7918dd7","019ce7a0-0965-7aa7-a556-174d32a8e773","","848","
                <div class=""stimulus-container"">
                    <img src=""images/instructions/movie_2.png"" class=""exp-image"">
                    <div class=""question-area"">
                        <p style=""font-size: 20px; font-weight: bold; margin: 0;"">Was there a person in this image?</p>
                    </div>
                </div>","0","example_question","2","","","","",""
"","","","","","html-keyboard-response","10","135917","0.0-10.0","4B8A4D6B25414251B03070A55B3D7D16","019ce7a8-e504-76d3-ae61-8148d7918dd7","019ce7a0-0965-7aa7-a556-174d32a8e773","","null","
                <div class=""stimulus-container"">
                    <img src=""images/instructions/movie_3.png"" class=""exp-image"">
                    <div class=""question-area""></div> 
                </div>","null","","","","","","",""
"","","","","","html-button-response","11","136322","0.0-11.0","4B8A4D6B25414251B03070A55B3D7D16","019ce7a8-e504-76d3-ae61-8148d7918dd7","019ce7a0-0965-7aa7-a556-174d32a8e773","","405","
                <div class=""stimulus-container"">
                    <img src=""images/instructions/movie_3.png"" class=""exp-image"">
                    <div class=""question-area"">
                        <p style=""font-size: 20px; font-weight: bold; margin: 0;"">Was there a person in this image?</p>
                    </div>
                </div>","0","example_question","3","","","","",""
"","","","","","html-keyboard-response","12","140327","0.0-12.0","4B8A4D6B25414251B03070A55B3D7D16","019ce7a8-e504-76d3-ae61-8148d7918dd7","019ce7a0-0965-7aa7-a556-174d32a8e773","","null","
                <div class=""stimulus-container"">
                    <img src=""images/instructions/movie_4.png"" class=""exp-image"">
                    <div class=""question-area""></div> 
                </div>","null","","","","","","",""
"","","","","","html-button-response","13","141944","0.0-13.0","4B8A4D6B25414251B03070A55B3D7D16","019ce7a8-e504-76d3-ae61-8148d7918dd7","019ce7a0-0965-7aa7-a556-174d32a8e773","","1616","
                <div class=""stimulus-container"">
                    <img src=""images/instructions/movie_4.png"" class=""exp-image"">
                    <div class=""question-area"">
                        <p style=""font-size: 20px; font-weight: bold; margin: 0;"">Was there a person in this image?</p>
                    </div>
                </div>","0","example_question","4","","","","",""
"","","","","","instructions","14","144051","0.0-14.0","4B8A4D6B25414251B03070A55B3D7D16","019ce7a8-e504-76d3-ae61-8148d7918dd7","019ce7a0-0965-7aa7-a556-174d32a8e773","[{""page_index"":0,""viewing_time"":2107}]","2107","","","","","","","","",""
"","","","","","html-keyboard-response","15","145052","0.0-15.0","4B8A4D6B25414251B03070A55B3D7D16","019ce7a8-e504-76d3-ae61-8148d7918dd7","019ce7a0-0965-7aa7-a556-174d32a8e773","","null","<div style=""background-color: gray; width: 100vw; height: 100vh;""></div>","null","","","","","","",""
"","","","","","html-keyboard-response","16","150060","0.0-16.0","4B8A4D6B25414251B03070A55B3D7D16","019ce7a8-e504-76d3-ae61-8148d7918dd7","019ce7a0-0965-7aa7-a556-174d32a8e773","","null","
                    <div class=""stimulus-container"">
                        <img src=""images/causal_sequence/dog_causal/dog_causal_1.png"" class=""exp-image"">
                        <div class=""question-area""></div> 
                    </div>","null","","","","","","",""
"","","","","","html-button-response","17","151733","0.0-17.0","4B8A4D6B25414251B03070A55B3D7D16","019ce7a8-e504-76d3-ae61-8148d7918dd7","019ce7a0-0965-7aa7-a556-174d32a8e773","","1672","
                    <div class=""stimulus-container"">
                        <img src=""images/causal_sequence/dog_causal/dog_causal_1.png"" class=""exp-image"">
                        <div class=""question-area"">
                            <p style=""font-size: 20px; font-weight: bold; margin: 0;"">Is there a person in this image?</p>
                        </div>
                    </div>","0","main_causal_task","1","dog_causal","","","",""
"","","","","","html-keyboard-response","18","156736","0.0-18.0","4B8A4D6B25414251B03070A55B3D7D16","019ce7a8-e504-76d3-ae61-8148d7918dd7","019ce7a0-0965-7aa7-a556-174d32a8e773","","null","
                    <div class=""stimulus-container"">
                        <img src=""images/causal_sequence/dog_causal/dog_causal_2.png"" class=""exp-image"">
                        <div class=""question-area""></div> 
                    </div>","null","","","","","","",""
"","","","","","html-button-response","19","158334","0.0-19.0","4B8A4D6B25414251B03070A55B3D7D16","019ce7a8-e504-76d3-ae61-8148d7918dd7","019ce7a0-0965-7aa7-a556-174d32a8e773","","1597","
                    <div class=""stimulus-container"">
                        <img src=""images/causal_sequence/dog_causal/dog_causal_2.png"" class=""exp-image"">
                        <div class=""question-area"">
                            <p style=""font-size: 20px; font-weight: bold; margin: 0;"">Is there a person in this image?</p>
                        </div>
                    </div>","0","main_causal_task","2","dog_causal","","","",""
"","","","","","html-keyboard-response","20","163339","0.0-20.0","4B8A4D6B25414251B03070A55B3D7D16","019ce7a8-e504-76d3-ae61-8148d7918dd7","019ce7a0-0965-7aa7-a556-174d32a8e773","","null","
                    <div class=""stimulus-container"">
                        <img src=""images/causal_sequence/dog_causal/dog_causal_3.png"" class=""exp-image"">
                        <div class=""question-area""></div> 
                    </div>","null","","","","","","",""
"","","","","","html-button-response","21","166340","0.0-21.0","4B8A4D6B25414251B03070A55B3D7D16","019ce7a8-e504-76d3-ae61-8148d7918dd7","019ce7a0-0965-7aa7-a556-174d32a8e773","","null","
                    <div class=""stimulus-container"">
                        <img src=""images/causal_sequence/dog_causal/dog_causal_3.png"" class=""exp-image"">
                        <div class=""question-area"">
                            <p style=""font-size: 20px; font-weight: bold; margin: 0;"">Is there a person in this image?</p>
                        </div>
                    </div>","null","main_causal_task","3","dog_causal","","","",""
"","","","","","html-keyboard-response","22","171341","0.0-22.0","4B8A4D6B25414251B03070A55B3D7D16","019ce7a8-e504-76d3-ae61-8148d7918dd7","019ce7a0-0965-7aa7-a556-174d32a8e773","","null","
                    <div class=""stimulus-container"">
                        <img src=""images/causal_sequence/dog_causal/dog_causal_4.png"" class=""exp-image"">
                        <div class=""question-area""></div> 
                    </div>","null","","","","","","",""
"","","","","","html-button-response","23","172537","0.0-23.0","4B8A4D6B25414251B03070A55B3D7D16","019ce7a8-e504-76d3-ae61-8148d7918dd7","019ce7a0-0965-7aa7-a556-174d32a8e773","","1195","
                    <div class=""stimulus-container"">
                        <img src=""images/causal_sequence/dog_causal/dog_causal_4.png"" class=""exp-image"">
                        <div class=""question-area"">
                            <p style=""font-size: 20px; font-weight: bold; margin: 0;"">Is there a person in this image?</p>
                        </div>
                    </div>","0","main_causal_task","4","dog_causal","","","",""
"","","","","","html-keyboard-response","24","177547","0.0-24.0","4B8A4D6B25414251B03070A55B3D7D16","019ce7a8-e504-76d3-ae61-8148d7918dd7","019ce7a0-0965-7aa7-a556-174d32a8e773","","null","
                    <div class=""stimulus-container"">
                        <img src=""images/causal_sequence/dog_causal/dog_causal_5.png"" class=""exp-image"">
                        <div class=""question-area""></div> 
                    </div>","null","","","","","","",""
"","","","","","html-button-response","25","178482","0.0-25.0","4B8A4D6B25414251B03070A55B3D7D16","019ce7a8-e504-76d3-ae61-8148d7918dd7","019ce7a0-0965-7aa7-a556-174d32a8e773","","934","
                    <div class=""stimulus-container"">
                        <img src=""images/causal_sequence/dog_causal/dog_causal_5.png"" class=""exp-image"">
                        <div class=""question-area"">
                            <p style=""font-size: 20px; font-weight: bold; margin: 0;"">Is there a person in this image?</p>
                        </div>
                    </div>","0","main_causal_task","5","dog_causal","","","",""
"","","","","","html-keyboard-response","26","183493","0.0-26.0","4B8A4D6B25414251B03070A55B3D7D16","019ce7a8-e504-76d3-ae61-8148d7918dd7","019ce7a0-0965-7aa7-a556-174d32a8e773","","null","
                    <div class=""stimulus-container"">
                        <img src=""images/causal_sequence/dog_causal/dog_causal_6.png"" class=""exp-image"">
                        <div class=""question-area""></div> 
                    </div>","null","","","","","","",""
"","","","","","html-button-response","27","186495","0.0-27.0","4B8A4D6B25414251B03070A55B3D7D16","019ce7a8-e504-76d3-ae61-8148d7918dd7","019ce7a0-0965-7aa7-a556-174d32a8e773","","null","
                    <div class=""stimulus-container"">
                        <img src=""images/causal_sequence/dog_causal/dog_causal_6.png"" class=""exp-image"">
                        <div class=""question-area"">
                            <p style=""font-size: 20px; font-weight: bold; margin: 0;"">Is there a person in this image?</p>
                        </div>
                    </div>","null","main_causal_task","6","dog_causal","","","",""
"","","","","","html-keyboard-response","28","191495","0.0-28.0","4B8A4D6B25414251B03070A55B3D7D16","019ce7a8-e504-76d3-ae61-8148d7918dd7","019ce7a0-0965-7aa7-a556-174d32a8e773","","null","
                    <div class=""stimulus-container"">
                        <img src=""images/causal_sequence/dog_causal/dog_causal_7.png"" class=""exp-image"">
                        <div class=""question-area""></div> 
                    </div>","null","","","","","","",""
"","","","","","html-button-response","29","192011","0.0-29.0","4B8A4D6B25414251B03070A55B3D7D16","019ce7a8-e504-76d3-ae61-8148d7918dd7","019ce7a0-0965-7aa7-a556-174d32a8e773","","516","
                    <div class=""stimulus-container"">
                        <img src=""images/causal_sequence/dog_causal/dog_causal_7.png"" class=""exp-image"">
                        <div class=""question-area"">
                            <p style=""font-size: 20px; font-weight: bold; margin: 0;"">Is there a person in this image?</p>
                        </div>
                    </div>","0","main_causal_task","7","dog_causal","","","",""
"","","","","","html-keyboard-response","30","197018","0.0-30.0","4B8A4D6B25414251B03070A55B3D7D16","019ce7a8-e504-76d3-ae61-8148d7918dd7","019ce7a0-0965-7aa7-a556-174d32a8e773","","null","
                    <div class=""stimulus-container"">
                        <img src=""images/causal_sequence/dog_causal/dog_causal_8.png"" class=""exp-image"">
                        <div class=""question-area""></div> 
                    </div>","null","","","","","","",""
"","","","","","html-button-response","31","197490","0.0-31.0","4B8A4D6B25414251B03070A55B3D7D16","019ce7a8-e504-76d3-ae61-8148d7918dd7","019ce7a0-0965-7aa7-a556-174d32a8e773","","472","
                    <div class=""stimulus-container"">
                        <img src=""images/causal_sequence/dog_causal/dog_causal_8.png"" class=""exp-image"">
                        <div class=""question-area"">
                            <p style=""font-size: 20px; font-weight: bold; margin: 0;"">Is there a person in this image?</p>
                        </div>
                    </div>","0","main_causal_task","8","dog_causal","","","",""
"","","","","","html-keyboard-response","32","202499","0.0-32.0","4B8A4D6B25414251B03070A55B3D7D16","019ce7a8-e504-76d3-ae61-8148d7918dd7","019ce7a0-0965-7aa7-a556-174d32a8e773","","null","
                    <div class=""stimulus-container"">
                        <img src=""images/causal_sequence/dog_causal/dog_causal_9.png"" class=""exp-image"">
                        <div class=""question-area""></div> 
                    </div>","null","","","","","","",""
"","","","","","html-button-response","33","202843","0.0-33.0","4B8A4D6B25414251B03070A55B3D7D16","019ce7a8-e504-76d3-ae61-8148d7918dd7","019ce7a0-0965-7aa7-a556-174d32a8e773","","343","
                    <div class=""stimulus-container"">
                        <img src=""images/causal_sequence/dog_causal/dog_causal_9.png"" class=""exp-image"">
                        <div class=""question-area"">
                            <p style=""font-size: 20px; font-weight: bold; margin: 0;"">Is there a person in this image?</p>
                        </div>
                    </div>","0","main_causal_task","9","dog_causal","","","",""
"","","","","","html-keyboard-response","34","203848","0.0-34.0","4B8A4D6B25414251B03070A55B3D7D16","019ce7a8-e504-76d3-ae61-8148d7918dd7","019ce7a0-0965-7aa7-a556-174d32a8e773","","null","<div style=""background-color: gray; width: 100vw; height: 100vh;""></div>","null","","","","","","",""
"","","","","","html-keyboard-response","35","208862","0.0-35.0","4B8A4D6B25414251B03070A55B3D7D16","019ce7a8-e504-76d3-ae61-8148d7918dd7","019ce7a0-0965-7aa7-a556-174d32a8e773","","null","
                    <div class=""stimulus-container"">
                        <img src=""images/causal_sequence/saving_a_cat_causal/saving_a_cat_causal_1.png"" class=""exp-image"">
                        <div class=""question-area""></div> 
                    </div>","null","","","","","","",""
"","","","","","html-button-response","36","210219","0.0-36.0","4B8A4D6B25414251B03070A55B3D7D16","019ce7a8-e504-76d3-ae61-8148d7918dd7","019ce7a0-0965-7aa7-a556-174d32a8e773","","1357","
                    <div class=""stimulus-container"">
                        <img src=""images/causal_sequence/saving_a_cat_causal/saving_a_cat_causal_1.png"" class=""exp-image"">
                        <div class=""question-area"">
                            <p style=""font-size: 20px; font-weight: bold; margin: 0;"">Is there a person in this image?</p>
                        </div>
                    </div>","0","main_causal_task","1","saving_a_cat_causal","","","",""
"","","","","","html-keyboard-response","37","215220","0.0-37.0","4B8A4D6B25414251B03070A55B3D7D16","019ce7a8-e504-76d3-ae61-8148d7918dd7","019ce7a0-0965-7aa7-a556-174d32a8e773","","null","
                    <div class=""stimulus-container"">
                        <img src=""images/causal_sequence/saving_a_cat_causal/saving_a_cat_causal_2.png"" class=""exp-image"">
                        <div class=""question-area""></div> 
                    </div>","null","","","","","","",""
"","","","","","html-button-response","38","215814","0.0-38.0","4B8A4D6B25414251B03070A55B3D7D16","019ce7a8-e504-76d3-ae61-8148d7918dd7","019ce7a0-0965-7aa7-a556-174d32a8e773","","593","
                    <div class=""stimulus-container"">
                        <img src=""images/causal_sequence/saving_a_cat_causal/saving_a_cat_causal_2.png"" class=""exp-image"">
                        <div class=""question-area"">
                            <p style=""font-size: 20px; font-weight: bold; margin: 0;"">Is there a person in this image?</p>
                        </div>
                    </div>","1","main_causal_task","2","saving_a_cat_causal","","","",""
"","","","","","html-keyboard-response","39","220816","0.0-39.0","4B8A4D6B25414251B03070A55B3D7D16","019ce7a8-e504-76d3-ae61-8148d7918dd7","019ce7a0-0965-7aa7-a556-174d32a8e773","","null","
                    <div class=""stimulus-container"">
                        <img src=""images/causal_sequence/saving_a_cat_causal/saving_a_cat_causal_3.png"" class=""exp-image"">
                        <div class=""question-area""></div> 
                    </div>","null","","","","","","",""
"","","","","","html-button-response","40","221862","0.0-40.0","4B8A4D6B25414251B03070A55B3D7D16","019ce7a8-e504-76d3-ae61-8148d7918dd7","019ce7a0-0965-7aa7-a556-174d32a8e773","","1045","
                    <div class=""stimulus-container"">
                        <img src=""images/causal_sequence/saving_a_cat_causal/saving_a_cat_causal_3.png"" class=""exp-image"">
                        <div class=""question-area"">
                            <p style=""font-size: 20px; font-weight: bold; margin: 0;"">Is there a person in this image?</p>
                        </div>
                    </div>","0","main_causal_task","3","saving_a_cat_causal","","","",""
"","","","","","html-keyboard-response","41","226873","0.0-41.0","4B8A4D6B25414251B03070A55B3D7D16","019ce7a8-e504-76d3-ae61-8148d7918dd7","019ce7a0-0965-7aa7-a556-174d32a8e773","","null","
                    <div class=""stimulus-container"">
                        <img src=""images/causal_sequence/saving_a_cat_causal/saving_a_cat_causal_4.png"" class=""exp-image"">
                        <div class=""question-area""></div> 
                    </div>","null","","","","","","",""
"","","","","","html-button-response","42","228460","0.0-42.0","4B8A4D6B25414251B03070A55B3D7D16","019ce7a8-e504-76d3-ae61-8148d7918dd7","019ce7a0-0965-7aa7-a556-174d32a8e773","","1587","
                    <div class=""stimulus-container"">
                        <img src=""images/causal_sequence/saving_a_cat_causal/saving_a_cat_causal_4.png"" class=""exp-image"">
                        <div class=""question-area"">
                            <p style=""font-size: 20px; font-weight: bold; margin: 0;"">Is there a person in this image?</p>
                        </div>
                    </div>","0","main_causal_task","4","saving_a_cat_causal","","","",""
"","","","","","html-keyboard-response","43","233464","0.0-43.0","4B8A4D6B25414251B03070A55B3D7D16","019ce7a8-e504-76d3-ae61-8148d7918dd7","019ce7a0-0965-7aa7-a556-174d32a8e773","","null","
                    <div class=""stimulus-container"">
                        <img src=""images/causal_sequence/saving_a_cat_causal/saving_a_cat_causal_5.png"" class=""exp-image"">
                        <div class=""question-area""></div> 
                    </div>","null","","","","","","",""
"","","","","","html-button-response","44","234487","0.0-44.0","4B8A4D6B25414251B03070A55B3D7D16","019ce7a8-e504-76d3-ae61-8148d7918dd7","019ce7a0-0965-7aa7-a556-174d32a8e773","","1023","
                    <div class=""stimulus-container"">
                        <img src=""images/causal_sequence/saving_a_cat_causal/saving_a_cat_causal_5.png"" class=""exp-image"">
                        <div class=""question-area"">
                            <p style=""font-size: 20px; font-weight: bold; margin: 0;"">Is there a person in this image?</p>
                        </div>
                    </div>","0","main_causal_task","5","saving_a_cat_causal","","","",""
"","","","","","html-keyboard-response","45","239492","0.0-45.0","4B8A4D6B25414251B03070A55B3D7D16","019ce7a8-e504-76d3-ae61-8148d7918dd7","019ce7a0-0965-7aa7-a556-174d32a8e773","","null","
                    <div class=""stimulus-container"">
                        <img src=""images/causal_sequence/saving_a_cat_causal/saving_a_cat_causal_6.png"" class=""exp-image"">
                        <div class=""question-area""></div> 
                    </div>","null","","","","","","",""
"","","","","","html-button-response","46","240605","0.0-46.0","4B8A4D6B25414251B03070A55B3D7D16","019ce7a8-e504-76d3-ae61-8148d7918dd7","019ce7a0-0965-7aa7-a556-174d32a8e773","","1112","
                    <div class=""stimulus-container"">
                        <img src=""images/causal_sequence/saving_a_cat_causal/saving_a_cat_causal_6.png"" class=""exp-image"">
                        <div class=""question-area"">
                            <p style=""font-size: 20px; font-weight: bold; margin: 0;"">Is there a person in this image?</p>
                        </div>
                    </div>","0","main_causal_task","6","saving_a_cat_causal","","","",""
"","","","","","html-keyboard-response","47","245616","0.0-47.0","4B8A4D6B25414251B03070A55B3D7D16","019ce7a8-e504-76d3-ae61-8148d7918dd7","019ce7a0-0965-7aa7-a556-174d32a8e773","","null","
                    <div class=""stimulus-container"">
                        <img src=""images/causal_sequence/saving_a_cat_causal/saving_a_cat_causal_7.png"" class=""exp-image"">
                        <div class=""question-area""></div> 
                    </div>","null","","","","","","",""
"","","","","","html-button-response","48","246416","0.0-48.0","4B8A4D6B25414251B03070A55B3D7D16","019ce7a8-e504-76d3-ae61-8148d7918dd7","019ce7a0-0965-7aa7-a556-174d32a8e773","","799","
                    <div class=""stimulus-container"">
                        <img src=""images/causal_sequence/saving_a_cat_causal/saving_a_cat_causal_7.png"" class=""exp-image"">
                        <div class=""question-area"">
                            <p style=""font-size: 20px; font-weight: bold; margin: 0;"">Is there a person in this image?</p>
                        </div>
                    </div>","0","main_causal_task","7","saving_a_cat_causal","","","",""
"","","","","","html-keyboard-response","49","251430","0.0-49.0","4B8A4D6B25414251B03070A55B3D7D16","019ce7a8-e504-76d3-ae61-8148d7918dd7","019ce7a0-0965-7aa7-a556-174d32a8e773","","null","
                    <div class=""stimulus-container"">
                        <img src=""images/causal_sequence/saving_a_cat_causal/saving_a_cat_causal_8.png"" class=""exp-image"">
                        <div class=""question-area""></div> 
                    </div>","null","","","","","","",""
"","","","","","html-button-response","50","252177","0.0-50.0","4B8A4D6B25414251B03070A55B3D7D16","019ce7a8-e504-76d3-ae61-8148d7918dd7","019ce7a0-0965-7aa7-a556-174d32a8e773","","747","
                    <div class=""stimulus-container"">
                        <img src=""images/causal_sequence/saving_a_cat_causal/saving_a_cat_causal_8.png"" class=""exp-image"">
                        <div class=""question-area"">
                            <p style=""font-size: 20px; font-weight: bold; margin: 0;"">Is there a person in this image?</p>
                        </div>
                    </div>","0","main_causal_task","8","saving_a_cat_causal","","","",""
"","","","","","html-keyboard-response","51","257179","0.0-51.0","4B8A4D6B25414251B03070A55B3D7D16","019ce7a8-e504-76d3-ae61-8148d7918dd7","019ce7a0-0965-7aa7-a556-174d32a8e773","","null","
                    <div class=""stimulus-container"">
                        <img src=""images/causal_sequence/saving_a_cat_causal/saving_a_cat_causal_9.png"" class=""exp-image"">
                        <div class=""question-area""></div> 
                    </div>","null","","","","","","",""
"","","","","","html-button-response","52","258243","0.0-52.0","4B8A4D6B25414251B03070A55B3D7D16","019ce7a8-e504-76d3-ae61-8148d7918dd7","019ce7a0-0965-7aa7-a556-174d32a8e773","","1064","
                    <div class=""stimulus-container"">
                        <img src=""images/causal_sequence/saving_a_cat_causal/saving_a_cat_causal_9.png"" class=""exp-image"">
                        <div class=""question-area"">
                            <p style=""font-size: 20px; font-weight: bold; margin: 0;"">Is there a person in this image?</p>
                        </div>
                    </div>","0","main_causal_task","9","saving_a_cat_causal","","","",""
"","","","","","html-keyboard-response","53","259248","0.0-53.0","4B8A4D6B25414251B03070A55B3D7D16","019ce7a8-e504-76d3-ae61-8148d7918dd7","019ce7a0-0965-7aa7-a556-174d32a8e773","","null","<div style=""background-color: gray; width: 100vw; height: 100vh;""></div>","null","","","","","","",""
"","","","","","html-keyboard-response","54","264255","0.0-54.0","4B8A4D6B25414251B03070A55B3D7D16","019ce7a8-e504-76d3-ae61-8148d7918dd7","019ce7a0-0965-7aa7-a556-174d32a8e773","","null","
                    <div class=""stimulus-container"">
                        <img src=""images/causal_sequence/coin_causal/coin_causal_1.png"" class=""exp-image"">
                        <div class=""question-area""></div> 
                    </div>","null","","","","","","",""
"","","","","","html-button-response","55","265236","0.0-55.0","4B8A4D6B25414251B03070A55B3D7D16","019ce7a8-e504-76d3-ae61-8148d7918dd7","019ce7a0-0965-7aa7-a556-174d32a8e773","","980","
                    <div class=""stimulus-container"">
                        <img src=""images/causal_sequence/coin_causal/coin_causal_1.png"" class=""exp-image"">
                        <div class=""question-area"">
                            <p style=""font-size: 20px; font-weight: bold; margin: 0;"">Is there a person in this image?</p>
                        </div>
                    </div>","0","main_causal_task","1","coin_causal","","","",""
"","","","","","html-keyboard-response","56","270241","0.0-56.0","4B8A4D6B25414251B03070A55B3D7D16","019ce7a8-e504-76d3-ae61-8148d7918dd7","019ce7a0-0965-7aa7-a556-174d32a8e773","","null","
                    <div class=""stimulus-container"">
                        <img src=""images/causal_sequence/coin_causal/coin_causal_2.png"" class=""exp-image"">
                        <div class=""question-area""></div> 
                    </div>","null","","","","","","",""
"","","","","","html-button-response","57","270923","0.0-57.0","4B8A4D6B25414251B03070A55B3D7D16","019ce7a8-e504-76d3-ae61-8148d7918dd7","019ce7a0-0965-7aa7-a556-174d32a8e773","","682","
                    <div class=""stimulus-container"">
                        <img src=""images/causal_sequence/coin_causal/coin_causal_2.png"" class=""exp-image"">
                        <div class=""question-area"">
                            <p style=""font-size: 20px; font-weight: bold; margin: 0;"">Is there a person in this image?</p>
                        </div>
                    </div>","0","main_causal_task","2","coin_causal","","","",""
"","","","","","html-keyboard-response","58","275939","0.0-58.0","4B8A4D6B25414251B03070A55B3D7D16","019ce7a8-e504-76d3-ae61-8148d7918dd7","019ce7a0-0965-7aa7-a556-174d32a8e773","","null","
                    <div class=""stimulus-container"">
                        <img src=""images/causal_sequence/coin_causal/coin_causal_3.png"" class=""exp-image"">
                        <div class=""question-area""></div> 
                    </div>","null","","","","","","",""
"","","","","","html-button-response","59","276557","0.0-59.0","4B8A4D6B25414251B03070A55B3D7D16","019ce7a8-e504-76d3-ae61-8148d7918dd7","019ce7a0-0965-7aa7-a556-174d32a8e773","","618","
                    <div class=""stimulus-container"">
                        <img src=""images/causal_sequence/coin_causal/coin_causal_3.png"" class=""exp-image"">
                        <div class=""question-area"">
                            <p style=""font-size: 20px; font-weight: bold; margin: 0;"">Is there a person in this image?</p>
                        </div>
                    </div>","0","main_causal_task","3","coin_causal","","","",""
"","","","","","html-keyboard-response","60","281564","0.0-60.0","4B8A4D6B25414251B03070A55B3D7D16","019ce7a8-e504-76d3-ae61-8148d7918dd7","019ce7a0-0965-7aa7-a556-174d32a8e773","","null","
                    <div class=""stimulus-container"">
                        <img src=""images/causal_sequence/coin_causal/coin_causal_4.png"" class=""exp-image"">
                        <div class=""question-area""></div> 
                    </div>","null","","","","","","",""
"","","","","","html-button-response","61","282024","0.0-61.0","4B8A4D6B25414251B03070A55B3D7D16","019ce7a8-e504-76d3-ae61-8148d7918dd7","019ce7a0-0965-7aa7-a556-174d32a8e773","","459","
                    <div class=""stimulus-container"">
                        <img src=""images/causal_sequence/coin_causal/coin_causal_4.png"" class=""exp-image"">
                        <div class=""question-area"">
                            <p style=""font-size: 20px; font-weight: bold; margin: 0;"">Is there a person in this image?</p>
                        </div>
                    </div>","0","main_causal_task","4","coin_causal","","","",""
"","","","","","html-keyboard-response","62","287035","0.0-62.0","4B8A4D6B25414251B03070A55B3D7D16","019ce7a8-e504-76d3-ae61-8148d7918dd7","019ce7a0-0965-7aa7-a556-174d32a8e773","","null","
                    <div class=""stimulus-container"">
                        <img src=""images/causal_sequence/coin_causal/coin_causal_5.png"" class=""exp-image"">
                        <div class=""question-area""></div> 
                    </div>","null","","","","","","",""
"","","","","","html-button-response","63","287621","0.0-63.0","4B8A4D6B25414251B03070A55B3D7D16","019ce7a8-e504-76d3-ae61-8148d7918dd7","019ce7a0-0965-7aa7-a556-174d32a8e773","","586","
                    <div class=""stimulus-container"">
                        <img src=""images/causal_sequence/coin_causal/coin_causal_5.png"" class=""exp-image"">
                        <div class=""question-area"">
                            <p style=""font-size: 20px; font-weight: bold; margin: 0;"">Is there a person in this image?</p>
                        </div>
                    </div>","0","main_causal_task","5","coin_causal","","","",""
"","","","","","html-keyboard-response","64","292632","0.0-64.0","4B8A4D6B25414251B03070A55B3D7D16","019ce7a8-e504-76d3-ae61-8148d7918dd7","019ce7a0-0965-7aa7-a556-174d32a8e773","","null","
                    <div class=""stimulus-container"">
                        <img src=""images/causal_sequence/coin_causal/coin_causal_6.png"" class=""exp-image"">
                        <div class=""question-area""></div> 
                    </div>","null","","","","","","",""
"","","","","","html-button-response","65","293168","0.0-65.0","4B8A4D6B25414251B03070A55B3D7D16","019ce7a8-e504-76d3-ae61-8148d7918dd7","019ce7a0-0965-7aa7-a556-174d32a8e773","","535","
                    <div class=""stimulus-container"">
                        <img src=""images/causal_sequence/coin_causal/coin_causal_6.png"" class=""exp-image"">
                        <div class=""question-area"">
                            <p style=""font-size: 20px; font-weight: bold; margin: 0;"">Is there a person in this image?</p>
                        </div>
                    </div>","0","main_causal_task","6","coin_causal","","","",""
"","","","","","html-keyboard-response","66","298171","0.0-66.0","4B8A4D6B25414251B03070A55B3D7D16","019ce7a8-e504-76d3-ae61-8148d7918dd7","019ce7a0-0965-7aa7-a556-174d32a8e773","","null","
                    <div class=""stimulus-container"">
                        <img src=""images/causal_sequence/coin_causal/coin_causal_7.png"" class=""exp-image"">
                        <div class=""question-area""></div> 
                    </div>","null","","","","","","",""
"","","","","","html-button-response","67","301180","0.0-67.0","4B8A4D6B25414251B03070A55B3D7D16","019ce7a8-e504-76d3-ae61-8148d7918dd7","019ce7a0-0965-7aa7-a556-174d32a8e773","","null","
                    <div class=""stimulus-container"">
                        <img src=""images/causal_sequence/coin_causal/coin_causal_7.png"" class=""exp-image"">
                        <div class=""question-area"">
                            <p style=""font-size: 20px; font-weight: bold; margin: 0;"">Is there a person in this image?</p>
                        </div>
                    </div>","null","main_causal_task","7","coin_causal","","","",""
"","","","","","html-keyboard-response","68","306186","0.0-68.0","4B8A4D6B25414251B03070A55B3D7D16","019ce7a8-e504-76d3-ae61-8148d7918dd7","019ce7a0-0965-7aa7-a556-174d32a8e773","","null","
                    <div class=""stimulus-container"">
                        <img src=""images/causal_sequence/coin_causal/coin_causal_8.png"" class=""exp-image"">
                        <div class=""question-area""></div> 
                    </div>","null","","","","","","",""
"","","","","","html-button-response","69","306722","0.0-69.0","4B8A4D6B25414251B03070A55B3D7D16","019ce7a8-e504-76d3-ae61-8148d7918dd7","019ce7a0-0965-7aa7-a556-174d32a8e773","","535","
                    <div class=""stimulus-container"">
                        <img src=""images/causal_sequence/coin_causal/coin_causal_8.png"" class=""exp-image"">
                        <div class=""question-area"">
                            <p style=""font-size: 20px; font-weight: bold; margin: 0;"">Is there a person in this image?</p>
                        </div>
                    </div>","0","main_causal_task","8","coin_causal","","","",""
"","","","","","html-keyboard-response","70","311730","0.0-70.0","4B8A4D6B25414251B03070A55B3D7D16","019ce7a8-e504-76d3-ae61-8148d7918dd7","019ce7a0-0965-7aa7-a556-174d32a8e773","","null","
                    <div class=""stimulus-container"">
                        <img src=""images/causal_sequence/coin_causal/coin_causal_9.png"" class=""exp-image"">
                        <div class=""question-area""></div> 
                    </div>","null","","","","","","",""
"","","","","","html-button-response","71","312897","0.0-71.0","4B8A4D6B25414251B03070A55B3D7D16","019ce7a8-e504-76d3-ae61-8148d7918dd7","019ce7a0-0965-7aa7-a556-174d32a8e773","","1167","
                    <div class=""stimulus-container"">
                        <img src=""images/causal_sequence/coin_causal/coin_causal_9.png"" class=""exp-image"">
                        <div class=""question-area"">
                            <p style=""font-size: 20px; font-weight: bold; margin: 0;"">Is there a person in this image?</p>
                        </div>
                    </div>","0","main_causal_task","9","coin_causal","","","",""
"","","","","","html-keyboard-response","72","313903","0.0-72.0","4B8A4D6B25414251B03070A55B3D7D16","019ce7a8-e504-76d3-ae61-8148d7918dd7","019ce7a0-0965-7aa7-a556-174d32a8e773","","null","<div style=""background-color: gray; width: 100vw; height: 100vh;""></div>","null","","","","","","",""
"","","","","","html-keyboard-response","73","318904","0.0-73.0","4B8A4D6B25414251B03070A55B3D7D16","019ce7a8-e504-76d3-ae61-8148d7918dd7","019ce7a0-0965-7aa7-a556-174d32a8e773","","null","
                    <div class=""stimulus-container"">
                        <img src=""images/causal_sequence/museum_causal/museum_causal_1.png"" class=""exp-image"">
                        <div class=""question-area""></div> 
                    </div>","null","","","","","","",""
"","","","","","html-button-response","74","320217","0.0-74.0","4B8A4D6B25414251B03070A55B3D7D16","019ce7a8-e504-76d3-ae61-8148d7918dd7","019ce7a0-0965-7aa7-a556-174d32a8e773","","1312","
                    <div class=""stimulus-container"">
                        <img src=""images/causal_sequence/museum_causal/museum_causal_1.png"" class=""exp-image"">
                        <div class=""question-area"">
                            <p style=""font-size: 20px; font-weight: bold; margin: 0;"">Is there a person in this image?</p>
                        </div>
                    </div>","0","main_causal_task","1","museum_causal","","","",""
"","","","","","html-keyboard-response","75","325228","0.0-75.0","4B8A4D6B25414251B03070A55B3D7D16","019ce7a8-e504-76d3-ae61-8148d7918dd7","019ce7a0-0965-7aa7-a556-174d32a8e773","","null","
                    <div class=""stimulus-container"">
                        <img src=""images/causal_sequence/museum_causal/museum_causal_2.png"" class=""exp-image"">
                        <div class=""question-area""></div> 
                    </div>","null","","","","","","",""
"","","","","","html-button-response","76","325962","0.0-76.0","4B8A4D6B25414251B03070A55B3D7D16","019ce7a8-e504-76d3-ae61-8148d7918dd7","019ce7a0-0965-7aa7-a556-174d32a8e773","","733","
                    <div class=""stimulus-container"">
                        <img src=""images/causal_sequence/museum_causal/museum_causal_2.png"" class=""exp-image"">
                        <div class=""question-area"">
                            <p style=""font-size: 20px; font-weight: bold; margin: 0;"">Is there a person in this image?</p>
                        </div>
                    </div>","1","main_causal_task","2","museum_causal","","","",""
"","","","","","html-keyboard-response","77","330964","0.0-77.0","4B8A4D6B25414251B03070A55B3D7D16","019ce7a8-e504-76d3-ae61-8148d7918dd7","019ce7a0-0965-7aa7-a556-174d32a8e773","","null","
                    <div class=""stimulus-container"">
                        <img src=""images/causal_sequence/museum_causal/museum_causal_3.png"" class=""exp-image"">
                        <div class=""question-area""></div> 
                    </div>","null","","","","","","",""
"","","","","","html-button-response","78","331517","0.0-78.0","4B8A4D6B25414251B03070A55B3D7D16","019ce7a8-e504-76d3-ae61-8148d7918dd7","019ce7a0-0965-7aa7-a556-174d32a8e773","","553","
                    <div class=""stimulus-container"">
                        <img src=""images/causal_sequence/museum_causal/museum_causal_3.png"" class=""exp-image"">
                        <div class=""question-area"">
                            <p style=""font-size: 20px; font-weight: bold; margin: 0;"">Is there a person in this image?</p>
                        </div>
                    </div>","0","main_causal_task","3","museum_causal","","","",""
"","","","","","html-keyboard-response","79","336519","0.0-79.0","4B8A4D6B25414251B03070A55B3D7D16","019ce7a8-e504-76d3-ae61-8148d7918dd7","019ce7a0-0965-7aa7-a556-174d32a8e773","","null","
                    <div class=""stimulus-container"">
                        <img src=""images/causal_sequence/museum_causal/museum_causal_4.png"" class=""exp-image"">
                        <div class=""question-area""></div> 
                    </div>","null","","","","","","",""
"","","","","","html-button-response","80","337055","0.0-80.0","4B8A4D6B25414251B03070A55B3D7D16","019ce7a8-e504-76d3-ae61-8148d7918dd7","019ce7a0-0965-7aa7-a556-174d32a8e773","","535","
                    <div class=""stimulus-container"">
                        <img src=""images/causal_sequence/museum_causal/museum_causal_4.png"" class=""exp-image"">
                        <div class=""question-area"">
                            <p style=""font-size: 20px; font-weight: bold; margin: 0;"">Is there a person in this image?</p>
                        </div>
                    </div>","1","main_causal_task","4","museum_causal","","","",""
"","","","","","html-keyboard-response","81","342070","0.0-81.0","4B8A4D6B25414251B03070A55B3D7D16","019ce7a8-e504-76d3-ae61-8148d7918dd7","019ce7a0-0965-7aa7-a556-174d32a8e773","","null","
                    <div class=""stimulus-container"">
                        <img src=""images/causal_sequence/museum_causal/museum_causal_5.png"" class=""exp-image"">
                        <div class=""question-area""></div> 
                    </div>","null","","","","","","",""
"","","","","","html-button-response","82","343359","0.0-82.0","4B8A4D6B25414251B03070A55B3D7D16","019ce7a8-e504-76d3-ae61-8148d7918dd7","019ce7a0-0965-7aa7-a556-174d32a8e773","","1289","
                    <div class=""stimulus-container"">
                        <img src=""images/causal_sequence/museum_causal/museum_causal_5.png"" class=""exp-image"">
                        <div class=""question-area"">
                            <p style=""font-size: 20px; font-weight: bold; margin: 0;"">Is there a person in this image?</p>
                        </div>
                    </div>","0","main_causal_task","5","museum_causal","","","",""
"","","","","","html-keyboard-response","83","348369","0.0-83.0","4B8A4D6B25414251B03070A55B3D7D16","019ce7a8-e504-76d3-ae61-8148d7918dd7","019ce7a0-0965-7aa7-a556-174d32a8e773","","null","
                    <div class=""stimulus-container"">
                        <img src=""images/causal_sequence/museum_causal/museum_causal_6.png"" class=""exp-image"">
                        <div class=""question-area""></div> 
                    </div>","null","","","","","","",""
"","","","","","html-button-response","84","348729","0.0-84.0","4B8A4D6B25414251B03070A55B3D7D16","019ce7a8-e504-76d3-ae61-8148d7918dd7","019ce7a0-0965-7aa7-a556-174d32a8e773","","359","
                    <div class=""stimulus-container"">
                        <img src=""images/causal_sequence/museum_causal/museum_causal_6.png"" class=""exp-image"">
                        <div class=""question-area"">
                            <p style=""font-size: 20px; font-weight: bold; margin: 0;"">Is there a person in this image?</p>
                        </div>
                    </div>","0","main_causal_task","6","museum_causal","","","",""
"","","","","","html-keyboard-response","85","353742","0.0-85.0","4B8A4D6B25414251B03070A55B3D7D16","019ce7a8-e504-76d3-ae61-8148d7918dd7","019ce7a0-0965-7aa7-a556-174d32a8e773","","null","
                    <div class=""stimulus-container"">
                        <img src=""images/causal_sequence/museum_causal/museum_causal_7.png"" class=""exp-image"">
                        <div class=""question-area""></div> 
                    </div>","null","","","","","","",""
"","","","","","html-button-response","86","354243","0.0-86.0","4B8A4D6B25414251B03070A55B3D7D16","019ce7a8-e504-76d3-ae61-8148d7918dd7","019ce7a0-0965-7aa7-a556-174d32a8e773","","501","
                    <div class=""stimulus-container"">
                        <img src=""images/causal_sequence/museum_causal/museum_causal_7.png"" class=""exp-image"">
                        <div class=""question-area"">
                            <p style=""font-size: 20px; font-weight: bold; margin: 0;"">Is there a person in this image?</p>
                        </div>
                    </div>","1","main_causal_task","7","museum_causal","","","",""
"","","","","","html-keyboard-response","87","359252","0.0-87.0","4B8A4D6B25414251B03070A55B3D7D16","019ce7a8-e504-76d3-ae61-8148d7918dd7","019ce7a0-0965-7aa7-a556-174d32a8e773","","null","
                    <div class=""stimulus-container"">
                        <img src=""images/causal_sequence/museum_causal/museum_causal_8.png"" class=""exp-image"">
                        <div class=""question-area""></div> 
                    </div>","null","","","","","","",""
"","","","","","html-button-response","88","359691","0.0-88.0","4B8A4D6B25414251B03070A55B3D7D16","019ce7a8-e504-76d3-ae61-8148d7918dd7","019ce7a0-0965-7aa7-a556-174d32a8e773","","439","
                    <div class=""stimulus-container"">
                        <img src=""images/causal_sequence/museum_causal/museum_causal_8.png"" class=""exp-image"">
                        <div class=""question-area"">
                            <p style=""font-size: 20px; font-weight: bold; margin: 0;"">Is there a person in this image?</p>
                        </div>
                    </div>","0","main_causal_task","8","museum_causal","","","",""
"","","","","","html-keyboard-response","89","364707","0.0-89.0","4B8A4D6B25414251B03070A55B3D7D16","019ce7a8-e504-76d3-ae61-8148d7918dd7","019ce7a0-0965-7aa7-a556-174d32a8e773","","null","
                    <div class=""stimulus-container"">
                        <img src=""images/causal_sequence/museum_causal/museum_causal_9.png"" class=""exp-image"">
                        <div class=""question-area""></div> 
                    </div>","null","","","","","","",""
"","","","","","html-button-response","90","365069","0.0-90.0","4B8A4D6B25414251B03070A55B3D7D16","019ce7a8-e504-76d3-ae61-8148d7918dd7","019ce7a0-0965-7aa7-a556-174d32a8e773","","361","
                    <div class=""stimulus-container"">
                        <img src=""images/causal_sequence/museum_causal/museum_causal_9.png"" class=""exp-image"">
                        <div class=""question-area"">
                            <p style=""font-size: 20px; font-weight: bold; margin: 0;"">Is there a person in this image?</p>
                        </div>
                    </div>","1","main_causal_task","9","museum_causal","","","",""
"","","","","","html-keyboard-response","91","366069","0.0-91.0","4B8A4D6B25414251B03070A55B3D7D16","019ce7a8-e504-76d3-ae61-8148d7918dd7","019ce7a0-0965-7aa7-a556-174d32a8e773","","null","<div style=""background-color: gray; width: 100vw; height: 100vh;""></div>","null","","","","","","",""
"","","","","","html-keyboard-response","92","371075","0.0-92.0","4B8A4D6B25414251B03070A55B3D7D16","019ce7a8-e504-76d3-ae61-8148d7918dd7","019ce7a0-0965-7aa7-a556-174d32a8e773","","null","
                    <div class=""stimulus-container"">
                        <img src=""images/causal_sequence/package_causal/package_causal_1.png"" class=""exp-image"">
                        <div class=""question-area""></div> 
                    </div>","null","","","","","","",""
"","","","","","html-button-response","93","371646","0.0-93.0","4B8A4D6B25414251B03070A55B3D7D16","019ce7a8-e504-76d3-ae61-8148d7918dd7","019ce7a0-0965-7aa7-a556-174d32a8e773","","570","
                    <div class=""stimulus-container"">
                        <img src=""images/causal_sequence/package_causal/package_causal_1.png"" class=""exp-image"">
                        <div class=""question-area"">
                            <p style=""font-size: 20px; font-weight: bold; margin: 0;"">Is there a person in this image?</p>
                        </div>
                    </div>","0","main_causal_task","1","package_causal","","","",""
"","","","","","html-keyboard-response","94","376646","0.0-94.0","4B8A4D6B25414251B03070A55B3D7D16","019ce7a8-e504-76d3-ae61-8148d7918dd7","019ce7a0-0965-7aa7-a556-174d32a8e773","","null","
                    <div class=""stimulus-container"">
                        <img src=""images/causal_sequence/package_causal/package_causal_2.png"" class=""exp-image"">
                        <div class=""question-area""></div> 
                    </div>","null","","","","","","",""
"","","","","","html-button-response","95","377043","0.0-95.0","4B8A4D6B25414251B03070A55B3D7D16","019ce7a8-e504-76d3-ae61-8148d7918dd7","019ce7a0-0965-7aa7-a556-174d32a8e773","","397","
                    <div class=""stimulus-container"">
                        <img src=""images/causal_sequence/package_causal/package_causal_2.png"" class=""exp-image"">
                        <div class=""question-area"">
                            <p style=""font-size: 20px; font-weight: bold; margin: 0;"">Is there a person in this image?</p>
                        </div>
                    </div>","0","main_causal_task","2","package_causal","","","",""
"","","","","","html-keyboard-response","96","382057","0.0-96.0","4B8A4D6B25414251B03070A55B3D7D16","019ce7a8-e504-76d3-ae61-8148d7918dd7","019ce7a0-0965-7aa7-a556-174d32a8e773","","null","
                    <div class=""stimulus-container"">
                        <img src=""images/causal_sequence/package_causal/package_causal_3.png"" class=""exp-image"">
                        <div class=""question-area""></div> 
                    </div>","null","","","","","","",""
"","","","","","html-button-response","97","382400","0.0-97.0","4B8A4D6B25414251B03070A55B3D7D16","019ce7a8-e504-76d3-ae61-8148d7918dd7","019ce7a0-0965-7aa7-a556-174d32a8e773","","343","
                    <div class=""stimulus-container"">
                        <img src=""images/causal_sequence/package_causal/package_causal_3.png"" class=""exp-image"">
                        <div class=""question-area"">
                            <p style=""font-size: 20px; font-weight: bold; margin: 0;"">Is there a person in this image?</p>
                        </div>
                    </div>","0","main_causal_task","3","package_causal","","","",""
"","","","","","html-keyboard-response","98","387403","0.0-98.0","4B8A4D6B25414251B03070A55B3D7D16","019ce7a8-e504-76d3-ae61-8148d7918dd7","019ce7a0-0965-7aa7-a556-174d32a8e773","","null","
                    <div class=""stimulus-container"">
                        <img src=""images/causal_sequence/package_causal/package_causal_4.png"" class=""exp-image"">
                        <div class=""question-area""></div> 
                    </div>","null","","","","","","",""
"","","","","","html-button-response","99","390408","0.0-99.0","4B8A4D6B25414251B03070A55B3D7D16","019ce7a8-e504-76d3-ae61-8148d7918dd7","019ce7a0-0965-7aa7-a556-174d32a8e773","","null","
                    <div class=""stimulus-container"">
                        <img src=""images/causal_sequence/package_causal/package_causal_4.png"" class=""exp-image"">
                        <div class=""question-area"">
                            <p style=""font-size: 20px; font-weight: bold; margin: 0;"">Is there a person in this image?</p>
                        </div>
                    </div>","null","main_causal_task","4","package_causal","","","",""
"","","","","","html-keyboard-response","100","395409","0.0-100.0","4B8A4D6B25414251B03070A55B3D7D16","019ce7a8-e504-76d3-ae61-8148d7918dd7","019ce7a0-0965-7aa7-a556-174d32a8e773","","null","
                    <div class=""stimulus-container"">
                        <img src=""images/causal_sequence/package_causal/package_causal_5.png"" class=""exp-image"">
                        <div class=""question-area""></div> 
                    </div>","null","","","","","","",""
"","","","","","html-button-response","101","396238","0.0-101.0","4B8A4D6B25414251B03070A55B3D7D16","019ce7a8-e504-76d3-ae61-8148d7918dd7","019ce7a0-0965-7aa7-a556-174d32a8e773","","829","
                    <div class=""stimulus-container"">
                        <img src=""images/causal_sequence/package_causal/package_causal_5.png"" class=""exp-image"">
                        <div class=""question-area"">
                            <p style=""font-size: 20px; font-weight: bold; margin: 0;"">Is there a person in this image?</p>
                        </div>
                    </div>","0","main_causal_task","5","package_causal","","","",""
"","","","","","html-keyboard-response","102","401249","0.0-102.0","4B8A4D6B25414251B03070A55B3D7D16","019ce7a8-e504-76d3-ae61-8148d7918dd7","019ce7a0-0965-7aa7-a556-174d32a8e773","","null","
                    <div class=""stimulus-container"">
                        <img src=""images/causal_sequence/package_causal/package_causal_6.png"" class=""exp-image"">
                        <div class=""question-area""></div> 
                    </div>","null","","","","","","",""
"","","","","","html-button-response","103","401905","0.0-103.0","4B8A4D6B25414251B03070A55B3D7D16","019ce7a8-e504-76d3-ae61-8148d7918dd7","019ce7a0-0965-7aa7-a556-174d32a8e773","","656","
                    <div class=""stimulus-container"">
                        <img src=""images/causal_sequence/package_causal/package_causal_6.png"" class=""exp-image"">
                        <div class=""question-area"">
                            <p style=""font-size: 20px; font-weight: bold; margin: 0;"">Is there a person in this image?</p>
                        </div>
                    </div>","0","main_causal_task","6","package_causal","","","",""
"","","","","","html-keyboard-response","104","406907","0.0-104.0","4B8A4D6B25414251B03070A55B3D7D16","019ce7a8-e504-76d3-ae61-8148d7918dd7","019ce7a0-0965-7aa7-a556-174d32a8e773","","null","
                    <div class=""stimulus-container"">
                        <img src=""images/causal_sequence/package_causal/package_causal_7.png"" class=""exp-image"">
                        <div class=""question-area""></div> 
                    </div>","null","","","","","","",""
"","","","","","html-button-response","105","407687","0.0-105.0","4B8A4D6B25414251B03070A55B3D7D16","019ce7a8-e504-76d3-ae61-8148d7918dd7","019ce7a0-0965-7aa7-a556-174d32a8e773","","780","
                    <div class=""stimulus-container"">
                        <img src=""images/causal_sequence/package_causal/package_causal_7.png"" class=""exp-image"">
                        <div class=""question-area"">
                            <p style=""font-size: 20px; font-weight: bold; margin: 0;"">Is there a person in this image?</p>
                        </div>
                    </div>","0","main_causal_task","7","package_causal","","","",""
"","","","","","html-keyboard-response","106","412702","0.0-106.0","4B8A4D6B25414251B03070A55B3D7D16","019ce7a8-e504-76d3-ae61-8148d7918dd7","019ce7a0-0965-7aa7-a556-174d32a8e773","","null","
                    <div class=""stimulus-container"">
                        <img src=""images/causal_sequence/package_causal/package_causal_8.png"" class=""exp-image"">
                        <div class=""question-area""></div> 
                    </div>","null","","","","","","",""
"","","","","","html-button-response","107","413636","0.0-107.0","4B8A4D6B25414251B03070A55B3D7D16","019ce7a8-e504-76d3-ae61-8148d7918dd7","019ce7a0-0965-7aa7-a556-174d32a8e773","","933","
                    <div class=""stimulus-container"">
                        <img src=""images/causal_sequence/package_causal/package_causal_8.png"" class=""exp-image"">
                        <div class=""question-area"">
                            <p style=""font-size: 20px; font-weight: bold; margin: 0;"">Is there a person in this image?</p>
                        </div>
                    </div>","0","main_causal_task","8","package_causal","","","",""
"","","","","","html-keyboard-response","108","418638","0.0-108.0","4B8A4D6B25414251B03070A55B3D7D16","019ce7a8-e504-76d3-ae61-8148d7918dd7","019ce7a0-0965-7aa7-a556-174d32a8e773","","null","
                    <div class=""stimulus-container"">
                        <img src=""images/causal_sequence/package_causal/package_causal_9.png"" class=""exp-image"">
                        <div class=""question-area""></div> 
                    </div>","null","","","","","","",""
"","","","","","html-button-response","109","420769","0.0-109.0","4B8A4D6B25414251B03070A55B3D7D16","019ce7a8-e504-76d3-ae61-8148d7918dd7","019ce7a0-0965-7aa7-a556-174d32a8e773","","2131","
                    <div class=""stimulus-container"">
                        <img src=""images/causal_sequence/package_causal/package_causal_9.png"" class=""exp-image"">
                        <div class=""question-area"">
                            <p style=""font-size: 20px; font-weight: bold; margin: 0;"">Is there a person in this image?</p>
                        </div>
                    </div>","0","main_causal_task","9","package_causal","","","",""
"","","","","","html-keyboard-response","110","421776","0.0-110.0","4B8A4D6B25414251B03070A55B3D7D16","019ce7a8-e504-76d3-ae61-8148d7918dd7","019ce7a0-0965-7aa7-a556-174d32a8e773","","null","<div style=""background-color: gray; width: 100vw; height: 100vh;""></div>","null","","","","","","",""
"","","","","","html-keyboard-response","111","426783","0.0-111.0","4B8A4D6B25414251B03070A55B3D7D16","019ce7a8-e504-76d3-ae61-8148d7918dd7","019ce7a0-0965-7aa7-a556-174d32a8e773","","null","
                    <div class=""stimulus-container"">
                        <img src=""images/causal_sequence/the_performance_causal/the_performance_causal_1.png"" class=""exp-image"">
                        <div class=""question-area""></div> 
                    </div>","null","","","","","","",""
"","","","","","html-button-response","112","427537","0.0-112.0","4B8A4D6B25414251B03070A55B3D7D16","019ce7a8-e504-76d3-ae61-8148d7918dd7","019ce7a0-0965-7aa7-a556-174d32a8e773","","754","
                    <div class=""stimulus-container"">
                        <img src=""images/causal_sequence/the_performance_causal/the_performance_causal_1.png"" class=""exp-image"">
                        <div class=""question-area"">
                            <p style=""font-size: 20px; font-weight: bold; margin: 0;"">Is there a person in this image?</p>
                        </div>
                    </div>","0","main_causal_task","1","the_performance_causal","","","",""
"","","","","","html-keyboard-response","113","432539","0.0-113.0","4B8A4D6B25414251B03070A55B3D7D16","019ce7a8-e504-76d3-ae61-8148d7918dd7","019ce7a0-0965-7aa7-a556-174d32a8e773","","null","
                    <div class=""stimulus-container"">
                        <img src=""images/causal_sequence/the_performance_causal/the_performance_causal_2.png"" class=""exp-image"">
                        <div class=""question-area""></div> 
                    </div>","null","","","","","","",""
"","","","","","html-button-response","114","433521","0.0-114.0","4B8A4D6B25414251B03070A55B3D7D16","019ce7a8-e504-76d3-ae61-8148d7918dd7","019ce7a0-0965-7aa7-a556-174d32a8e773","","982","
                    <div class=""stimulus-container"">
                        <img src=""images/causal_sequence/the_performance_causal/the_performance_causal_2.png"" class=""exp-image"">
                        <div class=""question-area"">
                            <p style=""font-size: 20px; font-weight: bold; margin: 0;"">Is there a person in this image?</p>
                        </div>
                    </div>","0","main_causal_task","2","the_performance_causal","","","",""
"","","","","","html-keyboard-response","115","438523","0.0-115.0","4B8A4D6B25414251B03070A55B3D7D16","019ce7a8-e504-76d3-ae61-8148d7918dd7","019ce7a0-0965-7aa7-a556-174d32a8e773","","null","
                    <div class=""stimulus-container"">
                        <img src=""images/causal_sequence/the_performance_causal/the_performance_causal_3.png"" class=""exp-image"">
                        <div class=""question-area""></div> 
                    </div>","null","","","","","","",""
"","","","","","html-button-response","116","439833","0.0-116.0","4B8A4D6B25414251B03070A55B3D7D16","019ce7a8-e504-76d3-ae61-8148d7918dd7","019ce7a0-0965-7aa7-a556-174d32a8e773","","1309","
                    <div class=""stimulus-container"">
                        <img src=""images/causal_sequence/the_performance_causal/the_performance_causal_3.png"" class=""exp-image"">
                        <div class=""question-area"">
                            <p style=""font-size: 20px; font-weight: bold; margin: 0;"">Is there a person in this image?</p>
                        </div>
                    </div>","0","main_causal_task","3","the_performance_causal","","","",""
"","","","","","html-keyboard-response","117","444837","0.0-117.0","4B8A4D6B25414251B03070A55B3D7D16","019ce7a8-e504-76d3-ae61-8148d7918dd7","019ce7a0-0965-7aa7-a556-174d32a8e773","","null","
                    <div class=""stimulus-container"">
                        <img src=""images/causal_sequence/the_performance_causal/the_performance_causal_4.png"" class=""exp-image"">
                        <div class=""question-area""></div> 
                    </div>","null","","","","","","",""
"","","","","","html-button-response","118","445595","0.0-118.0","4B8A4D6B25414251B03070A55B3D7D16","019ce7a8-e504-76d3-ae61-8148d7918dd7","019ce7a0-0965-7aa7-a556-174d32a8e773","","758","
                    <div class=""stimulus-container"">
                        <img src=""images/causal_sequence/the_performance_causal/the_performance_causal_4.png"" class=""exp-image"">
                        <div class=""question-area"">
                            <p style=""font-size: 20px; font-weight: bold; margin: 0;"">Is there a person in this image?</p>
                        </div>
                    </div>","0","main_causal_task","4","the_performance_causal","","","",""
"","","","","","html-keyboard-response","119","450598","0.0-119.0","4B8A4D6B25414251B03070A55B3D7D16","019ce7a8-e504-76d3-ae61-8148d7918dd7","019ce7a0-0965-7aa7-a556-174d32a8e773","","null","
                    <div class=""stimulus-container"">
                        <img src=""images/causal_sequence/the_performance_causal/the_performance_causal_5.png"" class=""exp-image"">
                        <div class=""question-area""></div> 
                    </div>","null","","","","","","",""
"","","","","","html-button-response","120","451720","0.0-120.0","4B8A4D6B25414251B03070A55B3D7D16","019ce7a8-e504-76d3-ae61-8148d7918dd7","019ce7a0-0965-7aa7-a556-174d32a8e773","","1122","
                    <div class=""stimulus-container"">
                        <img src=""images/causal_sequence/the_performance_causal/the_performance_causal_5.png"" class=""exp-image"">
                        <div class=""question-area"">
                            <p style=""font-size: 20px; font-weight: bold; margin: 0;"">Is there a person in this image?</p>
                        </div>
                    </div>","0","main_causal_task","5","the_performance_causal","","","",""
"","","","","","html-keyboard-response","121","456722","0.0-121.0","4B8A4D6B25414251B03070A55B3D7D16","019ce7a8-e504-76d3-ae61-8148d7918dd7","019ce7a0-0965-7aa7-a556-174d32a8e773","","null","
                    <div class=""stimulus-container"">
                        <img src=""images/causal_sequence/the_performance_causal/the_performance_causal_6.png"" class=""exp-image"">
                        <div class=""question-area""></div> 
                    </div>","null","","","","","","",""
"","","","","","html-button-response","122","457844","0.0-122.0","4B8A4D6B25414251B03070A55B3D7D16","019ce7a8-e504-76d3-ae61-8148d7918dd7","019ce7a0-0965-7aa7-a556-174d32a8e773","","1122","
                    <div class=""stimulus-container"">
                        <img src=""images/causal_sequence/the_performance_causal/the_performance_causal_6.png"" class=""exp-image"">
                        <div class=""question-area"">
                            <p style=""font-size: 20px; font-weight: bold; margin: 0;"">Is there a person in this image?</p>
                        </div>
                    </div>","0","main_causal_task","6","the_performance_causal","","","",""
"","","","","","html-keyboard-response","123","462853","0.0-123.0","4B8A4D6B25414251B03070A55B3D7D16","019ce7a8-e504-76d3-ae61-8148d7918dd7","019ce7a0-0965-7aa7-a556-174d32a8e773","","null","
                    <div class=""stimulus-container"">
                        <img src=""images/causal_sequence/the_performance_causal/the_performance_causal_7.png"" class=""exp-image"">
                        <div class=""question-area""></div> 
                    </div>","null","","","","","","",""
"","","","","","html-button-response","124","464193","0.0-124.0","4B8A4D6B25414251B03070A55B3D7D16","019ce7a8-e504-76d3-ae61-8148d7918dd7","019ce7a0-0965-7aa7-a556-174d32a8e773","","1339","
                    <div class=""stimulus-container"">
                        <img src=""images/causal_sequence/the_performance_causal/the_performance_causal_7.png"" class=""exp-image"">
                        <div class=""question-area"">
                            <p style=""font-size: 20px; font-weight: bold; margin: 0;"">Is there a person in this image?</p>
                        </div>
                    </div>","0","main_causal_task","7","the_performance_causal","","","",""
"","","","","","html-keyboard-response","125","469195","0.0-125.0","4B8A4D6B25414251B03070A55B3D7D16","019ce7a8-e504-76d3-ae61-8148d7918dd7","019ce7a0-0965-7aa7-a556-174d32a8e773","","null","
                    <div class=""stimulus-container"">
                        <img src=""images/causal_sequence/the_performance_causal/the_performance_causal_8.png"" class=""exp-image"">
                        <div class=""question-area""></div> 
                    </div>","null","","","","","","",""
"","","","","","html-button-response","126","471489","0.0-126.0","4B8A4D6B25414251B03070A55B3D7D16","019ce7a8-e504-76d3-ae61-8148d7918dd7","019ce7a0-0965-7aa7-a556-174d32a8e773","","2294","
                    <div class=""stimulus-container"">
                        <img src=""images/causal_sequence/the_performance_causal/the_performance_causal_8.png"" class=""exp-image"">
                        <div class=""question-area"">
                            <p style=""font-size: 20px; font-weight: bold; margin: 0;"">Is there a person in this image?</p>
                        </div>
                    </div>","0","main_causal_task","8","the_performance_causal","","","",""
"","","","","","html-keyboard-response","127","476492","0.0-127.0","4B8A4D6B25414251B03070A55B3D7D16","019ce7a8-e504-76d3-ae61-8148d7918dd7","019ce7a0-0965-7aa7-a556-174d32a8e773","","null","
                    <div class=""stimulus-container"">
                        <img src=""images/causal_sequence/the_performance_causal/the_performance_causal_9.png"" class=""exp-image"">
                        <div class=""question-area""></div> 
                    </div>","null","","","","","","",""
"","","","","","html-button-response","128","477751","0.0-128.0","4B8A4D6B25414251B03070A55B3D7D16","019ce7a8-e504-76d3-ae61-8148d7918dd7","019ce7a0-0965-7aa7-a556-174d32a8e773","","1259","
                    <div class=""stimulus-container"">
                        <img src=""images/causal_sequence/the_performance_causal/the_performance_causal_9.png"" class=""exp-image"">
                        <div class=""question-area"">
                            <p style=""font-size: 20px; font-weight: bold; margin: 0;"">Is there a person in this image?</p>
                        </div>
                    </div>","0","main_causal_task","9","the_performance_causal","","","",""
"","","","","","instructions","129","478609","0.0-129.0","4B8A4D6B25414251B03070A55B3D7D16","019ce7a8-e504-76d3-ae61-8148d7918dd7","019ce7a0-0965-7aa7-a556-174d32a8e773","[{""page_index"":0,""viewing_time"":858}]","858","","","","","","","","",""
"","","","","","instructions","130","485300","0.0-130.0","4B8A4D6B25414251B03070A55B3D7D16","019ce7a8-e504-76d3-ae61-8148d7918dd7","019ce7a0-0965-7aa7-a556-174d32a8e773","[{""page_index"":0,""viewing_time"":6690}]","6690","","","","","","","","",""
"","","","","","html-keyboard-response","131","486305","0.0-131.0","4B8A4D6B25414251B03070A55B3D7D16","019ce7a8-e504-76d3-ae61-8148d7918dd7","019ce7a0-0965-7aa7-a556-174d32a8e773","","null","
        <div class=""stimulus-container"" style=""display: flex; align-items: center; justify-content: center; gap: 30px;"">
            <img src=""images/instructions/movie_1.png"" class=""exp-image"">
            <div style=""font-size: 40px; font-weight: bold; color: green; border: 5px solid green; padding: 25px; border-radius: 15px; background-color: #f0fff0;"">
                WORTH<br>$1
            </div>
        </div>
        <div class=""question-area""></div>","null","","","","","","",""
"","","","","","html-button-response","132","487703","0.0-132.0","4B8A4D6B25414251B03070A55B3D7D16","019ce7a8-e504-76d3-ae61-8148d7918dd7","019ce7a0-0965-7aa7-a556-174d32a8e773","","1398","
        <div class=""stimulus-container"" style=""display: flex; align-items: center; justify-content: center; gap: 30px;"">
            <img src=""images/instructions/movie_1.png"" class=""exp-image"">
            <div style=""font-size: 40px; font-weight: bold; color: green; border: 5px solid green; padding: 25px; border-radius: 15px; background-color: #f0fff0;"">
                WORTH<br>$1
            </div>
        </div>
        <div class=""question-area"">
            <p style=""font-size: 20px; font-weight: bold; margin: 0;"">Was there a person in this image?</p>
        </div>","0","","","","","","",""
"","","","","","instructions","133","494203","0.0-133.0","4B8A4D6B25414251B03070A55B3D7D16","019ce7a8-e504-76d3-ae61-8148d7918dd7","019ce7a0-0965-7aa7-a556-174d32a8e773","[{""page_index"":0,""viewing_time"":6499}]","6499","","","","","","","","",""
"","","","","","html-keyboard-response","134","504216","0.0-134.0","4B8A4D6B25414251B03070A55B3D7D16","019ce7a8-e504-76d3-ae61-8148d7918dd7","019ce7a0-0965-7aa7-a556-174d32a8e773","","null","
            <div class=""stimulus-container"" style=""display: flex; align-items: center; justify-content: center; gap: 30px;"">
                <img src=""images/causal_sequence/the_performance_causal/the_performance_causal_5.png"" class=""exp-image"">
                <div style=""font-size: 40px; font-weight: bold; color: green; border: 5px solid green; padding: 25px; border-radius: 15px; background-color: #f0fff0;"">
                    WORTH<br>$1
                </div>
            </div>
            <div class=""question-area""></div>","null","","","","","","",""
"","","","","","html-button-response","135","506217","0.0-135.0","4B8A4D6B25414251B03070A55B3D7D16","019ce7a8-e504-76d3-ae61-8148d7918dd7","019ce7a0-0965-7aa7-a556-174d32a8e773","","2001","
            <div class=""stimulus-container"" style=""display: flex; align-items: center; justify-content: center; gap: 30px;"">
                <img src=""images/causal_sequence/the_performance_causal/the_performance_causal_5.png"" class=""exp-image"">
                <div style=""font-size: 40px; font-weight: bold; color: green; border: 5px solid green; padding: 25px; border-radius: 15px; background-color: #f0fff0;"">
                    WORTH<br>$1
                </div>
            </div>
            <div class=""question-area"">
                <p style=""font-size: 20px; font-weight: bold; margin: 0;"">Was there a person in this image?</p>
            </div>","0","part2_value_learning","","the_performance_causal","5","","",""
"","","","","","html-keyboard-response","136","516221","0.0-136.0","4B8A4D6B25414251B03070A55B3D7D16","019ce7a8-e504-76d3-ae61-8148d7918dd7","019ce7a0-0965-7aa7-a556-174d32a8e773","","null","
            <div class=""stimulus-container"" style=""display: flex; align-items: center; justify-content: center; gap: 30px;"">
                <img src=""images/causal_sequence/coin_causal/coin_causal_5.png"" class=""exp-image"">
                <div style=""font-size: 40px; font-weight: bold; color: green; border: 5px solid green; padding: 25px; border-radius: 15px; background-color: #f0fff0;"">
                    WORTH<br>$1
                </div>
            </div>
            <div class=""question-area""></div>","null","","","","","","",""
"","","","","","html-button-response","137","517456","0.0-137.0","4B8A4D6B25414251B03070A55B3D7D16","019ce7a8-e504-76d3-ae61-8148d7918dd7","019ce7a0-0965-7aa7-a556-174d32a8e773","","1235","
            <div class=""stimulus-container"" style=""display: flex; align-items: center; justify-content: center; gap: 30px;"">
                <img src=""images/causal_sequence/coin_causal/coin_causal_5.png"" class=""exp-image"">
                <div style=""font-size: 40px; font-weight: bold; color: green; border: 5px solid green; padding: 25px; border-radius: 15px; background-color: #f0fff0;"">
                    WORTH<br>$1
                </div>
            </div>
            <div class=""question-area"">
                <p style=""font-size: 20px; font-weight: bold; margin: 0;"">Was there a person in this image?</p>
            </div>","0","part2_value_learning","","coin_causal","5","","",""
"","","","","","html-keyboard-response","138","527470","0.0-138.0","4B8A4D6B25414251B03070A55B3D7D16","019ce7a8-e504-76d3-ae61-8148d7918dd7","019ce7a0-0965-7aa7-a556-174d32a8e773","","null","
            <div class=""stimulus-container"" style=""display: flex; align-items: center; justify-content: center; gap: 30px;"">
                <img src=""images/causal_sequence/saving_a_cat_causal/saving_a_cat_causal_5.png"" class=""exp-image"">
                <div style=""font-size: 40px; font-weight: bold; color: green; border: 5px solid green; padding: 25px; border-radius: 15px; background-color: #f0fff0;"">
                    WORTH<br>$1
                </div>
            </div>
            <div class=""question-area""></div>","null","","","","","","",""
"","","","","","html-button-response","139","528676","0.0-139.0","4B8A4D6B25414251B03070A55B3D7D16","019ce7a8-e504-76d3-ae61-8148d7918dd7","019ce7a0-0965-7aa7-a556-174d32a8e773","","1205","
            <div class=""stimulus-container"" style=""display: flex; align-items: center; justify-content: center; gap: 30px;"">
                <img src=""images/causal_sequence/saving_a_cat_causal/saving_a_cat_causal_5.png"" class=""exp-image"">
                <div style=""font-size: 40px; font-weight: bold; color: green; border: 5px solid green; padding: 25px; border-radius: 15px; background-color: #f0fff0;"">
                    WORTH<br>$1
                </div>
            </div>
            <div class=""question-area"">
                <p style=""font-size: 20px; font-weight: bold; margin: 0;"">Was there a person in this image?</p>
            </div>","0","part2_value_learning","","saving_a_cat_causal","5","","",""
"","","","","","html-keyboard-response","140","538679","0.0-140.0","4B8A4D6B25414251B03070A55B3D7D16","019ce7a8-e504-76d3-ae61-8148d7918dd7","019ce7a0-0965-7aa7-a556-174d32a8e773","","null","
            <div class=""stimulus-container"" style=""display: flex; align-items: center; justify-content: center; gap: 30px;"">
                <img src=""images/causal_sequence/museum_causal/museum_causal_7.png"" class=""exp-image"">
                <div style=""font-size: 40px; font-weight: bold; color: green; border: 5px solid green; padding: 25px; border-radius: 15px; background-color: #f0fff0;"">
                    WORTH<br>$1
                </div>
            </div>
            <div class=""question-area""></div>","null","","","","","","",""
"","","","","","html-button-response","141","539171","0.0-141.0","4B8A4D6B25414251B03070A55B3D7D16","019ce7a8-e504-76d3-ae61-8148d7918dd7","019ce7a0-0965-7aa7-a556-174d32a8e773","","491","
            <div class=""stimulus-container"" style=""display: flex; align-items: center; justify-content: center; gap: 30px;"">
                <img src=""images/causal_sequence/museum_causal/museum_causal_7.png"" class=""exp-image"">
                <div style=""font-size: 40px; font-weight: bold; color: green; border: 5px solid green; padding: 25px; border-radius: 15px; background-color: #f0fff0;"">
                    WORTH<br>$1
                </div>
            </div>
            <div class=""question-area"">
                <p style=""font-size: 20px; font-weight: bold; margin: 0;"">Was there a person in this image?</p>
            </div>","1","part2_value_learning","","museum_causal","7","","",""
"","","","","","html-keyboard-response","142","549174","0.0-142.0","4B8A4D6B25414251B03070A55B3D7D16","019ce7a8-e504-76d3-ae61-8148d7918dd7","019ce7a0-0965-7aa7-a556-174d32a8e773","","null","
            <div class=""stimulus-container"" style=""display: flex; align-items: center; justify-content: center; gap: 30px;"">
                <img src=""images/causal_sequence/dog_causal/dog_causal_6.png"" class=""exp-image"">
                <div style=""font-size: 40px; font-weight: bold; color: green; border: 5px solid green; padding: 25px; border-radius: 15px; background-color: #f0fff0;"">
                    WORTH<br>$1
                </div>
            </div>
            <div class=""question-area""></div>","null","","","","","","",""
"","","","","","html-button-response","143","550859","0.0-143.0","4B8A4D6B25414251B03070A55B3D7D16","019ce7a8-e504-76d3-ae61-8148d7918dd7","019ce7a0-0965-7aa7-a556-174d32a8e773","","1685","
            <div class=""stimulus-container"" style=""display: flex; align-items: center; justify-content: center; gap: 30px;"">
                <img src=""images/causal_sequence/dog_causal/dog_causal_6.png"" class=""exp-image"">
                <div style=""font-size: 40px; font-weight: bold; color: green; border: 5px solid green; padding: 25px; border-radius: 15px; background-color: #f0fff0;"">
                    WORTH<br>$1
                </div>
            </div>
            <div class=""question-area"">
                <p style=""font-size: 20px; font-weight: bold; margin: 0;"">Was there a person in this image?</p>
            </div>","0","part2_value_learning","","dog_causal","6","","",""
"","","","","","html-keyboard-response","144","560861","0.0-144.0","4B8A4D6B25414251B03070A55B3D7D16","019ce7a8-e504-76d3-ae61-8148d7918dd7","019ce7a0-0965-7aa7-a556-174d32a8e773","","null","
            <div class=""stimulus-container"" style=""display: flex; align-items: center; justify-content: center; gap: 30px;"">
                <img src=""images/causal_sequence/package_causal/package_causal_6.png"" class=""exp-image"">
                <div style=""font-size: 40px; font-weight: bold; color: green; border: 5px solid green; padding: 25px; border-radius: 15px; background-color: #f0fff0;"">
                    WORTH<br>$1
                </div>
            </div>
            <div class=""question-area""></div>","null","","","","","","",""
"","","","","","html-button-response","145","562961","0.0-145.0","4B8A4D6B25414251B03070A55B3D7D16","019ce7a8-e504-76d3-ae61-8148d7918dd7","019ce7a0-0965-7aa7-a556-174d32a8e773","","2099","
            <div class=""stimulus-container"" style=""display: flex; align-items: center; justify-content: center; gap: 30px;"">
                <img src=""images/causal_sequence/package_causal/package_causal_6.png"" class=""exp-image"">
                <div style=""font-size: 40px; font-weight: bold; color: green; border: 5px solid green; padding: 25px; border-radius: 15px; background-color: #f0fff0;"">
                    WORTH<br>$1
                </div>
            </div>
            <div class=""question-area"">
                <p style=""font-size: 20px; font-weight: bold; margin: 0;"">Was there a person in this image?</p>
            </div>","0","part2_value_learning","","package_causal","6","","",""
"","","","","","instructions","146","564187","0.0-146.0","4B8A4D6B25414251B03070A55B3D7D16","019ce7a8-e504-76d3-ae61-8148d7918dd7","019ce7a0-0965-7aa7-a556-174d32a8e773","[{""page_index"":0,""viewing_time"":1226}]","1226","","","","","","","","",""
"","","","","","instructions","147","564935","0.0-147.0","4B8A4D6B25414251B03070A55B3D7D16","019ce7a8-e504-76d3-ae61-8148d7918dd7","019ce7a0-0965-7aa7-a556-174d32a8e773","[{""page_index"":0,""viewing_time"":748}]","748","","","","","","","","",""
"","","","","","html-keyboard-response","148","574944","0.0-148.0-0.0","4B8A4D6B25414251B03070A55B3D7D16","019ce7a8-e504-76d3-ae61-8148d7918dd7","019ce7a0-0965-7aa7-a556-174d32a8e773","","null","
                        <div style=""font-family: Arial; margin-bottom: 20px;""><h3>Which image is more valuable?</h3></div>
                        <div class=""stimulus-container"" style=""display: flex; width: 1100px; justify-content: center; gap: 50px;"">
                            <img src=""images/causal_sequence/dog_causal/dog_causal_4.png"" class=""exp-image"">
                            <img src=""images/causal_sequence/dog_causal/dog_causal_8.png"" class=""exp-image"">
                        </div>","null","","","","","","",""
"","","","","","html-button-response","149","579396","0.0-148.0-1.0","4B8A4D6B25414251B03070A55B3D7D16","019ce7a8-e504-76d3-ae61-8148d7918dd7","019ce7a0-0965-7aa7-a556-174d32a8e773","","4451","
                        <div style=""font-family: Arial; margin-bottom: 20px;""><h3>Which image is more valuable?</h3></div>
                        <div class=""stimulus-container"" style=""display: flex; width: 1100px; justify-content: center; gap: 50px;"">
                            <img src=""images/causal_sequence/dog_causal/dog_causal_4.png"" class=""exp-image"">
                            <img src=""images/causal_sequence/dog_causal/dog_causal_8.png"" class=""exp-image"">
                        </div>","1","part3_final_choice","","dog_causal","","6","8","2"
"","","","","","html-keyboard-response","150","589397","0.0-149.0-0.0","4B8A4D6B25414251B03070A55B3D7D16","019ce7a8-e504-76d3-ae61-8148d7918dd7","019ce7a0-0965-7aa7-a556-174d32a8e773","","null","
                        <div style=""font-family: Arial; margin-bottom: 20px;""><h3>Which image is more valuable?</h3></div>
                        <div class=""stimulus-container"" style=""display: flex; width: 1100px; justify-content: center; gap: 50px;"">
                            <img src=""images/causal_sequence/museum_causal/museum_causal_9.png"" class=""exp-image"">
                            <img src=""images/causal_sequence/museum_causal/museum_causal_5.png"" class=""exp-image"">
                        </div>","null","","","","","","",""
"","","","","","html-button-response","151","590570","0.0-149.0-1.0","4B8A4D6B25414251B03070A55B3D7D16","019ce7a8-e504-76d3-ae61-8148d7918dd7","019ce7a0-0965-7aa7-a556-174d32a8e773","","1173","
                        <div style=""font-family: Arial; margin-bottom: 20px;""><h3>Which image is more valuable?</h3></div>
                        <div class=""stimulus-container"" style=""display: flex; width: 1100px; justify-content: center; gap: 50px;"">
                            <img src=""images/causal_sequence/museum_causal/museum_causal_9.png"" class=""exp-image"">
                            <img src=""images/causal_sequence/museum_causal/museum_causal_5.png"" class=""exp-image"">
                        </div>","1","part3_final_choice","","museum_causal","","7","5","-2"
"","","","","","html-keyboard-response","152","600574","0.0-150.0-0.0","4B8A4D6B25414251B03070A55B3D7D16","019ce7a8-e504-76d3-ae61-8148d7918dd7","019ce7a0-0965-7aa7-a556-174d32a8e773","","null","
                        <div style=""font-family: Arial; margin-bottom: 20px;""><h3>Which image is more valuable?</h3></div>
                        <div class=""stimulus-container"" style=""display: flex; width: 1100px; justify-content: center; gap: 50px;"">
                            <img src=""images/causal_sequence/the_performance_causal/the_performance_causal_3.png"" class=""exp-image"">
                            <img src=""images/causal_sequence/the_performance_causal/the_performance_causal_7.png"" class=""exp-image"">
                        </div>","null","","","","","","",""
"","","","","","html-button-response","153","601254","0.0-150.0-1.0","4B8A4D6B25414251B03070A55B3D7D16","019ce7a8-e504-76d3-ae61-8148d7918dd7","019ce7a0-0965-7aa7-a556-174d32a8e773","","679","
                        <div style=""font-family: Arial; margin-bottom: 20px;""><h3>Which image is more valuable?</h3></div>
                        <div class=""stimulus-container"" style=""display: flex; width: 1100px; justify-content: center; gap: 50px;"">
                            <img src=""images/causal_sequence/the_performance_causal/the_performance_causal_3.png"" class=""exp-image"">
                            <img src=""images/causal_sequence/the_performance_causal/the_performance_causal_7.png"" class=""exp-image"">
                        </div>","0","part3_final_choice","","the_performance_causal","","5","3","-2"
"","","","","","html-keyboard-response","154","611256","0.0-151.0-0.0","4B8A4D6B25414251B03070A55B3D7D16","019ce7a8-e504-76d3-ae61-8148d7918dd7","019ce7a0-0965-7aa7-a556-174d32a8e773","","null","
                        <div style=""font-family: Arial; margin-bottom: 20px;""><h3>Which image is more valuable?</h3></div>
                        <div class=""stimulus-container"" style=""display: flex; width: 1100px; justify-content: center; gap: 50px;"">
                            <img src=""images/causal_sequence/coin_causal/coin_causal_7.png"" class=""exp-image"">
                            <img src=""images/causal_sequence/coin_causal/coin_causal_3.png"" class=""exp-image"">
                        </div>","null","","","","","","",""
"","","","","","html-button-response","155","612079","0.0-151.0-1.0","4B8A4D6B25414251B03070A55B3D7D16","019ce7a8-e504-76d3-ae61-8148d7918dd7","019ce7a0-0965-7aa7-a556-174d32a8e773","","823","
                        <div style=""font-family: Arial; margin-bottom: 20px;""><h3>Which image is more valuable?</h3></div>
                        <div class=""stimulus-container"" style=""display: flex; width: 1100px; justify-content: center; gap: 50px;"">
                            <img src=""images/causal_sequence/coin_causal/coin_causal_7.png"" class=""exp-image"">
                            <img src=""images/causal_sequence/coin_causal/coin_causal_3.png"" class=""exp-image"">
                        </div>","1","part3_final_choice","","coin_causal","","5","3","-2"
"","","","","","html-keyboard-response","156","622091","0.0-152.0-0.0","4B8A4D6B25414251B03070A55B3D7D16","019ce7a8-e504-76d3-ae61-8148d7918dd7","019ce7a0-0965-7aa7-a556-174d32a8e773","","null","
                        <div style=""font-family: Arial; margin-bottom: 20px;""><h3>Which image is more valuable?</h3></div>
                        <div class=""stimulus-container"" style=""display: flex; width: 1100px; justify-content: center; gap: 50px;"">
                            <img src=""images/causal_sequence/saving_a_cat_causal/saving_a_cat_causal_7.png"" class=""exp-image"">
                            <img src=""images/causal_sequence/saving_a_cat_causal/saving_a_cat_causal_3.png"" class=""exp-image"">
                        </div>","null","","","","","","",""
"","","","","","html-button-response","157","623182","0.0-152.0-1.0","4B8A4D6B25414251B03070A55B3D7D16","019ce7a8-e504-76d3-ae61-8148d7918dd7","019ce7a0-0965-7aa7-a556-174d32a8e773","","1090","
                        <div style=""font-family: Arial; margin-bottom: 20px;""><h3>Which image is more valuable?</h3></div>
                        <div class=""stimulus-container"" style=""display: flex; width: 1100px; justify-content: center; gap: 50px;"">
                            <img src=""images/causal_sequence/saving_a_cat_causal/saving_a_cat_causal_7.png"" class=""exp-image"">
                            <img src=""images/causal_sequence/saving_a_cat_causal/saving_a_cat_causal_3.png"" class=""exp-image"">
                        </div>","0","part3_final_choice","","saving_a_cat_causal","","5","7","2"
"","","","","","html-keyboard-response","158","633190","0.0-153.0-0.0","4B8A4D6B25414251B03070A55B3D7D16","019ce7a8-e504-76d3-ae61-8148d7918dd7","019ce7a0-0965-7aa7-a556-174d32a8e773","","null","
                        <div style=""font-family: Arial; margin-bottom: 20px;""><h3>Which image is more valuable?</h3></div>
                        <div class=""stimulus-container"" style=""display: flex; width: 1100px; justify-content: center; gap: 50px;"">
                            <img src=""images/causal_sequence/package_causal/package_causal_4.png"" class=""exp-image"">
                            <img src=""images/causal_sequence/package_causal/package_causal_8.png"" class=""exp-image"">
                        </div>","null","","","","","","",""
"","","","","","html-button-response","159","634935","0.0-153.0-1.0","4B8A4D6B25414251B03070A55B3D7D16","019ce7a8-e504-76d3-ae61-8148d7918dd7","019ce7a0-0965-7aa7-a556-174d32a8e773","","1744","
                        <div style=""font-family: Arial; margin-bottom: 20px;""><h3>Which image is more valuable?</h3></div>
                        <div class=""stimulus-container"" style=""display: flex; width: 1100px; justify-content: center; gap: 50px;"">
                            <img src=""images/causal_sequence/package_causal/package_causal_4.png"" class=""exp-image"">
                            <img src=""images/causal_sequence/package_causal/package_causal_8.png"" class=""exp-image"">
                        </div>","1","part3_final_choice","","package_causal","","6","8","2"
"","","","","","survey-text","160","659212","0.0-154.0","4B8A4D6B25414251B03070A55B3D7D16","019ce7a8-e504-76d3-ae61-8148d7918dd7","019ce7a0-0965-7aa7-a556-174d32a8e773","","24274","","{""gender"":""MALE"",""age"":""25"",""decision_strategy"":""My guesses"",""consistency_check"":""Not really, didn't know it""}","demographics_and_strategy","","","","","",""
"","","","","","instructions","161","661751","0.0-155.0","4B8A4D6B25414251B03070A55B3D7D16","019ce7a8-e504-76d3-ae61-8148d7918dd7","019ce7a0-0965-7aa7-a556-174d32a8e773","[{""page_index"":0,""viewing_time"":2538}]","2539","","","","","","","","",""
