"success","timeout","failed_images","failed_audio","failed_video","trial_type","trial_index","time_elapsed","internal_node_id","subject_id","study_id","session_id","view_history","rt","stimulus","response","task","image_index","folder","sequence_type","valuable_image_index","reward_type","chosen_image_index","target_X","correct_choice"
"true","false","[]","[]","[]","preload","0","9470","0.0-0.0","867328F2B21F4860BC9390E63EB2538A","019cf709-5ba0-7206-b294-abffb985ced8","019cf6fe-235e-7d95-bb9b-b011d2fe188e","","","","","","","","","","","","",""
"","","","","","instructions","1","125582","0.0-1.0","867328F2B21F4860BC9390E63EB2538A","019cf709-5ba0-7206-b294-abffb985ced8","019cf6fe-235e-7d95-bb9b-b011d2fe188e","[{""page_index"":0,""viewing_time"":116111}]","116111","","","","","","","","","","",""
"","","","","","instructions","2","131492","0.0-2.0","867328F2B21F4860BC9390E63EB2538A","019cf709-5ba0-7206-b294-abffb985ced8","019cf6fe-235e-7d95-bb9b-b011d2fe188e","[{""page_index"":0,""viewing_time"":5907}]","5908","","","","","","","","","","",""
"true","","","","","fullscreen","3","134160","0.0-3.0","867328F2B21F4860BC9390E63EB2538A","019cf709-5ba0-7206-b294-abffb985ced8","019cf6fe-235e-7d95-bb9b-b011d2fe188e","","1660","","","","","","","","","","",""
"","","","","","instructions","4","141851","0.0-4.0","867328F2B21F4860BC9390E63EB2538A","019cf709-5ba0-7206-b294-abffb985ced8","019cf6fe-235e-7d95-bb9b-b011d2fe188e","[{""page_index"":0,""viewing_time"":7690}]","7690","","","","","","","","","","",""
"","","","","","instructions","5","146377","0.0-5.0","867328F2B21F4860BC9390E63EB2538A","019cf709-5ba0-7206-b294-abffb985ced8","019cf6fe-235e-7d95-bb9b-b011d2fe188e","[{""page_index"":0,""viewing_time"":4524}]","4525","","","","","","","","","","",""
"","","","","","html-keyboard-response","6","150381","0.0-6.0","867328F2B21F4860BC9390E63EB2538A","019cf709-5ba0-7206-b294-abffb985ced8","019cf6fe-235e-7d95-bb9b-b011d2fe188e","","null","
                <div class=""stimulus-container"">
                    <img src=""images/instructions/movie_1.png"" class=""exp-image"">
                    <div class=""question-area""></div> 
                </div>","null","","","","","","","","",""
"","","","","","html-button-response","7","152235","0.0-7.0","867328F2B21F4860BC9390E63EB2538A","019cf709-5ba0-7206-b294-abffb985ced8","019cf6fe-235e-7d95-bb9b-b011d2fe188e","","1849","
                <div class=""stimulus-container"">
                    <img src=""images/instructions/movie_1.png"" class=""exp-image"">
                    <div class=""question-area"">
                        <p style=""font-size: 20px; font-weight: bold; margin: 0;"">Was there a person in this image?</p>
                    </div>
                </div>","0","example_question","1","","","","","","",""
"","","","","","html-keyboard-response","8","156238","0.0-8.0","867328F2B21F4860BC9390E63EB2538A","019cf709-5ba0-7206-b294-abffb985ced8","019cf6fe-235e-7d95-bb9b-b011d2fe188e","","null","
                <div class=""stimulus-container"">
                    <img src=""images/instructions/movie_2.png"" class=""exp-image"">
                    <div class=""question-area""></div> 
                </div>","null","","","","","","","","",""
"","","","","","html-button-response","9","157455","0.0-9.0","867328F2B21F4860BC9390E63EB2538A","019cf709-5ba0-7206-b294-abffb985ced8","019cf6fe-235e-7d95-bb9b-b011d2fe188e","","1215","
                <div class=""stimulus-container"">
                    <img src=""images/instructions/movie_2.png"" class=""exp-image"">
                    <div class=""question-area"">
                        <p style=""font-size: 20px; font-weight: bold; margin: 0;"">Was there a person in this image?</p>
                    </div>
                </div>","0","example_question","2","","","","","","",""
"","","","","","html-keyboard-response","10","161469","0.0-10.0","867328F2B21F4860BC9390E63EB2538A","019cf709-5ba0-7206-b294-abffb985ced8","019cf6fe-235e-7d95-bb9b-b011d2fe188e","","null","
                <div class=""stimulus-container"">
                    <img src=""images/instructions/movie_3.png"" class=""exp-image"">
                    <div class=""question-area""></div> 
                </div>","null","","","","","","","","",""
"","","","","","html-button-response","11","162184","0.0-11.0","867328F2B21F4860BC9390E63EB2538A","019cf709-5ba0-7206-b294-abffb985ced8","019cf6fe-235e-7d95-bb9b-b011d2fe188e","","713","
                <div class=""stimulus-container"">
                    <img src=""images/instructions/movie_3.png"" class=""exp-image"">
                    <div class=""question-area"">
                        <p style=""font-size: 20px; font-weight: bold; margin: 0;"">Was there a person in this image?</p>
                    </div>
                </div>","0","example_question","3","","","","","","",""
"","","","","","html-keyboard-response","12","166187","0.0-12.0","867328F2B21F4860BC9390E63EB2538A","019cf709-5ba0-7206-b294-abffb985ced8","019cf6fe-235e-7d95-bb9b-b011d2fe188e","","null","
                <div class=""stimulus-container"">
                    <img src=""images/instructions/movie_4.png"" class=""exp-image"">
                    <div class=""question-area""></div> 
                </div>","null","","","","","","","","",""
"","","","","","html-button-response","13","166900","0.0-13.0","867328F2B21F4860BC9390E63EB2538A","019cf709-5ba0-7206-b294-abffb985ced8","019cf6fe-235e-7d95-bb9b-b011d2fe188e","","710","
                <div class=""stimulus-container"">
                    <img src=""images/instructions/movie_4.png"" class=""exp-image"">
                    <div class=""question-area"">
                        <p style=""font-size: 20px; font-weight: bold; margin: 0;"">Was there a person in this image?</p>
                    </div>
                </div>","0","example_question","4","","","","","","",""
"","","","","","instructions","14","168590","0.0-14.0","867328F2B21F4860BC9390E63EB2538A","019cf709-5ba0-7206-b294-abffb985ced8","019cf6fe-235e-7d95-bb9b-b011d2fe188e","[{""page_index"":0,""viewing_time"":1689}]","1690","","","","","","","","","","",""
"","","","","","instructions","15","170225","0.0-15.0","867328F2B21F4860BC9390E63EB2538A","019cf709-5ba0-7206-b294-abffb985ced8","019cf6fe-235e-7d95-bb9b-b011d2fe188e","[{""page_index"":0,""viewing_time"":1633}]","1633","","","","","","","","","","",""
"","","","","","html-keyboard-response","16","171226","0.0-16.0","867328F2B21F4860BC9390E63EB2538A","019cf709-5ba0-7206-b294-abffb985ced8","019cf6fe-235e-7d95-bb9b-b011d2fe188e","","null","<div style=""background-color: white; width: 100vw; height: 100vh;""></div>","null","","","","","","","","",""
"","","","","","html-keyboard-response","17","176228","0.0-17.0","867328F2B21F4860BC9390E63EB2538A","019cf709-5ba0-7206-b294-abffb985ced8","019cf6fe-235e-7d95-bb9b-b011d2fe188e","","null","
                <div class=""stimulus-container"">
                    <img src=""images/schematic_sequence/interview_scheme/interview_scheme_1.png"" class=""exp-image"">
                    <div class=""question-area""></div> 
                </div>","null","","","","","","","","",""
"","","","","","html-button-response","18","178600","0.0-18.0","867328F2B21F4860BC9390E63EB2538A","019cf709-5ba0-7206-b294-abffb985ced8","019cf6fe-235e-7d95-bb9b-b011d2fe188e","","2368","
                <div class=""stimulus-container"">
                    <img src=""images/schematic_sequence/interview_scheme/interview_scheme_1.png"" class=""exp-image"">
                    <div class=""question-area"">
                        <p style=""font-size: 20px; font-weight: bold; margin: 0;"">Is there a person in this image?</p>
                    </div>
                </div>","1","main_experiment_trial","1","interview_scheme","schematic_sequence","","","","",""
"","","","","","html-keyboard-response","19","183603","0.0-19.0","867328F2B21F4860BC9390E63EB2538A","019cf709-5ba0-7206-b294-abffb985ced8","019cf6fe-235e-7d95-bb9b-b011d2fe188e","","null","
                <div class=""stimulus-container"">
                    <img src=""images/schematic_sequence/interview_scheme/interview_scheme_2.png"" class=""exp-image"">
                    <div class=""question-area""></div> 
                </div>","null","","","","","","","","",""
"","","","","","html-button-response","20","186607","0.0-20.0","867328F2B21F4860BC9390E63EB2538A","019cf709-5ba0-7206-b294-abffb985ced8","019cf6fe-235e-7d95-bb9b-b011d2fe188e","","null","
                <div class=""stimulus-container"">
                    <img src=""images/schematic_sequence/interview_scheme/interview_scheme_2.png"" class=""exp-image"">
                    <div class=""question-area"">
                        <p style=""font-size: 20px; font-weight: bold; margin: 0;"">Is there a person in this image?</p>
                    </div>
                </div>","null","main_experiment_trial","2","interview_scheme","schematic_sequence","","","","",""
"","","","","","html-keyboard-response","21","191609","0.0-21.0","867328F2B21F4860BC9390E63EB2538A","019cf709-5ba0-7206-b294-abffb985ced8","019cf6fe-235e-7d95-bb9b-b011d2fe188e","","null","
                <div class=""stimulus-container"">
                    <img src=""images/schematic_sequence/interview_scheme/interview_scheme_3.png"" class=""exp-image"">
                    <div class=""question-area""></div> 
                </div>","null","","","","","","","","",""
"","","","","","html-button-response","22","194612","0.0-22.0","867328F2B21F4860BC9390E63EB2538A","019cf709-5ba0-7206-b294-abffb985ced8","019cf6fe-235e-7d95-bb9b-b011d2fe188e","","null","
                <div class=""stimulus-container"">
                    <img src=""images/schematic_sequence/interview_scheme/interview_scheme_3.png"" class=""exp-image"">
                    <div class=""question-area"">
                        <p style=""font-size: 20px; font-weight: bold; margin: 0;"">Is there a person in this image?</p>
                    </div>
                </div>","null","main_experiment_trial","3","interview_scheme","schematic_sequence","","","","",""
"","","","","","html-keyboard-response","23","199614","0.0-23.0","867328F2B21F4860BC9390E63EB2538A","019cf709-5ba0-7206-b294-abffb985ced8","019cf6fe-235e-7d95-bb9b-b011d2fe188e","","null","
                <div class=""stimulus-container"">
                    <img src=""images/schematic_sequence/interview_scheme/interview_scheme_4.png"" class=""exp-image"">
                    <div class=""question-area""></div> 
                </div>","null","","","","","","","","",""
"","","","","","html-button-response","24","201068","0.0-24.0","867328F2B21F4860BC9390E63EB2538A","019cf709-5ba0-7206-b294-abffb985ced8","019cf6fe-235e-7d95-bb9b-b011d2fe188e","","1451","
                <div class=""stimulus-container"">
                    <img src=""images/schematic_sequence/interview_scheme/interview_scheme_4.png"" class=""exp-image"">
                    <div class=""question-area"">
                        <p style=""font-size: 20px; font-weight: bold; margin: 0;"">Is there a person in this image?</p>
                    </div>
                </div>","1","main_experiment_trial","4","interview_scheme","schematic_sequence","","","","",""
"","","","","","html-keyboard-response","25","206072","0.0-25.0","867328F2B21F4860BC9390E63EB2538A","019cf709-5ba0-7206-b294-abffb985ced8","019cf6fe-235e-7d95-bb9b-b011d2fe188e","","null","
                <div class=""stimulus-container"">
                    <img src=""images/schematic_sequence/interview_scheme/interview_scheme_5.png"" class=""exp-image"">
                    <div class=""question-area""></div> 
                </div>","null","","","","","","","","",""
"","","","","","html-button-response","26","208485","0.0-26.0","867328F2B21F4860BC9390E63EB2538A","019cf709-5ba0-7206-b294-abffb985ced8","019cf6fe-235e-7d95-bb9b-b011d2fe188e","","2410","
                <div class=""stimulus-container"">
                    <img src=""images/schematic_sequence/interview_scheme/interview_scheme_5.png"" class=""exp-image"">
                    <div class=""question-area"">
                        <p style=""font-size: 20px; font-weight: bold; margin: 0;"">Is there a person in this image?</p>
                    </div>
                </div>","0","main_experiment_trial","5","interview_scheme","schematic_sequence","","","","",""
"","","","","","html-keyboard-response","27","213487","0.0-27.0","867328F2B21F4860BC9390E63EB2538A","019cf709-5ba0-7206-b294-abffb985ced8","019cf6fe-235e-7d95-bb9b-b011d2fe188e","","null","
                <div class=""stimulus-container"">
                    <img src=""images/schematic_sequence/interview_scheme/interview_scheme_6.png"" class=""exp-image"">
                    <div class=""question-area""></div> 
                </div>","null","","","","","","","","",""
"","","","","","html-button-response","28","215007","0.0-28.0","867328F2B21F4860BC9390E63EB2538A","019cf709-5ba0-7206-b294-abffb985ced8","019cf6fe-235e-7d95-bb9b-b011d2fe188e","","1516","
                <div class=""stimulus-container"">
                    <img src=""images/schematic_sequence/interview_scheme/interview_scheme_6.png"" class=""exp-image"">
                    <div class=""question-area"">
                        <p style=""font-size: 20px; font-weight: bold; margin: 0;"">Is there a person in this image?</p>
                    </div>
                </div>","0","main_experiment_trial","6","interview_scheme","schematic_sequence","","","","",""
"","","","","","html-keyboard-response","29","220009","0.0-29.0","867328F2B21F4860BC9390E63EB2538A","019cf709-5ba0-7206-b294-abffb985ced8","019cf6fe-235e-7d95-bb9b-b011d2fe188e","","null","
                <div class=""stimulus-container"">
                    <img src=""images/schematic_sequence/interview_scheme/interview_scheme_7.png"" class=""exp-image"">
                    <div class=""question-area""></div> 
                </div>","null","","","","","","","","",""
"","","","","","html-button-response","30","221677","0.0-30.0","867328F2B21F4860BC9390E63EB2538A","019cf709-5ba0-7206-b294-abffb985ced8","019cf6fe-235e-7d95-bb9b-b011d2fe188e","","1664","
                <div class=""stimulus-container"">
                    <img src=""images/schematic_sequence/interview_scheme/interview_scheme_7.png"" class=""exp-image"">
                    <div class=""question-area"">
                        <p style=""font-size: 20px; font-weight: bold; margin: 0;"">Is there a person in this image?</p>
                    </div>
                </div>","0","main_experiment_trial","7","interview_scheme","schematic_sequence","","","","",""
"","","","","","html-keyboard-response","31","226679","0.0-31.0","867328F2B21F4860BC9390E63EB2538A","019cf709-5ba0-7206-b294-abffb985ced8","019cf6fe-235e-7d95-bb9b-b011d2fe188e","","null","
                <div class=""stimulus-container"">
                    <img src=""images/schematic_sequence/interview_scheme/interview_scheme_8.png"" class=""exp-image"">
                    <div class=""question-area""></div> 
                </div>","null","","","","","","","","",""
"","","","","","html-button-response","32","227972","0.0-32.0","867328F2B21F4860BC9390E63EB2538A","019cf709-5ba0-7206-b294-abffb985ced8","019cf6fe-235e-7d95-bb9b-b011d2fe188e","","1291","
                <div class=""stimulus-container"">
                    <img src=""images/schematic_sequence/interview_scheme/interview_scheme_8.png"" class=""exp-image"">
                    <div class=""question-area"">
                        <p style=""font-size: 20px; font-weight: bold; margin: 0;"">Is there a person in this image?</p>
                    </div>
                </div>","0","main_experiment_trial","8","interview_scheme","schematic_sequence","","","","",""
"","","","","","html-keyboard-response","33","232974","0.0-33.0","867328F2B21F4860BC9390E63EB2538A","019cf709-5ba0-7206-b294-abffb985ced8","019cf6fe-235e-7d95-bb9b-b011d2fe188e","","null","
                <div class=""stimulus-container"">
                    <img src=""images/schematic_sequence/interview_scheme/interview_scheme_9.png"" class=""exp-image"">
                    <div class=""question-area""></div> 
                </div>","null","","","","","","","","",""
"","","","","","html-button-response","34","235346","0.0-34.0","867328F2B21F4860BC9390E63EB2538A","019cf709-5ba0-7206-b294-abffb985ced8","019cf6fe-235e-7d95-bb9b-b011d2fe188e","","2370","
                <div class=""stimulus-container"">
                    <img src=""images/schematic_sequence/interview_scheme/interview_scheme_9.png"" class=""exp-image"">
                    <div class=""question-area"">
                        <p style=""font-size: 20px; font-weight: bold; margin: 0;"">Is there a person in this image?</p>
                    </div>
                </div>","0","main_experiment_trial","9","interview_scheme","schematic_sequence","","","","",""
"","","","","","html-keyboard-response","35","240348","0.0-35.0","867328F2B21F4860BC9390E63EB2538A","019cf709-5ba0-7206-b294-abffb985ced8","019cf6fe-235e-7d95-bb9b-b011d2fe188e","","null","
                <div class=""stimulus-container"">
                    <img src=""images/schematic_sequence/interview_scheme/interview_scheme_ten.png"" class=""exp-image"">
                    <div class=""question-area""></div> 
                </div>","null","","","","","","","","",""
"","","","","","html-button-response","36","242492","0.0-36.0","867328F2B21F4860BC9390E63EB2538A","019cf709-5ba0-7206-b294-abffb985ced8","019cf6fe-235e-7d95-bb9b-b011d2fe188e","","2140","
                <div class=""stimulus-container"">
                    <img src=""images/schematic_sequence/interview_scheme/interview_scheme_ten.png"" class=""exp-image"">
                    <div class=""question-area"">
                        <p style=""font-size: 20px; font-weight: bold; margin: 0;"">Is there a person in this image?</p>
                    </div>
                </div>","0","main_experiment_trial","ten","interview_scheme","schematic_sequence","","","","",""
"","","","","","html-keyboard-response","37","243495","0.0-37.0","867328F2B21F4860BC9390E63EB2538A","019cf709-5ba0-7206-b294-abffb985ced8","019cf6fe-235e-7d95-bb9b-b011d2fe188e","","null","<div style=""background-color: white; width: 100vw; height: 100vh;""></div>","null","","","","","","","","",""
"","","","","","html-keyboard-response","38","248498","0.0-38.0","867328F2B21F4860BC9390E63EB2538A","019cf709-5ba0-7206-b294-abffb985ced8","019cf6fe-235e-7d95-bb9b-b011d2fe188e","","null","
                <div class=""stimulus-container"">
                    <img src=""images/schematic_sequence/dinner_party_scheme/dinner_party_scheme_1.png"" class=""exp-image"">
                    <div class=""question-area""></div> 
                </div>","null","","","","","","","","",""
"","","","","","html-button-response","39","251502","0.0-39.0","867328F2B21F4860BC9390E63EB2538A","019cf709-5ba0-7206-b294-abffb985ced8","019cf6fe-235e-7d95-bb9b-b011d2fe188e","","null","
                <div class=""stimulus-container"">
                    <img src=""images/schematic_sequence/dinner_party_scheme/dinner_party_scheme_1.png"" class=""exp-image"">
                    <div class=""question-area"">
                        <p style=""font-size: 20px; font-weight: bold; margin: 0;"">Is there a person in this image?</p>
                    </div>
                </div>","null","main_experiment_trial","1","dinner_party_scheme","schematic_sequence","","","","",""
"","","","","","html-keyboard-response","40","256505","0.0-40.0","867328F2B21F4860BC9390E63EB2538A","019cf709-5ba0-7206-b294-abffb985ced8","019cf6fe-235e-7d95-bb9b-b011d2fe188e","","null","
                <div class=""stimulus-container"">
                    <img src=""images/schematic_sequence/dinner_party_scheme/dinner_party_scheme_2.png"" class=""exp-image"">
                    <div class=""question-area""></div> 
                </div>","null","","","","","","","","",""
"","","","","","html-button-response","41","257959","0.0-41.0","867328F2B21F4860BC9390E63EB2538A","019cf709-5ba0-7206-b294-abffb985ced8","019cf6fe-235e-7d95-bb9b-b011d2fe188e","","1450","
                <div class=""stimulus-container"">
                    <img src=""images/schematic_sequence/dinner_party_scheme/dinner_party_scheme_2.png"" class=""exp-image"">
                    <div class=""question-area"">
                        <p style=""font-size: 20px; font-weight: bold; margin: 0;"">Is there a person in this image?</p>
                    </div>
                </div>","1","main_experiment_trial","2","dinner_party_scheme","schematic_sequence","","","","",""
"","","","","","html-keyboard-response","42","262962","0.0-42.0","867328F2B21F4860BC9390E63EB2538A","019cf709-5ba0-7206-b294-abffb985ced8","019cf6fe-235e-7d95-bb9b-b011d2fe188e","","null","
                <div class=""stimulus-container"">
                    <img src=""images/schematic_sequence/dinner_party_scheme/dinner_party_scheme_3.png"" class=""exp-image"">
                    <div class=""question-area""></div> 
                </div>","null","","","","","","","","",""
"","","","","","html-button-response","43","264393","0.0-43.0","867328F2B21F4860BC9390E63EB2538A","019cf709-5ba0-7206-b294-abffb985ced8","019cf6fe-235e-7d95-bb9b-b011d2fe188e","","1427","
                <div class=""stimulus-container"">
                    <img src=""images/schematic_sequence/dinner_party_scheme/dinner_party_scheme_3.png"" class=""exp-image"">
                    <div class=""question-area"">
                        <p style=""font-size: 20px; font-weight: bold; margin: 0;"">Is there a person in this image?</p>
                    </div>
                </div>","0","main_experiment_trial","3","dinner_party_scheme","schematic_sequence","","","","",""
"","","","","","html-keyboard-response","44","269397","0.0-44.0","867328F2B21F4860BC9390E63EB2538A","019cf709-5ba0-7206-b294-abffb985ced8","019cf6fe-235e-7d95-bb9b-b011d2fe188e","","null","
                <div class=""stimulus-container"">
                    <img src=""images/schematic_sequence/dinner_party_scheme/dinner_party_scheme_4.png"" class=""exp-image"">
                    <div class=""question-area""></div> 
                </div>","null","","","","","","","","",""
"","","","","","html-button-response","45","272402","0.0-45.0","867328F2B21F4860BC9390E63EB2538A","019cf709-5ba0-7206-b294-abffb985ced8","019cf6fe-235e-7d95-bb9b-b011d2fe188e","","null","
                <div class=""stimulus-container"">
                    <img src=""images/schematic_sequence/dinner_party_scheme/dinner_party_scheme_4.png"" class=""exp-image"">
                    <div class=""question-area"">
                        <p style=""font-size: 20px; font-weight: bold; margin: 0;"">Is there a person in this image?</p>
                    </div>
                </div>","null","main_experiment_trial","4","dinner_party_scheme","schematic_sequence","","","","",""
"","","","","","html-keyboard-response","46","277405","0.0-46.0","867328F2B21F4860BC9390E63EB2538A","019cf709-5ba0-7206-b294-abffb985ced8","019cf6fe-235e-7d95-bb9b-b011d2fe188e","","null","
                <div class=""stimulus-container"">
                    <img src=""images/schematic_sequence/dinner_party_scheme/dinner_party_scheme_5.png"" class=""exp-image"">
                    <div class=""question-area""></div> 
                </div>","null","","","","","","","","",""
"","","","","","html-button-response","47","279820","0.0-47.0","867328F2B21F4860BC9390E63EB2538A","019cf709-5ba0-7206-b294-abffb985ced8","019cf6fe-235e-7d95-bb9b-b011d2fe188e","","2413","
                <div class=""stimulus-container"">
                    <img src=""images/schematic_sequence/dinner_party_scheme/dinner_party_scheme_5.png"" class=""exp-image"">
                    <div class=""question-area"">
                        <p style=""font-size: 20px; font-weight: bold; margin: 0;"">Is there a person in this image?</p>
                    </div>
                </div>","0","main_experiment_trial","5","dinner_party_scheme","schematic_sequence","","","","",""
"","","","","","html-keyboard-response","48","284822","0.0-48.0","867328F2B21F4860BC9390E63EB2538A","019cf709-5ba0-7206-b294-abffb985ced8","019cf6fe-235e-7d95-bb9b-b011d2fe188e","","null","
                <div class=""stimulus-container"">
                    <img src=""images/schematic_sequence/dinner_party_scheme/dinner_party_scheme_6.png"" class=""exp-image"">
                    <div class=""question-area""></div> 
                </div>","null","","","","","","","","",""
"","","","","","html-button-response","49","286455","0.0-49.0","867328F2B21F4860BC9390E63EB2538A","019cf709-5ba0-7206-b294-abffb985ced8","019cf6fe-235e-7d95-bb9b-b011d2fe188e","","1630","
                <div class=""stimulus-container"">
                    <img src=""images/schematic_sequence/dinner_party_scheme/dinner_party_scheme_6.png"" class=""exp-image"">
                    <div class=""question-area"">
                        <p style=""font-size: 20px; font-weight: bold; margin: 0;"">Is there a person in this image?</p>
                    </div>
                </div>","0","main_experiment_trial","6","dinner_party_scheme","schematic_sequence","","","","",""
"","","","","","html-keyboard-response","50","291458","0.0-50.0","867328F2B21F4860BC9390E63EB2538A","019cf709-5ba0-7206-b294-abffb985ced8","019cf6fe-235e-7d95-bb9b-b011d2fe188e","","null","
                <div class=""stimulus-container"">
                    <img src=""images/schematic_sequence/dinner_party_scheme/dinner_party_scheme_7.png"" class=""exp-image"">
                    <div class=""question-area""></div> 
                </div>","null","","","","","","","","",""
"","","","","","html-button-response","51","292972","0.0-51.0","867328F2B21F4860BC9390E63EB2538A","019cf709-5ba0-7206-b294-abffb985ced8","019cf6fe-235e-7d95-bb9b-b011d2fe188e","","1510","
                <div class=""stimulus-container"">
                    <img src=""images/schematic_sequence/dinner_party_scheme/dinner_party_scheme_7.png"" class=""exp-image"">
                    <div class=""question-area"">
                        <p style=""font-size: 20px; font-weight: bold; margin: 0;"">Is there a person in this image?</p>
                    </div>
                </div>","0","main_experiment_trial","7","dinner_party_scheme","schematic_sequence","","","","",""
"","","","","","html-keyboard-response","52","297976","0.0-52.0","867328F2B21F4860BC9390E63EB2538A","019cf709-5ba0-7206-b294-abffb985ced8","019cf6fe-235e-7d95-bb9b-b011d2fe188e","","null","
                <div class=""stimulus-container"">
                    <img src=""images/schematic_sequence/dinner_party_scheme/dinner_party_scheme_8.png"" class=""exp-image"">
                    <div class=""question-area""></div> 
                </div>","null","","","","","","","","",""
"","","","","","html-button-response","53","298707","0.0-53.0","867328F2B21F4860BC9390E63EB2538A","019cf709-5ba0-7206-b294-abffb985ced8","019cf6fe-235e-7d95-bb9b-b011d2fe188e","","727","
                <div class=""stimulus-container"">
                    <img src=""images/schematic_sequence/dinner_party_scheme/dinner_party_scheme_8.png"" class=""exp-image"">
                    <div class=""question-area"">
                        <p style=""font-size: 20px; font-weight: bold; margin: 0;"">Is there a person in this image?</p>
                    </div>
                </div>","0","main_experiment_trial","8","dinner_party_scheme","schematic_sequence","","","","",""
"","","","","","html-keyboard-response","54","303711","0.0-54.0","867328F2B21F4860BC9390E63EB2538A","019cf709-5ba0-7206-b294-abffb985ced8","019cf6fe-235e-7d95-bb9b-b011d2fe188e","","null","
                <div class=""stimulus-container"">
                    <img src=""images/schematic_sequence/dinner_party_scheme/dinner_party_scheme_9.png"" class=""exp-image"">
                    <div class=""question-area""></div> 
                </div>","null","","","","","","","","",""
"","","","","","html-button-response","55","304449","0.0-55.0","867328F2B21F4860BC9390E63EB2538A","019cf709-5ba0-7206-b294-abffb985ced8","019cf6fe-235e-7d95-bb9b-b011d2fe188e","","735","
                <div class=""stimulus-container"">
                    <img src=""images/schematic_sequence/dinner_party_scheme/dinner_party_scheme_9.png"" class=""exp-image"">
                    <div class=""question-area"">
                        <p style=""font-size: 20px; font-weight: bold; margin: 0;"">Is there a person in this image?</p>
                    </div>
                </div>","0","main_experiment_trial","9","dinner_party_scheme","schematic_sequence","","","","",""
"","","","","","html-keyboard-response","56","309452","0.0-56.0","867328F2B21F4860BC9390E63EB2538A","019cf709-5ba0-7206-b294-abffb985ced8","019cf6fe-235e-7d95-bb9b-b011d2fe188e","","null","
                <div class=""stimulus-container"">
                    <img src=""images/schematic_sequence/dinner_party_scheme/dinner_party_scheme_ten.png"" class=""exp-image"">
                    <div class=""question-area""></div> 
                </div>","null","","","","","","","","",""
"","","","","","html-button-response","57","311149","0.0-57.0","867328F2B21F4860BC9390E63EB2538A","019cf709-5ba0-7206-b294-abffb985ced8","019cf6fe-235e-7d95-bb9b-b011d2fe188e","","1693","
                <div class=""stimulus-container"">
                    <img src=""images/schematic_sequence/dinner_party_scheme/dinner_party_scheme_ten.png"" class=""exp-image"">
                    <div class=""question-area"">
                        <p style=""font-size: 20px; font-weight: bold; margin: 0;"">Is there a person in this image?</p>
                    </div>
                </div>","0","main_experiment_trial","ten","dinner_party_scheme","schematic_sequence","","","","",""
"","","","","","html-keyboard-response","58","312151","0.0-58.0","867328F2B21F4860BC9390E63EB2538A","019cf709-5ba0-7206-b294-abffb985ced8","019cf6fe-235e-7d95-bb9b-b011d2fe188e","","null","<div style=""background-color: white; width: 100vw; height: 100vh;""></div>","null","","","","","","","","",""
"","","","","","html-keyboard-response","59","317159","0.0-59.0","867328F2B21F4860BC9390E63EB2538A","019cf709-5ba0-7206-b294-abffb985ced8","019cf6fe-235e-7d95-bb9b-b011d2fe188e","","null","
                <div class=""stimulus-container"">
                    <img src=""images/causal_sequence/museum_causal/museum_causal_1.png"" class=""exp-image"">
                    <div class=""question-area""></div> 
                </div>","null","","","","","","","","",""
"","","","","","html-button-response","60","318054","0.0-60.0","867328F2B21F4860BC9390E63EB2538A","019cf709-5ba0-7206-b294-abffb985ced8","019cf6fe-235e-7d95-bb9b-b011d2fe188e","","764","
                <div class=""stimulus-container"">
                    <img src=""images/causal_sequence/museum_causal/museum_causal_1.png"" class=""exp-image"">
                    <div class=""question-area"">
                        <p style=""font-size: 20px; font-weight: bold; margin: 0;"">Is there a person in this image?</p>
                    </div>
                </div>","0","main_experiment_trial","1","museum_causal","causal_sequence","","","","",""
"","","","","","html-keyboard-response","61","323056","0.0-61.0","867328F2B21F4860BC9390E63EB2538A","019cf709-5ba0-7206-b294-abffb985ced8","019cf6fe-235e-7d95-bb9b-b011d2fe188e","","null","
                <div class=""stimulus-container"">
                    <img src=""images/causal_sequence/museum_causal/museum_causal_2.png"" class=""exp-image"">
                    <div class=""question-area""></div> 
                </div>","null","","","","","","","","",""
"","","","","","html-button-response","62","324244","0.0-62.0","867328F2B21F4860BC9390E63EB2538A","019cf709-5ba0-7206-b294-abffb985ced8","019cf6fe-235e-7d95-bb9b-b011d2fe188e","","1185","
                <div class=""stimulus-container"">
                    <img src=""images/causal_sequence/museum_causal/museum_causal_2.png"" class=""exp-image"">
                    <div class=""question-area"">
                        <p style=""font-size: 20px; font-weight: bold; margin: 0;"">Is there a person in this image?</p>
                    </div>
                </div>","0","main_experiment_trial","2","museum_causal","causal_sequence","","","","",""
"","","","","","html-keyboard-response","63","329248","0.0-63.0","867328F2B21F4860BC9390E63EB2538A","019cf709-5ba0-7206-b294-abffb985ced8","019cf6fe-235e-7d95-bb9b-b011d2fe188e","","null","
                <div class=""stimulus-container"">
                    <img src=""images/causal_sequence/museum_causal/museum_causal_3.png"" class=""exp-image"">
                    <div class=""question-area""></div> 
                </div>","null","","","","","","","","",""
"","","","","","html-button-response","64","330879","0.0-64.0","867328F2B21F4860BC9390E63EB2538A","019cf709-5ba0-7206-b294-abffb985ced8","019cf6fe-235e-7d95-bb9b-b011d2fe188e","","1626","
                <div class=""stimulus-container"">
                    <img src=""images/causal_sequence/museum_causal/museum_causal_3.png"" class=""exp-image"">
                    <div class=""question-area"">
                        <p style=""font-size: 20px; font-weight: bold; margin: 0;"">Is there a person in this image?</p>
                    </div>
                </div>","0","main_experiment_trial","3","museum_causal","causal_sequence","","","","",""
"","","","","","html-keyboard-response","65","335881","0.0-65.0","867328F2B21F4860BC9390E63EB2538A","019cf709-5ba0-7206-b294-abffb985ced8","019cf6fe-235e-7d95-bb9b-b011d2fe188e","","null","
                <div class=""stimulus-container"">
                    <img src=""images/causal_sequence/museum_causal/museum_causal_4.png"" class=""exp-image"">
                    <div class=""question-area""></div> 
                </div>","null","","","","","","","","",""
"","","","","","html-button-response","66","338252","0.0-66.0","867328F2B21F4860BC9390E63EB2538A","019cf709-5ba0-7206-b294-abffb985ced8","019cf6fe-235e-7d95-bb9b-b011d2fe188e","","2367","
                <div class=""stimulus-container"">
                    <img src=""images/causal_sequence/museum_causal/museum_causal_4.png"" class=""exp-image"">
                    <div class=""question-area"">
                        <p style=""font-size: 20px; font-weight: bold; margin: 0;"">Is there a person in this image?</p>
                    </div>
                </div>","1","main_experiment_trial","4","museum_causal","causal_sequence","","","","",""
"","","","","","html-keyboard-response","67","343256","0.0-67.0","867328F2B21F4860BC9390E63EB2538A","019cf709-5ba0-7206-b294-abffb985ced8","019cf6fe-235e-7d95-bb9b-b011d2fe188e","","null","
                <div class=""stimulus-container"">
                    <img src=""images/causal_sequence/museum_causal/museum_causal_5.png"" class=""exp-image"">
                    <div class=""question-area""></div> 
                </div>","null","","","","","","","","",""
"","","","","","html-button-response","68","343932","0.0-68.0","867328F2B21F4860BC9390E63EB2538A","019cf709-5ba0-7206-b294-abffb985ced8","019cf6fe-235e-7d95-bb9b-b011d2fe188e","","673","
                <div class=""stimulus-container"">
                    <img src=""images/causal_sequence/museum_causal/museum_causal_5.png"" class=""exp-image"">
                    <div class=""question-area"">
                        <p style=""font-size: 20px; font-weight: bold; margin: 0;"">Is there a person in this image?</p>
                    </div>
                </div>","0","main_experiment_trial","5","museum_causal","causal_sequence","","","","",""
"","","","","","html-keyboard-response","69","348934","0.0-69.0","867328F2B21F4860BC9390E63EB2538A","019cf709-5ba0-7206-b294-abffb985ced8","019cf6fe-235e-7d95-bb9b-b011d2fe188e","","null","
                <div class=""stimulus-container"">
                    <img src=""images/causal_sequence/museum_causal/museum_causal_6.png"" class=""exp-image"">
                    <div class=""question-area""></div> 
                </div>","null","","","","","","","","",""
"","","","","","html-button-response","70","349982","0.0-70.0","867328F2B21F4860BC9390E63EB2538A","019cf709-5ba0-7206-b294-abffb985ced8","019cf6fe-235e-7d95-bb9b-b011d2fe188e","","1045","
                <div class=""stimulus-container"">
                    <img src=""images/causal_sequence/museum_causal/museum_causal_6.png"" class=""exp-image"">
                    <div class=""question-area"">
                        <p style=""font-size: 20px; font-weight: bold; margin: 0;"">Is there a person in this image?</p>
                    </div>
                </div>","0","main_experiment_trial","6","museum_causal","causal_sequence","","","","",""
"","","","","","html-keyboard-response","71","355011","0.0-71.0","867328F2B21F4860BC9390E63EB2538A","019cf709-5ba0-7206-b294-abffb985ced8","019cf6fe-235e-7d95-bb9b-b011d2fe188e","","null","
                <div class=""stimulus-container"">
                    <img src=""images/causal_sequence/museum_causal/museum_causal_7.png"" class=""exp-image"">
                    <div class=""question-area""></div> 
                </div>","null","","","","","","","","",""
"","","","","","html-button-response","72","356392","0.0-72.0","867328F2B21F4860BC9390E63EB2538A","019cf709-5ba0-7206-b294-abffb985ced8","019cf6fe-235e-7d95-bb9b-b011d2fe188e","","1379","
                <div class=""stimulus-container"">
                    <img src=""images/causal_sequence/museum_causal/museum_causal_7.png"" class=""exp-image"">
                    <div class=""question-area"">
                        <p style=""font-size: 20px; font-weight: bold; margin: 0;"">Is there a person in this image?</p>
                    </div>
                </div>","1","main_experiment_trial","7","museum_causal","causal_sequence","","","","",""
"","","","","","html-keyboard-response","73","361394","0.0-73.0","867328F2B21F4860BC9390E63EB2538A","019cf709-5ba0-7206-b294-abffb985ced8","019cf6fe-235e-7d95-bb9b-b011d2fe188e","","null","
                <div class=""stimulus-container"">
                    <img src=""images/causal_sequence/museum_causal/museum_causal_8.png"" class=""exp-image"">
                    <div class=""question-area""></div> 
                </div>","null","","","","","","","","",""
"","","","","","html-button-response","74","364308","0.0-74.0","867328F2B21F4860BC9390E63EB2538A","019cf709-5ba0-7206-b294-abffb985ced8","019cf6fe-235e-7d95-bb9b-b011d2fe188e","","2912","
                <div class=""stimulus-container"">
                    <img src=""images/causal_sequence/museum_causal/museum_causal_8.png"" class=""exp-image"">
                    <div class=""question-area"">
                        <p style=""font-size: 20px; font-weight: bold; margin: 0;"">Is there a person in this image?</p>
                    </div>
                </div>","0","main_experiment_trial","8","museum_causal","causal_sequence","","","","",""
"","","","","","html-keyboard-response","75","369312","0.0-75.0","867328F2B21F4860BC9390E63EB2538A","019cf709-5ba0-7206-b294-abffb985ced8","019cf6fe-235e-7d95-bb9b-b011d2fe188e","","null","
                <div class=""stimulus-container"">
                    <img src=""images/causal_sequence/museum_causal/museum_causal_9.png"" class=""exp-image"">
                    <div class=""question-area""></div> 
                </div>","null","","","","","","","","",""
"","","","","","html-button-response","76","371270","0.0-76.0","867328F2B21F4860BC9390E63EB2538A","019cf709-5ba0-7206-b294-abffb985ced8","019cf6fe-235e-7d95-bb9b-b011d2fe188e","","1955","
                <div class=""stimulus-container"">
                    <img src=""images/causal_sequence/museum_causal/museum_causal_9.png"" class=""exp-image"">
                    <div class=""question-area"">
                        <p style=""font-size: 20px; font-weight: bold; margin: 0;"">Is there a person in this image?</p>
                    </div>
                </div>","1","main_experiment_trial","9","museum_causal","causal_sequence","","","","",""
"","","","","","html-keyboard-response","77","376272","0.0-77.0","867328F2B21F4860BC9390E63EB2538A","019cf709-5ba0-7206-b294-abffb985ced8","019cf6fe-235e-7d95-bb9b-b011d2fe188e","","null","
                <div class=""stimulus-container"">
                    <img src=""images/causal_sequence/museum_causal/museum_causal_ten.png"" class=""exp-image"">
                    <div class=""question-area""></div> 
                </div>","null","","","","","","","","",""
"","","","","","html-button-response","78","379278","0.0-78.0","867328F2B21F4860BC9390E63EB2538A","019cf709-5ba0-7206-b294-abffb985ced8","019cf6fe-235e-7d95-bb9b-b011d2fe188e","","null","
                <div class=""stimulus-container"">
                    <img src=""images/causal_sequence/museum_causal/museum_causal_ten.png"" class=""exp-image"">
                    <div class=""question-area"">
                        <p style=""font-size: 20px; font-weight: bold; margin: 0;"">Is there a person in this image?</p>
                    </div>
                </div>","null","main_experiment_trial","ten","museum_causal","causal_sequence","","","","",""
"","","","","","html-keyboard-response","79","380281","0.0-79.0","867328F2B21F4860BC9390E63EB2538A","019cf709-5ba0-7206-b294-abffb985ced8","019cf6fe-235e-7d95-bb9b-b011d2fe188e","","null","<div style=""background-color: white; width: 100vw; height: 100vh;""></div>","null","","","","","","","","",""
"","","","","","html-keyboard-response","80","385284","0.0-80.0","867328F2B21F4860BC9390E63EB2538A","019cf709-5ba0-7206-b294-abffb985ced8","019cf6fe-235e-7d95-bb9b-b011d2fe188e","","null","
                <div class=""stimulus-container"">
                    <img src=""images/causal_sequence/saving_a_cat_causal/saving_a_cat_causal_1.png"" class=""exp-image"">
                    <div class=""question-area""></div> 
                </div>","null","","","","","","","","",""
"","","","","","html-button-response","81","386119","0.0-81.0","867328F2B21F4860BC9390E63EB2538A","019cf709-5ba0-7206-b294-abffb985ced8","019cf6fe-235e-7d95-bb9b-b011d2fe188e","","833","
                <div class=""stimulus-container"">
                    <img src=""images/causal_sequence/saving_a_cat_causal/saving_a_cat_causal_1.png"" class=""exp-image"">
                    <div class=""question-area"">
                        <p style=""font-size: 20px; font-weight: bold; margin: 0;"">Is there a person in this image?</p>
                    </div>
                </div>","0","main_experiment_trial","1","saving_a_cat_causal","causal_sequence","","","","",""
"","","","","","html-keyboard-response","82","391122","0.0-82.0","867328F2B21F4860BC9390E63EB2538A","019cf709-5ba0-7206-b294-abffb985ced8","019cf6fe-235e-7d95-bb9b-b011d2fe188e","","null","
                <div class=""stimulus-container"">
                    <img src=""images/causal_sequence/saving_a_cat_causal/saving_a_cat_causal_2.png"" class=""exp-image"">
                    <div class=""question-area""></div> 
                </div>","null","","","","","","","","",""
"","","","","","html-button-response","83","391884","0.0-83.0","867328F2B21F4860BC9390E63EB2538A","019cf709-5ba0-7206-b294-abffb985ced8","019cf6fe-235e-7d95-bb9b-b011d2fe188e","","758","
                <div class=""stimulus-container"">
                    <img src=""images/causal_sequence/saving_a_cat_causal/saving_a_cat_causal_2.png"" class=""exp-image"">
                    <div class=""question-area"">
                        <p style=""font-size: 20px; font-weight: bold; margin: 0;"">Is there a person in this image?</p>
                    </div>
                </div>","1","main_experiment_trial","2","saving_a_cat_causal","causal_sequence","","","","",""
"","","","","","html-keyboard-response","84","396887","0.0-84.0","867328F2B21F4860BC9390E63EB2538A","019cf709-5ba0-7206-b294-abffb985ced8","019cf6fe-235e-7d95-bb9b-b011d2fe188e","","null","
                <div class=""stimulus-container"">
                    <img src=""images/causal_sequence/saving_a_cat_causal/saving_a_cat_causal_3.png"" class=""exp-image"">
                    <div class=""question-area""></div> 
                </div>","null","","","","","","","","",""
"","","","","","html-button-response","85","398470","0.0-85.0","867328F2B21F4860BC9390E63EB2538A","019cf709-5ba0-7206-b294-abffb985ced8","019cf6fe-235e-7d95-bb9b-b011d2fe188e","","1581","
                <div class=""stimulus-container"">
                    <img src=""images/causal_sequence/saving_a_cat_causal/saving_a_cat_causal_3.png"" class=""exp-image"">
                    <div class=""question-area"">
                        <p style=""font-size: 20px; font-weight: bold; margin: 0;"">Is there a person in this image?</p>
                    </div>
                </div>","1","main_experiment_trial","3","saving_a_cat_causal","causal_sequence","","","","",""
"","","","","","html-keyboard-response","86","403472","0.0-86.0","867328F2B21F4860BC9390E63EB2538A","019cf709-5ba0-7206-b294-abffb985ced8","019cf6fe-235e-7d95-bb9b-b011d2fe188e","","null","
                <div class=""stimulus-container"">
                    <img src=""images/causal_sequence/saving_a_cat_causal/saving_a_cat_causal_4.png"" class=""exp-image"">
                    <div class=""question-area""></div> 
                </div>","null","","","","","","","","",""
"","","","","","html-button-response","87","404277","0.0-87.0","867328F2B21F4860BC9390E63EB2538A","019cf709-5ba0-7206-b294-abffb985ced8","019cf6fe-235e-7d95-bb9b-b011d2fe188e","","801","
                <div class=""stimulus-container"">
                    <img src=""images/causal_sequence/saving_a_cat_causal/saving_a_cat_causal_4.png"" class=""exp-image"">
                    <div class=""question-area"">
                        <p style=""font-size: 20px; font-weight: bold; margin: 0;"">Is there a person in this image?</p>
                    </div>
                </div>","0","main_experiment_trial","4","saving_a_cat_causal","causal_sequence","","","","",""
"","","","","","html-keyboard-response","88","409280","0.0-88.0","867328F2B21F4860BC9390E63EB2538A","019cf709-5ba0-7206-b294-abffb985ced8","019cf6fe-235e-7d95-bb9b-b011d2fe188e","","null","
                <div class=""stimulus-container"">
                    <img src=""images/causal_sequence/saving_a_cat_causal/saving_a_cat_causal_5.png"" class=""exp-image"">
                    <div class=""question-area""></div> 
                </div>","null","","","","","","","","",""
"","","","","","html-button-response","89","409900","0.0-89.0","867328F2B21F4860BC9390E63EB2538A","019cf709-5ba0-7206-b294-abffb985ced8","019cf6fe-235e-7d95-bb9b-b011d2fe188e","","618","
                <div class=""stimulus-container"">
                    <img src=""images/causal_sequence/saving_a_cat_causal/saving_a_cat_causal_5.png"" class=""exp-image"">
                    <div class=""question-area"">
                        <p style=""font-size: 20px; font-weight: bold; margin: 0;"">Is there a person in this image?</p>
                    </div>
                </div>","0","main_experiment_trial","5","saving_a_cat_causal","causal_sequence","","","","",""
"","","","","","html-keyboard-response","90","414904","0.0-90.0","867328F2B21F4860BC9390E63EB2538A","019cf709-5ba0-7206-b294-abffb985ced8","019cf6fe-235e-7d95-bb9b-b011d2fe188e","","null","
                <div class=""stimulus-container"">
                    <img src=""images/causal_sequence/saving_a_cat_causal/saving_a_cat_causal_6.png"" class=""exp-image"">
                    <div class=""question-area""></div> 
                </div>","null","","","","","","","","",""
"","","","","","html-button-response","91","415574","0.0-91.0","867328F2B21F4860BC9390E63EB2538A","019cf709-5ba0-7206-b294-abffb985ced8","019cf6fe-235e-7d95-bb9b-b011d2fe188e","","667","
                <div class=""stimulus-container"">
                    <img src=""images/causal_sequence/saving_a_cat_causal/saving_a_cat_causal_6.png"" class=""exp-image"">
                    <div class=""question-area"">
                        <p style=""font-size: 20px; font-weight: bold; margin: 0;"">Is there a person in this image?</p>
                    </div>
                </div>","0","main_experiment_trial","6","saving_a_cat_causal","causal_sequence","","","","",""
"","","","","","html-keyboard-response","92","420580","0.0-92.0","867328F2B21F4860BC9390E63EB2538A","019cf709-5ba0-7206-b294-abffb985ced8","019cf6fe-235e-7d95-bb9b-b011d2fe188e","","null","
                <div class=""stimulus-container"">
                    <img src=""images/causal_sequence/saving_a_cat_causal/saving_a_cat_causal_7.png"" class=""exp-image"">
                    <div class=""question-area""></div> 
                </div>","null","","","","","","","","",""
"","","","","","html-button-response","93","421570","0.0-93.0","867328F2B21F4860BC9390E63EB2538A","019cf709-5ba0-7206-b294-abffb985ced8","019cf6fe-235e-7d95-bb9b-b011d2fe188e","","985","
                <div class=""stimulus-container"">
                    <img src=""images/causal_sequence/saving_a_cat_causal/saving_a_cat_causal_7.png"" class=""exp-image"">
                    <div class=""question-area"">
                        <p style=""font-size: 20px; font-weight: bold; margin: 0;"">Is there a person in this image?</p>
                    </div>
                </div>","0","main_experiment_trial","7","saving_a_cat_causal","causal_sequence","","","","",""
"","","","","","html-keyboard-response","94","426573","0.0-94.0","867328F2B21F4860BC9390E63EB2538A","019cf709-5ba0-7206-b294-abffb985ced8","019cf6fe-235e-7d95-bb9b-b011d2fe188e","","null","
                <div class=""stimulus-container"">
                    <img src=""images/causal_sequence/saving_a_cat_causal/saving_a_cat_causal_8.png"" class=""exp-image"">
                    <div class=""question-area""></div> 
                </div>","null","","","","","","","","",""
"","","","","","html-button-response","95","427267","0.0-95.0","867328F2B21F4860BC9390E63EB2538A","019cf709-5ba0-7206-b294-abffb985ced8","019cf6fe-235e-7d95-bb9b-b011d2fe188e","","693","
                <div class=""stimulus-container"">
                    <img src=""images/causal_sequence/saving_a_cat_causal/saving_a_cat_causal_8.png"" class=""exp-image"">
                    <div class=""question-area"">
                        <p style=""font-size: 20px; font-weight: bold; margin: 0;"">Is there a person in this image?</p>
                    </div>
                </div>","0","main_experiment_trial","8","saving_a_cat_causal","causal_sequence","","","","",""
"","","","","","html-keyboard-response","96","432269","0.0-96.0","867328F2B21F4860BC9390E63EB2538A","019cf709-5ba0-7206-b294-abffb985ced8","019cf6fe-235e-7d95-bb9b-b011d2fe188e","","null","
                <div class=""stimulus-container"">
                    <img src=""images/causal_sequence/saving_a_cat_causal/saving_a_cat_causal_9.png"" class=""exp-image"">
                    <div class=""question-area""></div> 
                </div>","null","","","","","","","","",""
"","","","","","html-button-response","97","433698","0.0-97.0","867328F2B21F4860BC9390E63EB2538A","019cf709-5ba0-7206-b294-abffb985ced8","019cf6fe-235e-7d95-bb9b-b011d2fe188e","","1424","
                <div class=""stimulus-container"">
                    <img src=""images/causal_sequence/saving_a_cat_causal/saving_a_cat_causal_9.png"" class=""exp-image"">
                    <div class=""question-area"">
                        <p style=""font-size: 20px; font-weight: bold; margin: 0;"">Is there a person in this image?</p>
                    </div>
                </div>","0","main_experiment_trial","9","saving_a_cat_causal","causal_sequence","","","","",""
"","","","","","html-keyboard-response","98","438731","0.0-98.0","867328F2B21F4860BC9390E63EB2538A","019cf709-5ba0-7206-b294-abffb985ced8","019cf6fe-235e-7d95-bb9b-b011d2fe188e","","null","
                <div class=""stimulus-container"">
                    <img src=""images/causal_sequence/saving_a_cat_causal/saving_a_cat_causal_ten.png"" class=""exp-image"">
                    <div class=""question-area""></div> 
                </div>","null","","","","","","","","",""
"","","","","","html-button-response","99","439695","0.0-99.0","867328F2B21F4860BC9390E63EB2538A","019cf709-5ba0-7206-b294-abffb985ced8","019cf6fe-235e-7d95-bb9b-b011d2fe188e","","963","
                <div class=""stimulus-container"">
                    <img src=""images/causal_sequence/saving_a_cat_causal/saving_a_cat_causal_ten.png"" class=""exp-image"">
                    <div class=""question-area"">
                        <p style=""font-size: 20px; font-weight: bold; margin: 0;"">Is there a person in this image?</p>
                    </div>
                </div>","0","main_experiment_trial","ten","saving_a_cat_causal","causal_sequence","","","","",""
"","","","","","html-keyboard-response","100","440696","0.0-100.0","867328F2B21F4860BC9390E63EB2538A","019cf709-5ba0-7206-b294-abffb985ced8","019cf6fe-235e-7d95-bb9b-b011d2fe188e","","null","<div style=""background-color: white; width: 100vw; height: 100vh;""></div>","null","","","","","","","","",""
"","","","","","html-keyboard-response","101","445699","0.0-101.0","867328F2B21F4860BC9390E63EB2538A","019cf709-5ba0-7206-b294-abffb985ced8","019cf6fe-235e-7d95-bb9b-b011d2fe188e","","null","
                <div class=""stimulus-container"">
                    <img src=""images/schematic_sequence/flight_scheme/flight_scheme_1.png"" class=""exp-image"">
                    <div class=""question-area""></div> 
                </div>","null","","","","","","","","",""
"","","","","","html-button-response","102","447063","0.0-102.0","867328F2B21F4860BC9390E63EB2538A","019cf709-5ba0-7206-b294-abffb985ced8","019cf6fe-235e-7d95-bb9b-b011d2fe188e","","1360","
                <div class=""stimulus-container"">
                    <img src=""images/schematic_sequence/flight_scheme/flight_scheme_1.png"" class=""exp-image"">
                    <div class=""question-area"">
                        <p style=""font-size: 20px; font-weight: bold; margin: 0;"">Is there a person in this image?</p>
                    </div>
                </div>","1","main_experiment_trial","1","flight_scheme","schematic_sequence","","","","",""
"","","","","","html-keyboard-response","103","452065","0.0-103.0","867328F2B21F4860BC9390E63EB2538A","019cf709-5ba0-7206-b294-abffb985ced8","019cf6fe-235e-7d95-bb9b-b011d2fe188e","","null","
                <div class=""stimulus-container"">
                    <img src=""images/schematic_sequence/flight_scheme/flight_scheme_2.png"" class=""exp-image"">
                    <div class=""question-area""></div> 
                </div>","null","","","","","","","","",""
"","","","","","html-button-response","104","454425","0.0-104.0","867328F2B21F4860BC9390E63EB2538A","019cf709-5ba0-7206-b294-abffb985ced8","019cf6fe-235e-7d95-bb9b-b011d2fe188e","","2357","
                <div class=""stimulus-container"">
                    <img src=""images/schematic_sequence/flight_scheme/flight_scheme_2.png"" class=""exp-image"">
                    <div class=""question-area"">
                        <p style=""font-size: 20px; font-weight: bold; margin: 0;"">Is there a person in this image?</p>
                    </div>
                </div>","1","main_experiment_trial","2","flight_scheme","schematic_sequence","","","","",""
"","","","","","html-keyboard-response","105","459429","0.0-105.0","867328F2B21F4860BC9390E63EB2538A","019cf709-5ba0-7206-b294-abffb985ced8","019cf6fe-235e-7d95-bb9b-b011d2fe188e","","null","
                <div class=""stimulus-container"">
                    <img src=""images/schematic_sequence/flight_scheme/flight_scheme_3.png"" class=""exp-image"">
                    <div class=""question-area""></div> 
                </div>","null","","","","","","","","",""
"","","","","","html-button-response","106","460261","0.0-106.0","867328F2B21F4860BC9390E63EB2538A","019cf709-5ba0-7206-b294-abffb985ced8","019cf6fe-235e-7d95-bb9b-b011d2fe188e","","830","
                <div class=""stimulus-container"">
                    <img src=""images/schematic_sequence/flight_scheme/flight_scheme_3.png"" class=""exp-image"">
                    <div class=""question-area"">
                        <p style=""font-size: 20px; font-weight: bold; margin: 0;"">Is there a person in this image?</p>
                    </div>
                </div>","0","main_experiment_trial","3","flight_scheme","schematic_sequence","","","","",""
"","","","","","html-keyboard-response","107","465263","0.0-107.0","867328F2B21F4860BC9390E63EB2538A","019cf709-5ba0-7206-b294-abffb985ced8","019cf6fe-235e-7d95-bb9b-b011d2fe188e","","null","
                <div class=""stimulus-container"">
                    <img src=""images/schematic_sequence/flight_scheme/flight_scheme_4.png"" class=""exp-image"">
                    <div class=""question-area""></div> 
                </div>","null","","","","","","","","",""
"","","","","","html-button-response","108","466965","0.0-108.0","867328F2B21F4860BC9390E63EB2538A","019cf709-5ba0-7206-b294-abffb985ced8","019cf6fe-235e-7d95-bb9b-b011d2fe188e","","1698","
                <div class=""stimulus-container"">
                    <img src=""images/schematic_sequence/flight_scheme/flight_scheme_4.png"" class=""exp-image"">
                    <div class=""question-area"">
                        <p style=""font-size: 20px; font-weight: bold; margin: 0;"">Is there a person in this image?</p>
                    </div>
                </div>","0","main_experiment_trial","4","flight_scheme","schematic_sequence","","","","",""
"","","","","","html-keyboard-response","109","471968","0.0-109.0","867328F2B21F4860BC9390E63EB2538A","019cf709-5ba0-7206-b294-abffb985ced8","019cf6fe-235e-7d95-bb9b-b011d2fe188e","","null","
                <div class=""stimulus-container"">
                    <img src=""images/schematic_sequence/flight_scheme/flight_scheme_5.png"" class=""exp-image"">
                    <div class=""question-area""></div> 
                </div>","null","","","","","","","","",""
"","","","","","html-button-response","110","472738","0.0-110.0","867328F2B21F4860BC9390E63EB2538A","019cf709-5ba0-7206-b294-abffb985ced8","019cf6fe-235e-7d95-bb9b-b011d2fe188e","","768","
                <div class=""stimulus-container"">
                    <img src=""images/schematic_sequence/flight_scheme/flight_scheme_5.png"" class=""exp-image"">
                    <div class=""question-area"">
                        <p style=""font-size: 20px; font-weight: bold; margin: 0;"">Is there a person in this image?</p>
                    </div>
                </div>","0","main_experiment_trial","5","flight_scheme","schematic_sequence","","","","",""
"","","","","","html-keyboard-response","111","477753","0.0-111.0","867328F2B21F4860BC9390E63EB2538A","019cf709-5ba0-7206-b294-abffb985ced8","019cf6fe-235e-7d95-bb9b-b011d2fe188e","","null","
                <div class=""stimulus-container"">
                    <img src=""images/schematic_sequence/flight_scheme/flight_scheme_6.png"" class=""exp-image"">
                    <div class=""question-area""></div> 
                </div>","null","","","","","","","","",""
"","","","","","html-button-response","112","479816","0.0-112.0","867328F2B21F4860BC9390E63EB2538A","019cf709-5ba0-7206-b294-abffb985ced8","019cf6fe-235e-7d95-bb9b-b011d2fe188e","","2061","
                <div class=""stimulus-container"">
                    <img src=""images/schematic_sequence/flight_scheme/flight_scheme_6.png"" class=""exp-image"">
                    <div class=""question-area"">
                        <p style=""font-size: 20px; font-weight: bold; margin: 0;"">Is there a person in this image?</p>
                    </div>
                </div>","1","main_experiment_trial","6","flight_scheme","schematic_sequence","","","","",""
"","","","","","html-keyboard-response","113","484819","0.0-113.0","867328F2B21F4860BC9390E63EB2538A","019cf709-5ba0-7206-b294-abffb985ced8","019cf6fe-235e-7d95-bb9b-b011d2fe188e","","null","
                <div class=""stimulus-container"">
                    <img src=""images/schematic_sequence/flight_scheme/flight_scheme_7.png"" class=""exp-image"">
                    <div class=""question-area""></div> 
                </div>","null","","","","","","","","",""
"","","","","","html-button-response","114","485620","0.0-114.0","867328F2B21F4860BC9390E63EB2538A","019cf709-5ba0-7206-b294-abffb985ced8","019cf6fe-235e-7d95-bb9b-b011d2fe188e","","797","
                <div class=""stimulus-container"">
                    <img src=""images/schematic_sequence/flight_scheme/flight_scheme_7.png"" class=""exp-image"">
                    <div class=""question-area"">
                        <p style=""font-size: 20px; font-weight: bold; margin: 0;"">Is there a person in this image?</p>
                    </div>
                </div>","1","main_experiment_trial","7","flight_scheme","schematic_sequence","","","","",""
"","","","","","html-keyboard-response","115","490623","0.0-115.0","867328F2B21F4860BC9390E63EB2538A","019cf709-5ba0-7206-b294-abffb985ced8","019cf6fe-235e-7d95-bb9b-b011d2fe188e","","null","
                <div class=""stimulus-container"">
                    <img src=""images/schematic_sequence/flight_scheme/flight_scheme_8.png"" class=""exp-image"">
                    <div class=""question-area""></div> 
                </div>","null","","","","","","","","",""
"","","","","","html-button-response","116","492117","0.0-116.0","867328F2B21F4860BC9390E63EB2538A","019cf709-5ba0-7206-b294-abffb985ced8","019cf6fe-235e-7d95-bb9b-b011d2fe188e","","1491","
                <div class=""stimulus-container"">
                    <img src=""images/schematic_sequence/flight_scheme/flight_scheme_8.png"" class=""exp-image"">
                    <div class=""question-area"">
                        <p style=""font-size: 20px; font-weight: bold; margin: 0;"">Is there a person in this image?</p>
                    </div>
                </div>","1","main_experiment_trial","8","flight_scheme","schematic_sequence","","","","",""
"","","","","","html-keyboard-response","117","497122","0.0-117.0","867328F2B21F4860BC9390E63EB2538A","019cf709-5ba0-7206-b294-abffb985ced8","019cf6fe-235e-7d95-bb9b-b011d2fe188e","","null","
                <div class=""stimulus-container"">
                    <img src=""images/schematic_sequence/flight_scheme/flight_scheme_9.png"" class=""exp-image"">
                    <div class=""question-area""></div> 
                </div>","null","","","","","","","","",""
"","","","","","html-button-response","118","498321","0.0-118.0","867328F2B21F4860BC9390E63EB2538A","019cf709-5ba0-7206-b294-abffb985ced8","019cf6fe-235e-7d95-bb9b-b011d2fe188e","","1196","
                <div class=""stimulus-container"">
                    <img src=""images/schematic_sequence/flight_scheme/flight_scheme_9.png"" class=""exp-image"">
                    <div class=""question-area"">
                        <p style=""font-size: 20px; font-weight: bold; margin: 0;"">Is there a person in this image?</p>
                    </div>
                </div>","0","main_experiment_trial","9","flight_scheme","schematic_sequence","","","","",""
"","","","","","html-keyboard-response","119","503324","0.0-119.0","867328F2B21F4860BC9390E63EB2538A","019cf709-5ba0-7206-b294-abffb985ced8","019cf6fe-235e-7d95-bb9b-b011d2fe188e","","null","
                <div class=""stimulus-container"">
                    <img src=""images/schematic_sequence/flight_scheme/flight_scheme_ten.png"" class=""exp-image"">
                    <div class=""question-area""></div> 
                </div>","null","","","","","","","","",""
"","","","","","html-button-response","120","504978","0.0-120.0","867328F2B21F4860BC9390E63EB2538A","019cf709-5ba0-7206-b294-abffb985ced8","019cf6fe-235e-7d95-bb9b-b011d2fe188e","","1651","
                <div class=""stimulus-container"">
                    <img src=""images/schematic_sequence/flight_scheme/flight_scheme_ten.png"" class=""exp-image"">
                    <div class=""question-area"">
                        <p style=""font-size: 20px; font-weight: bold; margin: 0;"">Is there a person in this image?</p>
                    </div>
                </div>","0","main_experiment_trial","ten","flight_scheme","schematic_sequence","","","","",""
"","","","","","html-keyboard-response","121","505981","0.0-121.0","867328F2B21F4860BC9390E63EB2538A","019cf709-5ba0-7206-b294-abffb985ced8","019cf6fe-235e-7d95-bb9b-b011d2fe188e","","null","<div style=""background-color: white; width: 100vw; height: 100vh;""></div>","null","","","","","","","","",""
"","","","","","html-keyboard-response","122","510984","0.0-122.0","867328F2B21F4860BC9390E63EB2538A","019cf709-5ba0-7206-b294-abffb985ced8","019cf6fe-235e-7d95-bb9b-b011d2fe188e","","null","
                <div class=""stimulus-container"">
                    <img src=""images/schematic_sequence/supermarket_scheme/supermarket_scheme_1.png"" class=""exp-image"">
                    <div class=""question-area""></div> 
                </div>","null","","","","","","","","",""
"","","","","","html-button-response","123","512119","0.0-123.0","867328F2B21F4860BC9390E63EB2538A","019cf709-5ba0-7206-b294-abffb985ced8","019cf6fe-235e-7d95-bb9b-b011d2fe188e","","1133","
                <div class=""stimulus-container"">
                    <img src=""images/schematic_sequence/supermarket_scheme/supermarket_scheme_1.png"" class=""exp-image"">
                    <div class=""question-area"">
                        <p style=""font-size: 20px; font-weight: bold; margin: 0;"">Is there a person in this image?</p>
                    </div>
                </div>","1","main_experiment_trial","1","supermarket_scheme","schematic_sequence","","","","",""
"","","","","","html-keyboard-response","124","517122","0.0-124.0","867328F2B21F4860BC9390E63EB2538A","019cf709-5ba0-7206-b294-abffb985ced8","019cf6fe-235e-7d95-bb9b-b011d2fe188e","","null","
                <div class=""stimulus-container"">
                    <img src=""images/schematic_sequence/supermarket_scheme/supermarket_scheme_2.png"" class=""exp-image"">
                    <div class=""question-area""></div> 
                </div>","null","","","","","","","","",""
"","","","","","html-button-response","125","518150","0.0-125.0","867328F2B21F4860BC9390E63EB2538A","019cf709-5ba0-7206-b294-abffb985ced8","019cf6fe-235e-7d95-bb9b-b011d2fe188e","","1025","
                <div class=""stimulus-container"">
                    <img src=""images/schematic_sequence/supermarket_scheme/supermarket_scheme_2.png"" class=""exp-image"">
                    <div class=""question-area"">
                        <p style=""font-size: 20px; font-weight: bold; margin: 0;"">Is there a person in this image?</p>
                    </div>
                </div>","1","main_experiment_trial","2","supermarket_scheme","schematic_sequence","","","","",""
"","","","","","html-keyboard-response","126","523152","0.0-126.0","867328F2B21F4860BC9390E63EB2538A","019cf709-5ba0-7206-b294-abffb985ced8","019cf6fe-235e-7d95-bb9b-b011d2fe188e","","null","
                <div class=""stimulus-container"">
                    <img src=""images/schematic_sequence/supermarket_scheme/supermarket_scheme_3.png"" class=""exp-image"">
                    <div class=""question-area""></div> 
                </div>","null","","","","","","","","",""
"","","","","","html-button-response","127","525159","0.0-127.0","867328F2B21F4860BC9390E63EB2538A","019cf709-5ba0-7206-b294-abffb985ced8","019cf6fe-235e-7d95-bb9b-b011d2fe188e","","2005","
                <div class=""stimulus-container"">
                    <img src=""images/schematic_sequence/supermarket_scheme/supermarket_scheme_3.png"" class=""exp-image"">
                    <div class=""question-area"">
                        <p style=""font-size: 20px; font-weight: bold; margin: 0;"">Is there a person in this image?</p>
                    </div>
                </div>","1","main_experiment_trial","3","supermarket_scheme","schematic_sequence","","","","",""
"","","","","","html-keyboard-response","128","530161","0.0-128.0","867328F2B21F4860BC9390E63EB2538A","019cf709-5ba0-7206-b294-abffb985ced8","019cf6fe-235e-7d95-bb9b-b011d2fe188e","","null","
                <div class=""stimulus-container"">
                    <img src=""images/schematic_sequence/supermarket_scheme/supermarket_scheme_4.png"" class=""exp-image"">
                    <div class=""question-area""></div> 
                </div>","null","","","","","","","","",""
"","","","","","html-button-response","129","531834","0.0-129.0","867328F2B21F4860BC9390E63EB2538A","019cf709-5ba0-7206-b294-abffb985ced8","019cf6fe-235e-7d95-bb9b-b011d2fe188e","","1669","
                <div class=""stimulus-container"">
                    <img src=""images/schematic_sequence/supermarket_scheme/supermarket_scheme_4.png"" class=""exp-image"">
                    <div class=""question-area"">
                        <p style=""font-size: 20px; font-weight: bold; margin: 0;"">Is there a person in this image?</p>
                    </div>
                </div>","0","main_experiment_trial","4","supermarket_scheme","schematic_sequence","","","","",""
"","","","","","html-keyboard-response","130","536837","0.0-130.0","867328F2B21F4860BC9390E63EB2538A","019cf709-5ba0-7206-b294-abffb985ced8","019cf6fe-235e-7d95-bb9b-b011d2fe188e","","null","
                <div class=""stimulus-container"">
                    <img src=""images/schematic_sequence/supermarket_scheme/supermarket_scheme_5.png"" class=""exp-image"">
                    <div class=""question-area""></div> 
                </div>","null","","","","","","","","",""
"","","","","","html-button-response","131","538224","0.0-131.0","867328F2B21F4860BC9390E63EB2538A","019cf709-5ba0-7206-b294-abffb985ced8","019cf6fe-235e-7d95-bb9b-b011d2fe188e","","1384","
                <div class=""stimulus-container"">
                    <img src=""images/schematic_sequence/supermarket_scheme/supermarket_scheme_5.png"" class=""exp-image"">
                    <div class=""question-area"">
                        <p style=""font-size: 20px; font-weight: bold; margin: 0;"">Is there a person in this image?</p>
                    </div>
                </div>","1","main_experiment_trial","5","supermarket_scheme","schematic_sequence","","","","",""
"","","","","","html-keyboard-response","132","543229","0.0-132.0","867328F2B21F4860BC9390E63EB2538A","019cf709-5ba0-7206-b294-abffb985ced8","019cf6fe-235e-7d95-bb9b-b011d2fe188e","","null","
                <div class=""stimulus-container"">
                    <img src=""images/schematic_sequence/supermarket_scheme/supermarket_scheme_6.png"" class=""exp-image"">
                    <div class=""question-area""></div> 
                </div>","null","","","","","","","","",""
"","","","","","html-button-response","133","545727","0.0-133.0","867328F2B21F4860BC9390E63EB2538A","019cf709-5ba0-7206-b294-abffb985ced8","019cf6fe-235e-7d95-bb9b-b011d2fe188e","","2496","
                <div class=""stimulus-container"">
                    <img src=""images/schematic_sequence/supermarket_scheme/supermarket_scheme_6.png"" class=""exp-image"">
                    <div class=""question-area"">
                        <p style=""font-size: 20px; font-weight: bold; margin: 0;"">Is there a person in this image?</p>
                    </div>
                </div>","0","main_experiment_trial","6","supermarket_scheme","schematic_sequence","","","","",""
"","","","","","html-keyboard-response","134","550729","0.0-134.0","867328F2B21F4860BC9390E63EB2538A","019cf709-5ba0-7206-b294-abffb985ced8","019cf6fe-235e-7d95-bb9b-b011d2fe188e","","null","
                <div class=""stimulus-container"">
                    <img src=""images/schematic_sequence/supermarket_scheme/supermarket_scheme_7.png"" class=""exp-image"">
                    <div class=""question-area""></div> 
                </div>","null","","","","","","","","",""
"","","","","","html-button-response","135","552637","0.0-135.0","867328F2B21F4860BC9390E63EB2538A","019cf709-5ba0-7206-b294-abffb985ced8","019cf6fe-235e-7d95-bb9b-b011d2fe188e","","1904","
                <div class=""stimulus-container"">
                    <img src=""images/schematic_sequence/supermarket_scheme/supermarket_scheme_7.png"" class=""exp-image"">
                    <div class=""question-area"">
                        <p style=""font-size: 20px; font-weight: bold; margin: 0;"">Is there a person in this image?</p>
                    </div>
                </div>","0","main_experiment_trial","7","supermarket_scheme","schematic_sequence","","","","",""
"","","","","","html-keyboard-response","136","557640","0.0-136.0","867328F2B21F4860BC9390E63EB2538A","019cf709-5ba0-7206-b294-abffb985ced8","019cf6fe-235e-7d95-bb9b-b011d2fe188e","","null","
                <div class=""stimulus-container"">
                    <img src=""images/schematic_sequence/supermarket_scheme/supermarket_scheme_8.png"" class=""exp-image"">
                    <div class=""question-area""></div> 
                </div>","null","","","","","","","","",""
"","","","","","html-button-response","137","559132","0.0-137.0","867328F2B21F4860BC9390E63EB2538A","019cf709-5ba0-7206-b294-abffb985ced8","019cf6fe-235e-7d95-bb9b-b011d2fe188e","","1490","
                <div class=""stimulus-container"">
                    <img src=""images/schematic_sequence/supermarket_scheme/supermarket_scheme_8.png"" class=""exp-image"">
                    <div class=""question-area"">
                        <p style=""font-size: 20px; font-weight: bold; margin: 0;"">Is there a person in this image?</p>
                    </div>
                </div>","0","main_experiment_trial","8","supermarket_scheme","schematic_sequence","","","","",""
"","","","","","html-keyboard-response","138","564134","0.0-138.0","867328F2B21F4860BC9390E63EB2538A","019cf709-5ba0-7206-b294-abffb985ced8","019cf6fe-235e-7d95-bb9b-b011d2fe188e","","null","
                <div class=""stimulus-container"">
                    <img src=""images/schematic_sequence/supermarket_scheme/supermarket_scheme_9.png"" class=""exp-image"">
                    <div class=""question-area""></div> 
                </div>","null","","","","","","","","",""
"","","","","","html-button-response","139","566980","0.0-139.0","867328F2B21F4860BC9390E63EB2538A","019cf709-5ba0-7206-b294-abffb985ced8","019cf6fe-235e-7d95-bb9b-b011d2fe188e","","2844","
                <div class=""stimulus-container"">
                    <img src=""images/schematic_sequence/supermarket_scheme/supermarket_scheme_9.png"" class=""exp-image"">
                    <div class=""question-area"">
                        <p style=""font-size: 20px; font-weight: bold; margin: 0;"">Is there a person in this image?</p>
                    </div>
                </div>","0","main_experiment_trial","9","supermarket_scheme","schematic_sequence","","","","",""
"","","","","","html-keyboard-response","140","571983","0.0-140.0","867328F2B21F4860BC9390E63EB2538A","019cf709-5ba0-7206-b294-abffb985ced8","019cf6fe-235e-7d95-bb9b-b011d2fe188e","","null","
                <div class=""stimulus-container"">
                    <img src=""images/schematic_sequence/supermarket_scheme/supermarket_scheme_ten.png"" class=""exp-image"">
                    <div class=""question-area""></div> 
                </div>","null","","","","","","","","",""
"","","","","","html-button-response","141","574985","0.0-141.0","867328F2B21F4860BC9390E63EB2538A","019cf709-5ba0-7206-b294-abffb985ced8","019cf6fe-235e-7d95-bb9b-b011d2fe188e","","null","
                <div class=""stimulus-container"">
                    <img src=""images/schematic_sequence/supermarket_scheme/supermarket_scheme_ten.png"" class=""exp-image"">
                    <div class=""question-area"">
                        <p style=""font-size: 20px; font-weight: bold; margin: 0;"">Is there a person in this image?</p>
                    </div>
                </div>","null","main_experiment_trial","ten","supermarket_scheme","schematic_sequence","","","","",""
"","","","","","html-keyboard-response","142","575988","0.0-142.0","867328F2B21F4860BC9390E63EB2538A","019cf709-5ba0-7206-b294-abffb985ced8","019cf6fe-235e-7d95-bb9b-b011d2fe188e","","null","<div style=""background-color: white; width: 100vw; height: 100vh;""></div>","null","","","","","","","","",""
"","","","","","html-keyboard-response","143","580991","0.0-143.0","867328F2B21F4860BC9390E63EB2538A","019cf709-5ba0-7206-b294-abffb985ced8","019cf6fe-235e-7d95-bb9b-b011d2fe188e","","null","
                <div class=""stimulus-container"">
                    <img src=""images/causal_sequence/coin_causal/coin_causal_1.png"" class=""exp-image"">
                    <div class=""question-area""></div> 
                </div>","null","","","","","","","","",""
"","","","","","html-button-response","144","581879","0.0-144.0","867328F2B21F4860BC9390E63EB2538A","019cf709-5ba0-7206-b294-abffb985ced8","019cf6fe-235e-7d95-bb9b-b011d2fe188e","","884","
                <div class=""stimulus-container"">
                    <img src=""images/causal_sequence/coin_causal/coin_causal_1.png"" class=""exp-image"">
                    <div class=""question-area"">
                        <p style=""font-size: 20px; font-weight: bold; margin: 0;"">Is there a person in this image?</p>
                    </div>
                </div>","0","main_experiment_trial","1","coin_causal","causal_sequence","","","","",""
"","","","","","html-keyboard-response","145","586882","0.0-145.0","867328F2B21F4860BC9390E63EB2538A","019cf709-5ba0-7206-b294-abffb985ced8","019cf6fe-235e-7d95-bb9b-b011d2fe188e","","null","
                <div class=""stimulus-container"">
                    <img src=""images/causal_sequence/coin_causal/coin_causal_2.png"" class=""exp-image"">
                    <div class=""question-area""></div> 
                </div>","null","","","","","","","","",""
"","","","","","html-button-response","146","589886","0.0-146.0","867328F2B21F4860BC9390E63EB2538A","019cf709-5ba0-7206-b294-abffb985ced8","019cf6fe-235e-7d95-bb9b-b011d2fe188e","","null","
                <div class=""stimulus-container"">
                    <img src=""images/causal_sequence/coin_causal/coin_causal_2.png"" class=""exp-image"">
                    <div class=""question-area"">
                        <p style=""font-size: 20px; font-weight: bold; margin: 0;"">Is there a person in this image?</p>
                    </div>
                </div>","null","main_experiment_trial","2","coin_causal","causal_sequence","","","","",""
"","","","","","html-keyboard-response","147","594888","0.0-147.0","867328F2B21F4860BC9390E63EB2538A","019cf709-5ba0-7206-b294-abffb985ced8","019cf6fe-235e-7d95-bb9b-b011d2fe188e","","null","
                <div class=""stimulus-container"">
                    <img src=""images/causal_sequence/coin_causal/coin_causal_3.png"" class=""exp-image"">
                    <div class=""question-area""></div> 
                </div>","null","","","","","","","","",""
"","","","","","html-button-response","148","596679","0.0-148.0","867328F2B21F4860BC9390E63EB2538A","019cf709-5ba0-7206-b294-abffb985ced8","019cf6fe-235e-7d95-bb9b-b011d2fe188e","","1788","
                <div class=""stimulus-container"">
                    <img src=""images/causal_sequence/coin_causal/coin_causal_3.png"" class=""exp-image"">
                    <div class=""question-area"">
                        <p style=""font-size: 20px; font-weight: bold; margin: 0;"">Is there a person in this image?</p>
                    </div>
                </div>","0","main_experiment_trial","3","coin_causal","causal_sequence","","","","",""
"","","","","","html-keyboard-response","149","601681","0.0-149.0","867328F2B21F4860BC9390E63EB2538A","019cf709-5ba0-7206-b294-abffb985ced8","019cf6fe-235e-7d95-bb9b-b011d2fe188e","","null","
                <div class=""stimulus-container"">
                    <img src=""images/causal_sequence/coin_causal/coin_causal_4.png"" class=""exp-image"">
                    <div class=""question-area""></div> 
                </div>","null","","","","","","","","",""
"","","","","","html-button-response","150","602809","0.0-150.0","867328F2B21F4860BC9390E63EB2538A","019cf709-5ba0-7206-b294-abffb985ced8","019cf6fe-235e-7d95-bb9b-b011d2fe188e","","1125","
                <div class=""stimulus-container"">
                    <img src=""images/causal_sequence/coin_causal/coin_causal_4.png"" class=""exp-image"">
                    <div class=""question-area"">
                        <p style=""font-size: 20px; font-weight: bold; margin: 0;"">Is there a person in this image?</p>
                    </div>
                </div>","0","main_experiment_trial","4","coin_causal","causal_sequence","","","","",""
"","","","","","html-keyboard-response","151","607813","0.0-151.0","867328F2B21F4860BC9390E63EB2538A","019cf709-5ba0-7206-b294-abffb985ced8","019cf6fe-235e-7d95-bb9b-b011d2fe188e","","null","
                <div class=""stimulus-container"">
                    <img src=""images/causal_sequence/coin_causal/coin_causal_5.png"" class=""exp-image"">
                    <div class=""question-area""></div> 
                </div>","null","","","","","","","","",""
"","","","","","html-button-response","152","608760","0.0-152.0","867328F2B21F4860BC9390E63EB2538A","019cf709-5ba0-7206-b294-abffb985ced8","019cf6fe-235e-7d95-bb9b-b011d2fe188e","","946","
                <div class=""stimulus-container"">
                    <img src=""images/causal_sequence/coin_causal/coin_causal_5.png"" class=""exp-image"">
                    <div class=""question-area"">
                        <p style=""font-size: 20px; font-weight: bold; margin: 0;"">Is there a person in this image?</p>
                    </div>
                </div>","0","main_experiment_trial","5","coin_causal","causal_sequence","","","","",""
"","","","","","html-keyboard-response","153","613763","0.0-153.0","867328F2B21F4860BC9390E63EB2538A","019cf709-5ba0-7206-b294-abffb985ced8","019cf6fe-235e-7d95-bb9b-b011d2fe188e","","null","
                <div class=""stimulus-container"">
                    <img src=""images/causal_sequence/coin_causal/coin_causal_6.png"" class=""exp-image"">
                    <div class=""question-area""></div> 
                </div>","null","","","","","","","","",""
"","","","","","html-button-response","154","614636","0.0-154.0","867328F2B21F4860BC9390E63EB2538A","019cf709-5ba0-7206-b294-abffb985ced8","019cf6fe-235e-7d95-bb9b-b011d2fe188e","","870","
                <div class=""stimulus-container"">
                    <img src=""images/causal_sequence/coin_causal/coin_causal_6.png"" class=""exp-image"">
                    <div class=""question-area"">
                        <p style=""font-size: 20px; font-weight: bold; margin: 0;"">Is there a person in this image?</p>
                    </div>
                </div>","0","main_experiment_trial","6","coin_causal","causal_sequence","","","","",""
"","","","","","html-keyboard-response","155","619637","0.0-155.0","867328F2B21F4860BC9390E63EB2538A","019cf709-5ba0-7206-b294-abffb985ced8","019cf6fe-235e-7d95-bb9b-b011d2fe188e","","null","
                <div class=""stimulus-container"">
                    <img src=""images/causal_sequence/coin_causal/coin_causal_7.png"" class=""exp-image"">
                    <div class=""question-area""></div> 
                </div>","null","","","","","","","","",""
"","","","","","html-button-response","156","620988","0.0-156.0","867328F2B21F4860BC9390E63EB2538A","019cf709-5ba0-7206-b294-abffb985ced8","019cf6fe-235e-7d95-bb9b-b011d2fe188e","","1348","
                <div class=""stimulus-container"">
                    <img src=""images/causal_sequence/coin_causal/coin_causal_7.png"" class=""exp-image"">
                    <div class=""question-area"">
                        <p style=""font-size: 20px; font-weight: bold; margin: 0;"">Is there a person in this image?</p>
                    </div>
                </div>","0","main_experiment_trial","7","coin_causal","causal_sequence","","","","",""
"","","","","","html-keyboard-response","157","625990","0.0-157.0","867328F2B21F4860BC9390E63EB2538A","019cf709-5ba0-7206-b294-abffb985ced8","019cf6fe-235e-7d95-bb9b-b011d2fe188e","","null","
                <div class=""stimulus-container"">
                    <img src=""images/causal_sequence/coin_causal/coin_causal_8.png"" class=""exp-image"">
                    <div class=""question-area""></div> 
                </div>","null","","","","","","","","",""
"","","","","","html-button-response","158","627182","0.0-158.0","867328F2B21F4860BC9390E63EB2538A","019cf709-5ba0-7206-b294-abffb985ced8","019cf6fe-235e-7d95-bb9b-b011d2fe188e","","1190","
                <div class=""stimulus-container"">
                    <img src=""images/causal_sequence/coin_causal/coin_causal_8.png"" class=""exp-image"">
                    <div class=""question-area"">
                        <p style=""font-size: 20px; font-weight: bold; margin: 0;"">Is there a person in this image?</p>
                    </div>
                </div>","0","main_experiment_trial","8","coin_causal","causal_sequence","","","","",""
"","","","","","html-keyboard-response","159","632184","0.0-159.0","867328F2B21F4860BC9390E63EB2538A","019cf709-5ba0-7206-b294-abffb985ced8","019cf6fe-235e-7d95-bb9b-b011d2fe188e","","null","
                <div class=""stimulus-container"">
                    <img src=""images/causal_sequence/coin_causal/coin_causal_9.png"" class=""exp-image"">
                    <div class=""question-area""></div> 
                </div>","null","","","","","","","","",""
"","","","","","html-button-response","160","633433","0.0-160.0","867328F2B21F4860BC9390E63EB2538A","019cf709-5ba0-7206-b294-abffb985ced8","019cf6fe-235e-7d95-bb9b-b011d2fe188e","","1246","
                <div class=""stimulus-container"">
                    <img src=""images/causal_sequence/coin_causal/coin_causal_9.png"" class=""exp-image"">
                    <div class=""question-area"">
                        <p style=""font-size: 20px; font-weight: bold; margin: 0;"">Is there a person in this image?</p>
                    </div>
                </div>","0","main_experiment_trial","9","coin_causal","causal_sequence","","","","",""
"","","","","","html-keyboard-response","161","638436","0.0-161.0","867328F2B21F4860BC9390E63EB2538A","019cf709-5ba0-7206-b294-abffb985ced8","019cf6fe-235e-7d95-bb9b-b011d2fe188e","","null","
                <div class=""stimulus-container"">
                    <img src=""images/causal_sequence/coin_causal/coin_causal_ten.png"" class=""exp-image"">
                    <div class=""question-area""></div> 
                </div>","null","","","","","","","","",""
"","","","","","html-button-response","162","639583","0.0-162.0","867328F2B21F4860BC9390E63EB2538A","019cf709-5ba0-7206-b294-abffb985ced8","019cf6fe-235e-7d95-bb9b-b011d2fe188e","","1145","
                <div class=""stimulus-container"">
                    <img src=""images/causal_sequence/coin_causal/coin_causal_ten.png"" class=""exp-image"">
                    <div class=""question-area"">
                        <p style=""font-size: 20px; font-weight: bold; margin: 0;"">Is there a person in this image?</p>
                    </div>
                </div>","0","main_experiment_trial","ten","coin_causal","causal_sequence","","","","",""
"","","","","","html-keyboard-response","163","640585","0.0-163.0","867328F2B21F4860BC9390E63EB2538A","019cf709-5ba0-7206-b294-abffb985ced8","019cf6fe-235e-7d95-bb9b-b011d2fe188e","","null","<div style=""background-color: white; width: 100vw; height: 100vh;""></div>","null","","","","","","","","",""
"","","","","","html-keyboard-response","164","645587","0.0-164.0","867328F2B21F4860BC9390E63EB2538A","019cf709-5ba0-7206-b294-abffb985ced8","019cf6fe-235e-7d95-bb9b-b011d2fe188e","","null","
                <div class=""stimulus-container"">
                    <img src=""images/causal_sequence/package_causal/package_causal_1.png"" class=""exp-image"">
                    <div class=""question-area""></div> 
                </div>","null","","","","","","","","",""
"","","","","","html-button-response","165","648364","0.0-165.0","867328F2B21F4860BC9390E63EB2538A","019cf709-5ba0-7206-b294-abffb985ced8","019cf6fe-235e-7d95-bb9b-b011d2fe188e","","2773","
                <div class=""stimulus-container"">
                    <img src=""images/causal_sequence/package_causal/package_causal_1.png"" class=""exp-image"">
                    <div class=""question-area"">
                        <p style=""font-size: 20px; font-weight: bold; margin: 0;"">Is there a person in this image?</p>
                    </div>
                </div>","0","main_experiment_trial","1","package_causal","causal_sequence","","","","",""
"","","","","","html-keyboard-response","166","653367","0.0-166.0","867328F2B21F4860BC9390E63EB2538A","019cf709-5ba0-7206-b294-abffb985ced8","019cf6fe-235e-7d95-bb9b-b011d2fe188e","","null","
                <div class=""stimulus-container"">
                    <img src=""images/causal_sequence/package_causal/package_causal_2.png"" class=""exp-image"">
                    <div class=""question-area""></div> 
                </div>","null","","","","","","","","",""
"","","","","","html-button-response","167","656039","0.0-167.0","867328F2B21F4860BC9390E63EB2538A","019cf709-5ba0-7206-b294-abffb985ced8","019cf6fe-235e-7d95-bb9b-b011d2fe188e","","2669","
                <div class=""stimulus-container"">
                    <img src=""images/causal_sequence/package_causal/package_causal_2.png"" class=""exp-image"">
                    <div class=""question-area"">
                        <p style=""font-size: 20px; font-weight: bold; margin: 0;"">Is there a person in this image?</p>
                    </div>
                </div>","0","main_experiment_trial","2","package_causal","causal_sequence","","","","",""
"","","","","","html-keyboard-response","168","661042","0.0-168.0","867328F2B21F4860BC9390E63EB2538A","019cf709-5ba0-7206-b294-abffb985ced8","019cf6fe-235e-7d95-bb9b-b011d2fe188e","","null","
                <div class=""stimulus-container"">
                    <img src=""images/causal_sequence/package_causal/package_causal_3.png"" class=""exp-image"">
                    <div class=""question-area""></div> 
                </div>","null","","","","","","","","",""
"","","","","","html-button-response","169","661886","0.0-169.0","867328F2B21F4860BC9390E63EB2538A","019cf709-5ba0-7206-b294-abffb985ced8","019cf6fe-235e-7d95-bb9b-b011d2fe188e","","841","
                <div class=""stimulus-container"">
                    <img src=""images/causal_sequence/package_causal/package_causal_3.png"" class=""exp-image"">
                    <div class=""question-area"">
                        <p style=""font-size: 20px; font-weight: bold; margin: 0;"">Is there a person in this image?</p>
                    </div>
                </div>","0","main_experiment_trial","3","package_causal","causal_sequence","","","","",""
"","","","","","html-keyboard-response","170","666889","0.0-170.0","867328F2B21F4860BC9390E63EB2538A","019cf709-5ba0-7206-b294-abffb985ced8","019cf6fe-235e-7d95-bb9b-b011d2fe188e","","null","
                <div class=""stimulus-container"">
                    <img src=""images/causal_sequence/package_causal/package_causal_4.png"" class=""exp-image"">
                    <div class=""question-area""></div> 
                </div>","null","","","","","","","","",""
"","","","","","html-button-response","171","668801","0.0-171.0","867328F2B21F4860BC9390E63EB2538A","019cf709-5ba0-7206-b294-abffb985ced8","019cf6fe-235e-7d95-bb9b-b011d2fe188e","","1908","
                <div class=""stimulus-container"">
                    <img src=""images/causal_sequence/package_causal/package_causal_4.png"" class=""exp-image"">
                    <div class=""question-area"">
                        <p style=""font-size: 20px; font-weight: bold; margin: 0;"">Is there a person in this image?</p>
                    </div>
                </div>","1","main_experiment_trial","4","package_causal","causal_sequence","","","","",""
"","","","","","html-keyboard-response","172","673804","0.0-172.0","867328F2B21F4860BC9390E63EB2538A","019cf709-5ba0-7206-b294-abffb985ced8","019cf6fe-235e-7d95-bb9b-b011d2fe188e","","null","
                <div class=""stimulus-container"">
                    <img src=""images/causal_sequence/package_causal/package_causal_5.png"" class=""exp-image"">
                    <div class=""question-area""></div> 
                </div>","null","","","","","","","","",""
"","","","","","html-button-response","173","676807","0.0-173.0","867328F2B21F4860BC9390E63EB2538A","019cf709-5ba0-7206-b294-abffb985ced8","019cf6fe-235e-7d95-bb9b-b011d2fe188e","","null","
                <div class=""stimulus-container"">
                    <img src=""images/causal_sequence/package_causal/package_causal_5.png"" class=""exp-image"">
                    <div class=""question-area"">
                        <p style=""font-size: 20px; font-weight: bold; margin: 0;"">Is there a person in this image?</p>
                    </div>
                </div>","null","main_experiment_trial","5","package_causal","causal_sequence","","","","",""
"","","","","","html-keyboard-response","174","681809","0.0-174.0","867328F2B21F4860BC9390E63EB2538A","019cf709-5ba0-7206-b294-abffb985ced8","019cf6fe-235e-7d95-bb9b-b011d2fe188e","","null","
                <div class=""stimulus-container"">
                    <img src=""images/causal_sequence/package_causal/package_causal_6.png"" class=""exp-image"">
                    <div class=""question-area""></div> 
                </div>","null","","","","","","","","",""
"","","","","","html-button-response","175","682852","0.0-175.0","867328F2B21F4860BC9390E63EB2538A","019cf709-5ba0-7206-b294-abffb985ced8","019cf6fe-235e-7d95-bb9b-b011d2fe188e","","1041","
                <div class=""stimulus-container"">
                    <img src=""images/causal_sequence/package_causal/package_causal_6.png"" class=""exp-image"">
                    <div class=""question-area"">
                        <p style=""font-size: 20px; font-weight: bold; margin: 0;"">Is there a person in this image?</p>
                    </div>
                </div>","0","main_experiment_trial","6","package_causal","causal_sequence","","","","",""
"","","","","","html-keyboard-response","176","687855","0.0-176.0","867328F2B21F4860BC9390E63EB2538A","019cf709-5ba0-7206-b294-abffb985ced8","019cf6fe-235e-7d95-bb9b-b011d2fe188e","","null","
                <div class=""stimulus-container"">
                    <img src=""images/causal_sequence/package_causal/package_causal_7.png"" class=""exp-image"">
                    <div class=""question-area""></div> 
                </div>","null","","","","","","","","",""
"","","","","","html-button-response","177","690859","0.0-177.0","867328F2B21F4860BC9390E63EB2538A","019cf709-5ba0-7206-b294-abffb985ced8","019cf6fe-235e-7d95-bb9b-b011d2fe188e","","null","
                <div class=""stimulus-container"">
                    <img src=""images/causal_sequence/package_causal/package_causal_7.png"" class=""exp-image"">
                    <div class=""question-area"">
                        <p style=""font-size: 20px; font-weight: bold; margin: 0;"">Is there a person in this image?</p>
                    </div>
                </div>","null","main_experiment_trial","7","package_causal","causal_sequence","","","","",""
"","","","","","html-keyboard-response","178","695863","0.0-178.0","867328F2B21F4860BC9390E63EB2538A","019cf709-5ba0-7206-b294-abffb985ced8","019cf6fe-235e-7d95-bb9b-b011d2fe188e","","null","
                <div class=""stimulus-container"">
                    <img src=""images/causal_sequence/package_causal/package_causal_8.png"" class=""exp-image"">
                    <div class=""question-area""></div> 
                </div>","null","","","","","","","","",""
"","","","","","html-button-response","179","697760","0.0-179.0","867328F2B21F4860BC9390E63EB2538A","019cf709-5ba0-7206-b294-abffb985ced8","019cf6fe-235e-7d95-bb9b-b011d2fe188e","","1896","
                <div class=""stimulus-container"">
                    <img src=""images/causal_sequence/package_causal/package_causal_8.png"" class=""exp-image"">
                    <div class=""question-area"">
                        <p style=""font-size: 20px; font-weight: bold; margin: 0;"">Is there a person in this image?</p>
                    </div>
                </div>","0","main_experiment_trial","8","package_causal","causal_sequence","","","","",""
"","","","","","html-keyboard-response","180","702765","0.0-180.0","867328F2B21F4860BC9390E63EB2538A","019cf709-5ba0-7206-b294-abffb985ced8","019cf6fe-235e-7d95-bb9b-b011d2fe188e","","null","
                <div class=""stimulus-container"">
                    <img src=""images/causal_sequence/package_causal/package_causal_9.png"" class=""exp-image"">
                    <div class=""question-area""></div> 
                </div>","null","","","","","","","","",""
"","","","","","html-button-response","181","703425","0.0-181.0","867328F2B21F4860BC9390E63EB2538A","019cf709-5ba0-7206-b294-abffb985ced8","019cf6fe-235e-7d95-bb9b-b011d2fe188e","","658","
                <div class=""stimulus-container"">
                    <img src=""images/causal_sequence/package_causal/package_causal_9.png"" class=""exp-image"">
                    <div class=""question-area"">
                        <p style=""font-size: 20px; font-weight: bold; margin: 0;"">Is there a person in this image?</p>
                    </div>
                </div>","0","main_experiment_trial","9","package_causal","causal_sequence","","","","",""
"","","","","","html-keyboard-response","182","708426","0.0-182.0","867328F2B21F4860BC9390E63EB2538A","019cf709-5ba0-7206-b294-abffb985ced8","019cf6fe-235e-7d95-bb9b-b011d2fe188e","","null","
                <div class=""stimulus-container"">
                    <img src=""images/causal_sequence/package_causal/package_causal_ten.png"" class=""exp-image"">
                    <div class=""question-area""></div> 
                </div>","null","","","","","","","","",""
"","","","","","html-button-response","183","709150","0.0-183.0","867328F2B21F4860BC9390E63EB2538A","019cf709-5ba0-7206-b294-abffb985ced8","019cf6fe-235e-7d95-bb9b-b011d2fe188e","","720","
                <div class=""stimulus-container"">
                    <img src=""images/causal_sequence/package_causal/package_causal_ten.png"" class=""exp-image"">
                    <div class=""question-area"">
                        <p style=""font-size: 20px; font-weight: bold; margin: 0;"">Is there a person in this image?</p>
