"success","timeout","failed_images","failed_audio","failed_video","trial_type","trial_index","time_elapsed","internal_node_id","subject_id","study_id","session_id","view_history","rt","stimulus","response","task","image_index","folder","valuable_image_index","valuable_X","chosen_image_index","distance_from_X"
"false","false","[]","[]","[]","preload","0","178064","0.0-0.0","D18E8083ADC74EF4A3A3C716416DF25D","019ce7dd-56a6-7a57-8748-04a673535734","019ce7a0-0965-7aa7-a556-174d32a8e773","","","","","","","","","","",""
"","","","","","instructions","1","201204","0.0-1.0","D18E8083ADC74EF4A3A3C716416DF25D","019ce7dd-56a6-7a57-8748-04a673535734","019ce7a0-0965-7aa7-a556-174d32a8e773","[{""page_index"":0,""viewing_time"":23138}]","23139","","","","","","","","",""
"","","","","","instructions","2","240639","0.0-2.0","D18E8083ADC74EF4A3A3C716416DF25D","019ce7dd-56a6-7a57-8748-04a673535734","019ce7a0-0965-7aa7-a556-174d32a8e773","[{""page_index"":0,""viewing_time"":39434}]","39434","","","","","","","","",""
"true","","","","","fullscreen","3","243362","0.0-3.0","D18E8083ADC74EF4A3A3C716416DF25D","019ce7dd-56a6-7a57-8748-04a673535734","019ce7a0-0965-7aa7-a556-174d32a8e773","","1712","","","","","","","","",""
"","","","","","instructions","4","256446","0.0-4.0","D18E8083ADC74EF4A3A3C716416DF25D","019ce7dd-56a6-7a57-8748-04a673535734","019ce7a0-0965-7aa7-a556-174d32a8e773","[{""page_index"":0,""viewing_time"":13083}]","13083","","","","","","","","",""
"","","","","","instructions","5","267619","0.0-5.0","D18E8083ADC74EF4A3A3C716416DF25D","019ce7dd-56a6-7a57-8748-04a673535734","019ce7a0-0965-7aa7-a556-174d32a8e773","[{""page_index"":0,""viewing_time"":11172}]","11172","","","","","","","","",""
"","","","","","html-keyboard-response","6","271625","0.0-6.0","D18E8083ADC74EF4A3A3C716416DF25D","019ce7dd-56a6-7a57-8748-04a673535734","019ce7a0-0965-7aa7-a556-174d32a8e773","","null","
                <div class=""stimulus-container"">
                    <img src=""images/instructions/movie_1.png"" class=""exp-image"">
                    <div class=""question-area""></div> 
                </div>","null","","","","","","",""
"","","","","","html-button-response","7","274639","0.0-7.0","D18E8083ADC74EF4A3A3C716416DF25D","019ce7dd-56a6-7a57-8748-04a673535734","019ce7a0-0965-7aa7-a556-174d32a8e773","","null","
                <div class=""stimulus-container"">
                    <img src=""images/instructions/movie_1.png"" class=""exp-image"">
                    <div class=""question-area"">
                        <p style=""font-size: 20px; font-weight: bold; margin: 0;"">Was there a person in this image?</p>
                    </div>
                </div>","null","example_question","1","","","","",""
"","","","","","html-keyboard-response","8","278645","0.0-8.0","D18E8083ADC74EF4A3A3C716416DF25D","019ce7dd-56a6-7a57-8748-04a673535734","019ce7a0-0965-7aa7-a556-174d32a8e773","","null","
                <div class=""stimulus-container"">
                    <img src=""images/instructions/movie_2.png"" class=""exp-image"">
                    <div class=""question-area""></div> 
                </div>","null","","","","","","",""
"","","","","","html-button-response","9","280358","0.0-9.0","D18E8083ADC74EF4A3A3C716416DF25D","019ce7dd-56a6-7a57-8748-04a673535734","019ce7a0-0965-7aa7-a556-174d32a8e773","","1710","
                <div class=""stimulus-container"">
                    <img src=""images/instructions/movie_2.png"" class=""exp-image"">
                    <div class=""question-area"">
                        <p style=""font-size: 20px; font-weight: bold; margin: 0;"">Was there a person in this image?</p>
                    </div>
                </div>","1","example_question","2","","","","",""
"","","","","","html-keyboard-response","10","284366","0.0-10.0","D18E8083ADC74EF4A3A3C716416DF25D","019ce7dd-56a6-7a57-8748-04a673535734","019ce7a0-0965-7aa7-a556-174d32a8e773","","null","
                <div class=""stimulus-container"">
                    <img src=""images/instructions/movie_3.png"" class=""exp-image"">
                    <div class=""question-area""></div> 
                </div>","null","","","","","","",""
"","","","","","html-button-response","11","285088","0.0-11.0","D18E8083ADC74EF4A3A3C716416DF25D","019ce7dd-56a6-7a57-8748-04a673535734","019ce7a0-0965-7aa7-a556-174d32a8e773","","720","
                <div class=""stimulus-container"">
                    <img src=""images/instructions/movie_3.png"" class=""exp-image"">
                    <div class=""question-area"">
                        <p style=""font-size: 20px; font-weight: bold; margin: 0;"">Was there a person in this image?</p>
                    </div>
                </div>","0","example_question","3","","","","",""
"","","","","","html-keyboard-response","12","289096","0.0-12.0","D18E8083ADC74EF4A3A3C716416DF25D","019ce7dd-56a6-7a57-8748-04a673535734","019ce7a0-0965-7aa7-a556-174d32a8e773","","null","
                <div class=""stimulus-container"">
                    <img src=""images/instructions/movie_4.png"" class=""exp-image"">
                    <div class=""question-area""></div> 
                </div>","null","","","","","","",""
"","","","","","html-button-response","13","289847","0.0-13.0","D18E8083ADC74EF4A3A3C716416DF25D","019ce7dd-56a6-7a57-8748-04a673535734","019ce7a0-0965-7aa7-a556-174d32a8e773","","749","
                <div class=""stimulus-container"">
                    <img src=""images/instructions/movie_4.png"" class=""exp-image"">
                    <div class=""question-area"">
                        <p style=""font-size: 20px; font-weight: bold; margin: 0;"">Was there a person in this image?</p>
                    </div>
                </div>","0","example_question","4","","","","",""
"","","","","","instructions","14","292436","0.0-14.0","D18E8083ADC74EF4A3A3C716416DF25D","019ce7dd-56a6-7a57-8748-04a673535734","019ce7a0-0965-7aa7-a556-174d32a8e773","[{""page_index"":0,""viewing_time"":2588}]","2588","","","","","","","","",""
"","","","","","html-keyboard-response","15","293440","0.0-15.0","D18E8083ADC74EF4A3A3C716416DF25D","019ce7dd-56a6-7a57-8748-04a673535734","019ce7a0-0965-7aa7-a556-174d32a8e773","","null","<div style=""background-color: gray; width: 100vw; height: 100vh;""></div>","null","","","","","","",""
"","","","","","html-keyboard-response","16","298442","0.0-16.0","D18E8083ADC74EF4A3A3C716416DF25D","019ce7dd-56a6-7a57-8748-04a673535734","019ce7a0-0965-7aa7-a556-174d32a8e773","","null","
                    <div class=""stimulus-container"">
                        <img src=""images/causal_sequence/saving_a_cat_causal/saving_a_cat_causal_1.png"" class=""exp-image"">
                        <div class=""question-area""></div> 
                    </div>","null","","","","","","",""
"","","","","","html-button-response","17","299858","0.0-17.0","D18E8083ADC74EF4A3A3C716416DF25D","019ce7dd-56a6-7a57-8748-04a673535734","019ce7a0-0965-7aa7-a556-174d32a8e773","","1415","
                    <div class=""stimulus-container"">
                        <img src=""images/causal_sequence/saving_a_cat_causal/saving_a_cat_causal_1.png"" class=""exp-image"">
                        <div class=""question-area"">
                            <p style=""font-size: 20px; font-weight: bold; margin: 0;"">Is there a person in this image?</p>
                        </div>
                    </div>","0","main_causal_task","1","saving_a_cat_causal","","","",""
"","","","","","html-keyboard-response","18","304868","0.0-18.0","D18E8083ADC74EF4A3A3C716416DF25D","019ce7dd-56a6-7a57-8748-04a673535734","019ce7a0-0965-7aa7-a556-174d32a8e773","","null","
                    <div class=""stimulus-container"">
                        <img src=""images/causal_sequence/saving_a_cat_causal/saving_a_cat_causal_2.png"" class=""exp-image"">
                        <div class=""question-area""></div> 
                    </div>","null","","","","","","",""
"","","","","","html-button-response","19","306232","0.0-19.0","D18E8083ADC74EF4A3A3C716416DF25D","019ce7dd-56a6-7a57-8748-04a673535734","019ce7a0-0965-7aa7-a556-174d32a8e773","","1362","
                    <div class=""stimulus-container"">
                        <img src=""images/causal_sequence/saving_a_cat_causal/saving_a_cat_causal_2.png"" class=""exp-image"">
                        <div class=""question-area"">
                            <p style=""font-size: 20px; font-weight: bold; margin: 0;"">Is there a person in this image?</p>
                        </div>
                    </div>","1","main_causal_task","2","saving_a_cat_causal","","","",""
"","","","","","html-keyboard-response","20","311247","0.0-20.0","D18E8083ADC74EF4A3A3C716416DF25D","019ce7dd-56a6-7a57-8748-04a673535734","019ce7a0-0965-7aa7-a556-174d32a8e773","","null","
                    <div class=""stimulus-container"">
                        <img src=""images/causal_sequence/saving_a_cat_causal/saving_a_cat_causal_3.png"" class=""exp-image"">
                        <div class=""question-area""></div> 
                    </div>","null","","","","","","",""
"","","","","","html-button-response","21","312064","0.0-21.0","D18E8083ADC74EF4A3A3C716416DF25D","019ce7dd-56a6-7a57-8748-04a673535734","019ce7a0-0965-7aa7-a556-174d32a8e773","","816","
                    <div class=""stimulus-container"">
                        <img src=""images/causal_sequence/saving_a_cat_causal/saving_a_cat_causal_3.png"" class=""exp-image"">
                        <div class=""question-area"">
                            <p style=""font-size: 20px; font-weight: bold; margin: 0;"">Is there a person in this image?</p>
                        </div>
                    </div>","1","main_causal_task","3","saving_a_cat_causal","","","",""
"","","","","","html-keyboard-response","22","317077","0.0-22.0","D18E8083ADC74EF4A3A3C716416DF25D","019ce7dd-56a6-7a57-8748-04a673535734","019ce7a0-0965-7aa7-a556-174d32a8e773","","null","
                    <div class=""stimulus-container"">
                        <img src=""images/causal_sequence/saving_a_cat_causal/saving_a_cat_causal_4.png"" class=""exp-image"">
                        <div class=""question-area""></div> 
                    </div>","null","","","","","","",""
"","","","","","html-button-response","23","318229","0.0-23.0","D18E8083ADC74EF4A3A3C716416DF25D","019ce7dd-56a6-7a57-8748-04a673535734","019ce7a0-0965-7aa7-a556-174d32a8e773","","1150","
                    <div class=""stimulus-container"">
                        <img src=""images/causal_sequence/saving_a_cat_causal/saving_a_cat_causal_4.png"" class=""exp-image"">
                        <div class=""question-area"">
                            <p style=""font-size: 20px; font-weight: bold; margin: 0;"">Is there a person in this image?</p>
                        </div>
                    </div>","0","main_causal_task","4","saving_a_cat_causal","","","",""
"","","","","","html-keyboard-response","24","323240","0.0-24.0","D18E8083ADC74EF4A3A3C716416DF25D","019ce7dd-56a6-7a57-8748-04a673535734","019ce7a0-0965-7aa7-a556-174d32a8e773","","null","
                    <div class=""stimulus-container"">
                        <img src=""images/causal_sequence/saving_a_cat_causal/saving_a_cat_causal_5.png"" class=""exp-image"">
                        <div class=""question-area""></div> 
                    </div>","null","","","","","","",""
"","","","","","html-button-response","25","324227","0.0-25.0","D18E8083ADC74EF4A3A3C716416DF25D","019ce7dd-56a6-7a57-8748-04a673535734","019ce7a0-0965-7aa7-a556-174d32a8e773","","985","
                    <div class=""stimulus-container"">
                        <img src=""images/causal_sequence/saving_a_cat_causal/saving_a_cat_causal_5.png"" class=""exp-image"">
                        <div class=""question-area"">
                            <p style=""font-size: 20px; font-weight: bold; margin: 0;"">Is there a person in this image?</p>
                        </div>
                    </div>","0","main_causal_task","5","saving_a_cat_causal","","","",""
"","","","","","html-keyboard-response","26","329231","0.0-26.0","D18E8083ADC74EF4A3A3C716416DF25D","019ce7dd-56a6-7a57-8748-04a673535734","019ce7a0-0965-7aa7-a556-174d32a8e773","","null","
                    <div class=""stimulus-container"">
                        <img src=""images/causal_sequence/saving_a_cat_causal/saving_a_cat_causal_6.png"" class=""exp-image"">
                        <div class=""question-area""></div> 
                    </div>","null","","","","","","",""
"","","","","","html-button-response","27","330318","0.0-27.0","D18E8083ADC74EF4A3A3C716416DF25D","019ce7dd-56a6-7a57-8748-04a673535734","019ce7a0-0965-7aa7-a556-174d32a8e773","","1086","
                    <div class=""stimulus-container"">
                        <img src=""images/causal_sequence/saving_a_cat_causal/saving_a_cat_causal_6.png"" class=""exp-image"">
                        <div class=""question-area"">
                            <p style=""font-size: 20px; font-weight: bold; margin: 0;"">Is there a person in this image?</p>
                        </div>
                    </div>","0","main_causal_task","6","saving_a_cat_causal","","","",""
"","","","","","html-keyboard-response","28","335333","0.0-28.0","D18E8083ADC74EF4A3A3C716416DF25D","019ce7dd-56a6-7a57-8748-04a673535734","019ce7a0-0965-7aa7-a556-174d32a8e773","","null","
                    <div class=""stimulus-container"">
                        <img src=""images/causal_sequence/saving_a_cat_causal/saving_a_cat_causal_7.png"" class=""exp-image"">
                        <div class=""question-area""></div> 
                    </div>","null","","","","","","",""
"","","","","","html-button-response","29","336170","0.0-29.0","D18E8083ADC74EF4A3A3C716416DF25D","019ce7dd-56a6-7a57-8748-04a673535734","019ce7a0-0965-7aa7-a556-174d32a8e773","","836","
                    <div class=""stimulus-container"">
                        <img src=""images/causal_sequence/saving_a_cat_causal/saving_a_cat_causal_7.png"" class=""exp-image"">
                        <div class=""question-area"">
                            <p style=""font-size: 20px; font-weight: bold; margin: 0;"">Is there a person in this image?</p>
                        </div>
                    </div>","0","main_causal_task","7","saving_a_cat_causal","","","",""
"","","","","","html-keyboard-response","30","341187","0.0-30.0","D18E8083ADC74EF4A3A3C716416DF25D","019ce7dd-56a6-7a57-8748-04a673535734","019ce7a0-0965-7aa7-a556-174d32a8e773","","null","
                    <div class=""stimulus-container"">
                        <img src=""images/causal_sequence/saving_a_cat_causal/saving_a_cat_causal_8.png"" class=""exp-image"">
                        <div class=""question-area""></div> 
                    </div>","null","","","","","","",""
"","","","","","html-button-response","31","342054","0.0-31.0","D18E8083ADC74EF4A3A3C716416DF25D","019ce7dd-56a6-7a57-8748-04a673535734","019ce7a0-0965-7aa7-a556-174d32a8e773","","866","
                    <div class=""stimulus-container"">
                        <img src=""images/causal_sequence/saving_a_cat_causal/saving_a_cat_causal_8.png"" class=""exp-image"">
                        <div class=""question-area"">
                            <p style=""font-size: 20px; font-weight: bold; margin: 0;"">Is there a person in this image?</p>
                        </div>
                    </div>","0","main_causal_task","8","saving_a_cat_causal","","","",""
"","","","","","html-keyboard-response","32","347057","0.0-32.0","D18E8083ADC74EF4A3A3C716416DF25D","019ce7dd-56a6-7a57-8748-04a673535734","019ce7a0-0965-7aa7-a556-174d32a8e773","","null","
                    <div class=""stimulus-container"">
                        <img src=""images/causal_sequence/saving_a_cat_causal/saving_a_cat_causal_9.png"" class=""exp-image"">
                        <div class=""question-area""></div> 
                    </div>","null","","","","","","",""
"","","","","","html-button-response","33","347870","0.0-33.0","D18E8083ADC74EF4A3A3C716416DF25D","019ce7dd-56a6-7a57-8748-04a673535734","019ce7a0-0965-7aa7-a556-174d32a8e773","","811","
                    <div class=""stimulus-container"">
                        <img src=""images/causal_sequence/saving_a_cat_causal/saving_a_cat_causal_9.png"" class=""exp-image"">
                        <div class=""question-area"">
                            <p style=""font-size: 20px; font-weight: bold; margin: 0;"">Is there a person in this image?</p>
                        </div>
                    </div>","0","main_causal_task","9","saving_a_cat_causal","","","",""
"","","","","","html-keyboard-response","34","348884","0.0-34.0","D18E8083ADC74EF4A3A3C716416DF25D","019ce7dd-56a6-7a57-8748-04a673535734","019ce7a0-0965-7aa7-a556-174d32a8e773","","null","<div style=""background-color: gray; width: 100vw; height: 100vh;""></div>","null","","","","","","",""
"","","","","","html-keyboard-response","35","353897","0.0-35.0","D18E8083ADC74EF4A3A3C716416DF25D","019ce7dd-56a6-7a57-8748-04a673535734","019ce7a0-0965-7aa7-a556-174d32a8e773","","null","
                    <div class=""stimulus-container"">
                        <img src=""images/causal_sequence/museum_causal/museum_causal_1.png"" class=""exp-image"">
                        <div class=""question-area""></div> 
                    </div>","null","","","","","","",""
"","","","","","html-button-response","36","354833","0.0-36.0","D18E8083ADC74EF4A3A3C716416DF25D","019ce7dd-56a6-7a57-8748-04a673535734","019ce7a0-0965-7aa7-a556-174d32a8e773","","935","
                    <div class=""stimulus-container"">
                        <img src=""images/causal_sequence/museum_causal/museum_causal_1.png"" class=""exp-image"">
                        <div class=""question-area"">
                            <p style=""font-size: 20px; font-weight: bold; margin: 0;"">Is there a person in this image?</p>
                        </div>
                    </div>","0","main_causal_task","1","museum_causal","","","",""
"","","","","","html-keyboard-response","37","359848","0.0-37.0","D18E8083ADC74EF4A3A3C716416DF25D","019ce7dd-56a6-7a57-8748-04a673535734","019ce7a0-0965-7aa7-a556-174d32a8e773","","null","
                    <div class=""stimulus-container"">
                        <img src=""images/causal_sequence/museum_causal/museum_causal_2.png"" class=""exp-image"">
                        <div class=""question-area""></div> 
                    </div>","null","","","","","","",""
"","","","","","html-button-response","38","361995","0.0-38.0","D18E8083ADC74EF4A3A3C716416DF25D","019ce7dd-56a6-7a57-8748-04a673535734","019ce7a0-0965-7aa7-a556-174d32a8e773","","2145","
                    <div class=""stimulus-container"">
                        <img src=""images/causal_sequence/museum_causal/museum_causal_2.png"" class=""exp-image"">
                        <div class=""question-area"">
                            <p style=""font-size: 20px; font-weight: bold; margin: 0;"">Is there a person in this image?</p>
                        </div>
                    </div>","0","main_causal_task","2","museum_causal","","","",""
"","","","","","html-keyboard-response","39","367011","0.0-39.0","D18E8083ADC74EF4A3A3C716416DF25D","019ce7dd-56a6-7a57-8748-04a673535734","019ce7a0-0965-7aa7-a556-174d32a8e773","","null","
                    <div class=""stimulus-container"">
                        <img src=""images/causal_sequence/museum_causal/museum_causal_3.png"" class=""exp-image"">
                        <div class=""question-area""></div> 
                    </div>","null","","","","","","",""
"","","","","","html-button-response","40","368051","0.0-40.0","D18E8083ADC74EF4A3A3C716416DF25D","019ce7dd-56a6-7a57-8748-04a673535734","019ce7a0-0965-7aa7-a556-174d32a8e773","","1038","
                    <div class=""stimulus-container"">
                        <img src=""images/causal_sequence/museum_causal/museum_causal_3.png"" class=""exp-image"">
                        <div class=""question-area"">
                            <p style=""font-size: 20px; font-weight: bold; margin: 0;"">Is there a person in this image?</p>
                        </div>
                    </div>","0","main_causal_task","3","museum_causal","","","",""
"","","","","","html-keyboard-response","41","373057","0.0-41.0","D18E8083ADC74EF4A3A3C716416DF25D","019ce7dd-56a6-7a57-8748-04a673535734","019ce7a0-0965-7aa7-a556-174d32a8e773","","null","
                    <div class=""stimulus-container"">
                        <img src=""images/causal_sequence/museum_causal/museum_causal_4.png"" class=""exp-image"">
                        <div class=""question-area""></div> 
                    </div>","null","","","","","","",""
"","","","","","html-button-response","42","373687","0.0-42.0","D18E8083ADC74EF4A3A3C716416DF25D","019ce7dd-56a6-7a57-8748-04a673535734","019ce7a0-0965-7aa7-a556-174d32a8e773","","628","
                    <div class=""stimulus-container"">
                        <img src=""images/causal_sequence/museum_causal/museum_causal_4.png"" class=""exp-image"">
                        <div class=""question-area"">
                            <p style=""font-size: 20px; font-weight: bold; margin: 0;"">Is there a person in this image?</p>
                        </div>
                    </div>","1","main_causal_task","4","museum_causal","","","",""
"","","","","","html-keyboard-response","43","378702","0.0-43.0","D18E8083ADC74EF4A3A3C716416DF25D","019ce7dd-56a6-7a57-8748-04a673535734","019ce7a0-0965-7aa7-a556-174d32a8e773","","null","
                    <div class=""stimulus-container"">
                        <img src=""images/causal_sequence/museum_causal/museum_causal_5.png"" class=""exp-image"">
                        <div class=""question-area""></div> 
                    </div>","null","","","","","","",""
"","","","","","html-button-response","44","379358","0.0-44.0","D18E8083ADC74EF4A3A3C716416DF25D","019ce7dd-56a6-7a57-8748-04a673535734","019ce7a0-0965-7aa7-a556-174d32a8e773","","655","
                    <div class=""stimulus-container"">
                        <img src=""images/causal_sequence/museum_causal/museum_causal_5.png"" class=""exp-image"">
                        <div class=""question-area"">
                            <p style=""font-size: 20px; font-weight: bold; margin: 0;"">Is there a person in this image?</p>
                        </div>
                    </div>","0","main_causal_task","5","museum_causal","","","",""
"","","","","","html-keyboard-response","45","384366","0.0-45.0","D18E8083ADC74EF4A3A3C716416DF25D","019ce7dd-56a6-7a57-8748-04a673535734","019ce7a0-0965-7aa7-a556-174d32a8e773","","null","
                    <div class=""stimulus-container"">
                        <img src=""images/causal_sequence/museum_causal/museum_causal_6.png"" class=""exp-image"">
                        <div class=""question-area""></div> 
                    </div>","null","","","","","","",""
"","","","","","html-button-response","46","386470","0.0-46.0","D18E8083ADC74EF4A3A3C716416DF25D","019ce7dd-56a6-7a57-8748-04a673535734","019ce7a0-0965-7aa7-a556-174d32a8e773","","2103","
                    <div class=""stimulus-container"">
                        <img src=""images/causal_sequence/museum_causal/museum_causal_6.png"" class=""exp-image"">
                        <div class=""question-area"">
                            <p style=""font-size: 20px; font-weight: bold; margin: 0;"">Is there a person in this image?</p>
                        </div>
                    </div>","0","main_causal_task","6","museum_causal","","","",""
"","","","","","html-keyboard-response","47","391476","0.0-47.0","D18E8083ADC74EF4A3A3C716416DF25D","019ce7dd-56a6-7a57-8748-04a673535734","019ce7a0-0965-7aa7-a556-174d32a8e773","","null","
                    <div class=""stimulus-container"">
                        <img src=""images/causal_sequence/museum_causal/museum_causal_7.png"" class=""exp-image"">
                        <div class=""question-area""></div> 
                    </div>","null","","","","","","",""
"","","","","","html-button-response","48","392132","0.0-48.0","D18E8083ADC74EF4A3A3C716416DF25D","019ce7dd-56a6-7a57-8748-04a673535734","019ce7a0-0965-7aa7-a556-174d32a8e773","","655","
                    <div class=""stimulus-container"">
                        <img src=""images/causal_sequence/museum_causal/museum_causal_7.png"" class=""exp-image"">
                        <div class=""question-area"">
                            <p style=""font-size: 20px; font-weight: bold; margin: 0;"">Is there a person in this image?</p>
                        </div>
                    </div>","1","main_causal_task","7","museum_causal","","","",""
"","","","","","html-keyboard-response","49","397138","0.0-49.0","D18E8083ADC74EF4A3A3C716416DF25D","019ce7dd-56a6-7a57-8748-04a673535734","019ce7a0-0965-7aa7-a556-174d32a8e773","","null","
                    <div class=""stimulus-container"">
                        <img src=""images/causal_sequence/museum_causal/museum_causal_8.png"" class=""exp-image"">
                        <div class=""question-area""></div> 
                    </div>","null","","","","","","",""
"","","","","","html-button-response","50","397795","0.0-50.0","D18E8083ADC74EF4A3A3C716416DF25D","019ce7dd-56a6-7a57-8748-04a673535734","019ce7a0-0965-7aa7-a556-174d32a8e773","","656","
                    <div class=""stimulus-container"">
                        <img src=""images/causal_sequence/museum_causal/museum_causal_8.png"" class=""exp-image"">
                        <div class=""question-area"">
                            <p style=""font-size: 20px; font-weight: bold; margin: 0;"">Is there a person in this image?</p>
                        </div>
                    </div>","0","main_causal_task","8","museum_causal","","","",""
"","","","","","html-keyboard-response","51","402801","0.0-51.0","D18E8083ADC74EF4A3A3C716416DF25D","019ce7dd-56a6-7a57-8748-04a673535734","019ce7a0-0965-7aa7-a556-174d32a8e773","","null","
                    <div class=""stimulus-container"">
                        <img src=""images/causal_sequence/museum_causal/museum_causal_9.png"" class=""exp-image"">
                        <div class=""question-area""></div> 
                    </div>","null","","","","","","",""
"","","","","","html-button-response","52","403505","0.0-52.0","D18E8083ADC74EF4A3A3C716416DF25D","019ce7dd-56a6-7a57-8748-04a673535734","019ce7a0-0965-7aa7-a556-174d32a8e773","","703","
                    <div class=""stimulus-container"">
                        <img src=""images/causal_sequence/museum_causal/museum_causal_9.png"" class=""exp-image"">
                        <div class=""question-area"">
                            <p style=""font-size: 20px; font-weight: bold; margin: 0;"">Is there a person in this image?</p>
                        </div>
                    </div>","1","main_causal_task","9","museum_causal","","","",""
"","","","","","html-keyboard-response","53","404514","0.0-53.0","D18E8083ADC74EF4A3A3C716416DF25D","019ce7dd-56a6-7a57-8748-04a673535734","019ce7a0-0965-7aa7-a556-174d32a8e773","","null","<div style=""background-color: gray; width: 100vw; height: 100vh;""></div>","null","","","","","","",""
"","","","","","html-keyboard-response","54","409525","0.0-54.0","D18E8083ADC74EF4A3A3C716416DF25D","019ce7dd-56a6-7a57-8748-04a673535734","019ce7a0-0965-7aa7-a556-174d32a8e773","","null","
                    <div class=""stimulus-container"">
                        <img src=""images/causal_sequence/coin_causal/coin_causal_1.png"" class=""exp-image"">
                        <div class=""question-area""></div> 
                    </div>","null","","","","","","",""
"","","","","","html-button-response","55","410426","0.0-55.0","D18E8083ADC74EF4A3A3C716416DF25D","019ce7dd-56a6-7a57-8748-04a673535734","019ce7a0-0965-7aa7-a556-174d32a8e773","","900","
                    <div class=""stimulus-container"">
                        <img src=""images/causal_sequence/coin_causal/coin_causal_1.png"" class=""exp-image"">
                        <div class=""question-area"">
                            <p style=""font-size: 20px; font-weight: bold; margin: 0;"">Is there a person in this image?</p>
                        </div>
                    </div>","0","main_causal_task","1","coin_causal","","","",""
"","","","","","html-keyboard-response","56","415429","0.0-56.0","D18E8083ADC74EF4A3A3C716416DF25D","019ce7dd-56a6-7a57-8748-04a673535734","019ce7a0-0965-7aa7-a556-174d32a8e773","","null","
                    <div class=""stimulus-container"">
                        <img src=""images/causal_sequence/coin_causal/coin_causal_2.png"" class=""exp-image"">
                        <div class=""question-area""></div> 
                    </div>","null","","","","","","",""
"","","","","","html-button-response","57","416151","0.0-57.0","D18E8083ADC74EF4A3A3C716416DF25D","019ce7dd-56a6-7a57-8748-04a673535734","019ce7a0-0965-7aa7-a556-174d32a8e773","","721","
                    <div class=""stimulus-container"">
                        <img src=""images/causal_sequence/coin_causal/coin_causal_2.png"" class=""exp-image"">
                        <div class=""question-area"">
                            <p style=""font-size: 20px; font-weight: bold; margin: 0;"">Is there a person in this image?</p>
                        </div>
                    </div>","0","main_causal_task","2","coin_causal","","","",""
"","","","","","html-keyboard-response","58","421166","0.0-58.0","D18E8083ADC74EF4A3A3C716416DF25D","019ce7dd-56a6-7a57-8748-04a673535734","019ce7a0-0965-7aa7-a556-174d32a8e773","","null","
                    <div class=""stimulus-container"">
                        <img src=""images/causal_sequence/coin_causal/coin_causal_3.png"" class=""exp-image"">
                        <div class=""question-area""></div> 
                    </div>","null","","","","","","",""
"","","","","","html-button-response","59","421834","0.0-59.0","D18E8083ADC74EF4A3A3C716416DF25D","019ce7dd-56a6-7a57-8748-04a673535734","019ce7a0-0965-7aa7-a556-174d32a8e773","","667","
                    <div class=""stimulus-container"">
                        <img src=""images/causal_sequence/coin_causal/coin_causal_3.png"" class=""exp-image"">
                        <div class=""question-area"">
                            <p style=""font-size: 20px; font-weight: bold; margin: 0;"">Is there a person in this image?</p>
                        </div>
                    </div>","0","main_causal_task","3","coin_causal","","","",""
"","","","","","html-keyboard-response","60","426835","0.0-60.0","D18E8083ADC74EF4A3A3C716416DF25D","019ce7dd-56a6-7a57-8748-04a673535734","019ce7a0-0965-7aa7-a556-174d32a8e773","","null","
                    <div class=""stimulus-container"">
                        <img src=""images/causal_sequence/coin_causal/coin_causal_4.png"" class=""exp-image"">
                        <div class=""question-area""></div> 
                    </div>","null","","","","","","",""
"","","","","","html-button-response","61","427767","0.0-61.0","D18E8083ADC74EF4A3A3C716416DF25D","019ce7dd-56a6-7a57-8748-04a673535734","019ce7a0-0965-7aa7-a556-174d32a8e773","","931","
                    <div class=""stimulus-container"">
                        <img src=""images/causal_sequence/coin_causal/coin_causal_4.png"" class=""exp-image"">
                        <div class=""question-area"">
                            <p style=""font-size: 20px; font-weight: bold; margin: 0;"">Is there a person in this image?</p>
                        </div>
                    </div>","0","main_causal_task","4","coin_causal","","","",""
"","","","","","html-keyboard-response","62","432768","0.0-62.0","D18E8083ADC74EF4A3A3C716416DF25D","019ce7dd-56a6-7a57-8748-04a673535734","019ce7a0-0965-7aa7-a556-174d32a8e773","","null","
                    <div class=""stimulus-container"">
                        <img src=""images/causal_sequence/coin_causal/coin_causal_5.png"" class=""exp-image"">
                        <div class=""question-area""></div> 
                    </div>","null","","","","","","",""
"","","","","","html-button-response","63","433587","0.0-63.0","D18E8083ADC74EF4A3A3C716416DF25D","019ce7dd-56a6-7a57-8748-04a673535734","019ce7a0-0965-7aa7-a556-174d32a8e773","","817","
                    <div class=""stimulus-container"">
                        <img src=""images/causal_sequence/coin_causal/coin_causal_5.png"" class=""exp-image"">
                        <div class=""question-area"">
                            <p style=""font-size: 20px; font-weight: bold; margin: 0;"">Is there a person in this image?</p>
                        </div>
                    </div>","0","main_causal_task","5","coin_causal","","","",""
"","","","","","html-keyboard-response","64","438595","0.0-64.0","D18E8083ADC74EF4A3A3C716416DF25D","019ce7dd-56a6-7a57-8748-04a673535734","019ce7a0-0965-7aa7-a556-174d32a8e773","","null","
                    <div class=""stimulus-container"">
                        <img src=""images/causal_sequence/coin_causal/coin_causal_6.png"" class=""exp-image"">
                        <div class=""question-area""></div> 
                    </div>","null","","","","","","",""
"","","","","","html-button-response","65","439238","0.0-65.0","D18E8083ADC74EF4A3A3C716416DF25D","019ce7dd-56a6-7a57-8748-04a673535734","019ce7a0-0965-7aa7-a556-174d32a8e773","","641","
                    <div class=""stimulus-container"">
                        <img src=""images/causal_sequence/coin_causal/coin_causal_6.png"" class=""exp-image"">
                        <div class=""question-area"">
                            <p style=""font-size: 20px; font-weight: bold; margin: 0;"">Is there a person in this image?</p>
                        </div>
                    </div>","0","main_causal_task","6","coin_causal","","","",""
"","","","","","html-keyboard-response","66","444241","0.0-66.0","D18E8083ADC74EF4A3A3C716416DF25D","019ce7dd-56a6-7a57-8748-04a673535734","019ce7a0-0965-7aa7-a556-174d32a8e773","","null","
                    <div class=""stimulus-container"">
                        <img src=""images/causal_sequence/coin_causal/coin_causal_7.png"" class=""exp-image"">
                        <div class=""question-area""></div> 
                    </div>","null","","","","","","",""
"","","","","","html-button-response","67","445922","0.0-67.0","D18E8083ADC74EF4A3A3C716416DF25D","019ce7dd-56a6-7a57-8748-04a673535734","019ce7a0-0965-7aa7-a556-174d32a8e773","","1679","
                    <div class=""stimulus-container"">
                        <img src=""images/causal_sequence/coin_causal/coin_causal_7.png"" class=""exp-image"">
                        <div class=""question-area"">
                            <p style=""font-size: 20px; font-weight: bold; margin: 0;"">Is there a person in this image?</p>
                        </div>
                    </div>","1","main_causal_task","7","coin_causal","","","",""
"","","","","","html-keyboard-response","68","450936","0.0-68.0","D18E8083ADC74EF4A3A3C716416DF25D","019ce7dd-56a6-7a57-8748-04a673535734","019ce7a0-0965-7aa7-a556-174d32a8e773","","null","
                    <div class=""stimulus-container"">
                        <img src=""images/causal_sequence/coin_causal/coin_causal_8.png"" class=""exp-image"">
                        <div class=""question-area""></div> 
                    </div>","null","","","","","","",""
"","","","","","html-button-response","69","451636","0.0-69.0","D18E8083ADC74EF4A3A3C716416DF25D","019ce7dd-56a6-7a57-8748-04a673535734","019ce7a0-0965-7aa7-a556-174d32a8e773","","699","
                    <div class=""stimulus-container"">
                        <img src=""images/causal_sequence/coin_causal/coin_causal_8.png"" class=""exp-image"">
                        <div class=""question-area"">
                            <p style=""font-size: 20px; font-weight: bold; margin: 0;"">Is there a person in this image?</p>
                        </div>
                    </div>","0","main_causal_task","8","coin_causal","","","",""
"","","","","","html-keyboard-response","70","456649","0.0-70.0","D18E8083ADC74EF4A3A3C716416DF25D","019ce7dd-56a6-7a57-8748-04a673535734","019ce7a0-0965-7aa7-a556-174d32a8e773","","null","
                    <div class=""stimulus-container"">
                        <img src=""images/causal_sequence/coin_causal/coin_causal_9.png"" class=""exp-image"">
                        <div class=""question-area""></div> 
                    </div>","null","","","","","","",""
"","","","","","html-button-response","71","457478","0.0-71.0","D18E8083ADC74EF4A3A3C716416DF25D","019ce7dd-56a6-7a57-8748-04a673535734","019ce7a0-0965-7aa7-a556-174d32a8e773","","828","
                    <div class=""stimulus-container"">
                        <img src=""images/causal_sequence/coin_causal/coin_causal_9.png"" class=""exp-image"">
                        <div class=""question-area"">
                            <p style=""font-size: 20px; font-weight: bold; margin: 0;"">Is there a person in this image?</p>
                        </div>
                    </div>","0","main_causal_task","9","coin_causal","","","",""
"","","","","","html-keyboard-response","72","458484","0.0-72.0","D18E8083ADC74EF4A3A3C716416DF25D","019ce7dd-56a6-7a57-8748-04a673535734","019ce7a0-0965-7aa7-a556-174d32a8e773","","null","<div style=""background-color: gray; width: 100vw; height: 100vh;""></div>","null","","","","","","",""
"","","","","","html-keyboard-response","73","463488","0.0-73.0","D18E8083ADC74EF4A3A3C716416DF25D","019ce7dd-56a6-7a57-8748-04a673535734","019ce7a0-0965-7aa7-a556-174d32a8e773","","null","
                    <div class=""stimulus-container"">
                        <img src=""images/causal_sequence/dog_causal/dog_causal_1.png"" class=""exp-image"">
                        <div class=""question-area""></div> 
                    </div>","null","","","","","","",""
"","","","","","html-button-response","74","464457","0.0-74.0","D18E8083ADC74EF4A3A3C716416DF25D","019ce7dd-56a6-7a57-8748-04a673535734","019ce7a0-0965-7aa7-a556-174d32a8e773","","968","
                    <div class=""stimulus-container"">
                        <img src=""images/causal_sequence/dog_causal/dog_causal_1.png"" class=""exp-image"">
                        <div class=""question-area"">
                            <p style=""font-size: 20px; font-weight: bold; margin: 0;"">Is there a person in this image?</p>
                        </div>
                    </div>","0","main_causal_task","1","dog_causal","","","",""
"","","","","","html-keyboard-response","75","469459","0.0-75.0","D18E8083ADC74EF4A3A3C716416DF25D","019ce7dd-56a6-7a57-8748-04a673535734","019ce7a0-0965-7aa7-a556-174d32a8e773","","null","
                    <div class=""stimulus-container"">
                        <img src=""images/causal_sequence/dog_causal/dog_causal_2.png"" class=""exp-image"">
                        <div class=""question-area""></div> 
                    </div>","null","","","","","","",""
"","","","","","html-button-response","76","470071","0.0-76.0","D18E8083ADC74EF4A3A3C716416DF25D","019ce7dd-56a6-7a57-8748-04a673535734","019ce7a0-0965-7aa7-a556-174d32a8e773","","611","
                    <div class=""stimulus-container"">
                        <img src=""images/causal_sequence/dog_causal/dog_causal_2.png"" class=""exp-image"">
                        <div class=""question-area"">
                            <p style=""font-size: 20px; font-weight: bold; margin: 0;"">Is there a person in this image?</p>
                        </div>
                    </div>","0","main_causal_task","2","dog_causal","","","",""
"","","","","","html-keyboard-response","77","475087","0.0-77.0","D18E8083ADC74EF4A3A3C716416DF25D","019ce7dd-56a6-7a57-8748-04a673535734","019ce7a0-0965-7aa7-a556-174d32a8e773","","null","
                    <div class=""stimulus-container"">
                        <img src=""images/causal_sequence/dog_causal/dog_causal_3.png"" class=""exp-image"">
                        <div class=""question-area""></div> 
                    </div>","null","","","","","","",""
"","","","","","html-button-response","78","475675","0.0-78.0","D18E8083ADC74EF4A3A3C716416DF25D","019ce7dd-56a6-7a57-8748-04a673535734","019ce7a0-0965-7aa7-a556-174d32a8e773","","586","
                    <div class=""stimulus-container"">
                        <img src=""images/causal_sequence/dog_causal/dog_causal_3.png"" class=""exp-image"">
                        <div class=""question-area"">
                            <p style=""font-size: 20px; font-weight: bold; margin: 0;"">Is there a person in this image?</p>
                        </div>
                    </div>","0","main_causal_task","3","dog_causal","","","",""
"","","","","","html-keyboard-response","79","480684","0.0-79.0","D18E8083ADC74EF4A3A3C716416DF25D","019ce7dd-56a6-7a57-8748-04a673535734","019ce7a0-0965-7aa7-a556-174d32a8e773","","null","
                    <div class=""stimulus-container"">
                        <img src=""images/causal_sequence/dog_causal/dog_causal_4.png"" class=""exp-image"">
                        <div class=""question-area""></div> 
                    </div>","null","","","","","","",""
"","","","","","html-button-response","80","481740","0.0-80.0","D18E8083ADC74EF4A3A3C716416DF25D","019ce7dd-56a6-7a57-8748-04a673535734","019ce7a0-0965-7aa7-a556-174d32a8e773","","1054","
                    <div class=""stimulus-container"">
                        <img src=""images/causal_sequence/dog_causal/dog_causal_4.png"" class=""exp-image"">
                        <div class=""question-area"">
                            <p style=""font-size: 20px; font-weight: bold; margin: 0;"">Is there a person in this image?</p>
                        </div>
                    </div>","0","main_causal_task","4","dog_causal","","","",""
"","","","","","html-keyboard-response","81","486747","0.0-81.0","D18E8083ADC74EF4A3A3C716416DF25D","019ce7dd-56a6-7a57-8748-04a673535734","019ce7a0-0965-7aa7-a556-174d32a8e773","","null","
                    <div class=""stimulus-container"">
                        <img src=""images/causal_sequence/dog_causal/dog_causal_5.png"" class=""exp-image"">
                        <div class=""question-area""></div> 
                    </div>","null","","","","","","",""
"","","","","","html-button-response","82","487382","0.0-82.0","D18E8083ADC74EF4A3A3C716416DF25D","019ce7dd-56a6-7a57-8748-04a673535734","019ce7a0-0965-7aa7-a556-174d32a8e773","","634","
                    <div class=""stimulus-container"">
                        <img src=""images/causal_sequence/dog_causal/dog_causal_5.png"" class=""exp-image"">
                        <div class=""question-area"">
                            <p style=""font-size: 20px; font-weight: bold; margin: 0;"">Is there a person in this image?</p>
                        </div>
                    </div>","0","main_causal_task","5","dog_causal","","","",""
"","","","","","html-keyboard-response","83","492394","0.0-83.0","D18E8083ADC74EF4A3A3C716416DF25D","019ce7dd-56a6-7a57-8748-04a673535734","019ce7a0-0965-7aa7-a556-174d32a8e773","","null","
                    <div class=""stimulus-container"">
                        <img src=""images/causal_sequence/dog_causal/dog_causal_6.png"" class=""exp-image"">
                        <div class=""question-area""></div> 
                    </div>","null","","","","","","",""
"","","","","","html-button-response","84","493205","0.0-84.0","D18E8083ADC74EF4A3A3C716416DF25D","019ce7dd-56a6-7a57-8748-04a673535734","019ce7a0-0965-7aa7-a556-174d32a8e773","","810","
                    <div class=""stimulus-container"">
                        <img src=""images/causal_sequence/dog_causal/dog_causal_6.png"" class=""exp-image"">
                        <div class=""question-area"">
                            <p style=""font-size: 20px; font-weight: bold; margin: 0;"">Is there a person in this image?</p>
                        </div>
                    </div>","0","main_causal_task","6","dog_causal","","","",""
"","","","","","html-keyboard-response","85","498217","0.0-85.0","D18E8083ADC74EF4A3A3C716416DF25D","019ce7dd-56a6-7a57-8748-04a673535734","019ce7a0-0965-7aa7-a556-174d32a8e773","","null","
                    <div class=""stimulus-container"">
                        <img src=""images/causal_sequence/dog_causal/dog_causal_7.png"" class=""exp-image"">
                        <div class=""question-area""></div> 
                    </div>","null","","","","","","",""
"","","","","","html-button-response","86","498805","0.0-86.0","D18E8083ADC74EF4A3A3C716416DF25D","019ce7dd-56a6-7a57-8748-04a673535734","019ce7a0-0965-7aa7-a556-174d32a8e773","","586","
                    <div class=""stimulus-container"">
                        <img src=""images/causal_sequence/dog_causal/dog_causal_7.png"" class=""exp-image"">
                        <div class=""question-area"">
                            <p style=""font-size: 20px; font-weight: bold; margin: 0;"">Is there a person in this image?</p>
                        </div>
                    </div>","0","main_causal_task","7","dog_causal","","","",""
"","","","","","html-keyboard-response","87","503819","0.0-87.0","D18E8083ADC74EF4A3A3C716416DF25D","019ce7dd-56a6-7a57-8748-04a673535734","019ce7a0-0965-7aa7-a556-174d32a8e773","","null","
                    <div class=""stimulus-container"">
                        <img src=""images/causal_sequence/dog_causal/dog_causal_8.png"" class=""exp-image"">
                        <div class=""question-area""></div> 
                    </div>","null","","","","","","",""
"","","","","","html-button-response","88","504531","0.0-88.0","D18E8083ADC74EF4A3A3C716416DF25D","019ce7dd-56a6-7a57-8748-04a673535734","019ce7a0-0965-7aa7-a556-174d32a8e773","","711","
                    <div class=""stimulus-container"">
                        <img src=""images/causal_sequence/dog_causal/dog_causal_8.png"" class=""exp-image"">
                        <div class=""question-area"">
                            <p style=""font-size: 20px; font-weight: bold; margin: 0;"">Is there a person in this image?</p>
                        </div>
                    </div>","0","main_causal_task","8","dog_causal","","","",""
"","","","","","html-keyboard-response","89","509534","0.0-89.0","D18E8083ADC74EF4A3A3C716416DF25D","019ce7dd-56a6-7a57-8748-04a673535734","019ce7a0-0965-7aa7-a556-174d32a8e773","","null","
                    <div class=""stimulus-container"">
                        <img src=""images/causal_sequence/dog_causal/dog_causal_9.png"" class=""exp-image"">
                        <div class=""question-area""></div> 
                    </div>","null","","","","","","",""
"","","","","","html-button-response","90","510552","0.0-90.0","D18E8083ADC74EF4A3A3C716416DF25D","019ce7dd-56a6-7a57-8748-04a673535734","019ce7a0-0965-7aa7-a556-174d32a8e773","","1016","
                    <div class=""stimulus-container"">
                        <img src=""images/causal_sequence/dog_causal/dog_causal_9.png"" class=""exp-image"">
                        <div class=""question-area"">
                            <p style=""font-size: 20px; font-weight: bold; margin: 0;"">Is there a person in this image?</p>
                        </div>
                    </div>","0","main_causal_task","9","dog_causal","","","",""
"","","","","","html-keyboard-response","91","511556","0.0-91.0","D18E8083ADC74EF4A3A3C716416DF25D","019ce7dd-56a6-7a57-8748-04a673535734","019ce7a0-0965-7aa7-a556-174d32a8e773","","null","<div style=""background-color: gray; width: 100vw; height: 100vh;""></div>","null","","","","","","",""
"","","","","","html-keyboard-response","92","516557","0.0-92.0","D18E8083ADC74EF4A3A3C716416DF25D","019ce7dd-56a6-7a57-8748-04a673535734","019ce7a0-0965-7aa7-a556-174d32a8e773","","null","
                    <div class=""stimulus-container"">
                        <img src=""images/causal_sequence/package_causal/package_causal_1.png"" class=""exp-image"">
                        <div class=""question-area""></div> 
                    </div>","null","","","","","","",""
"","","","","","html-button-response","93","517682","0.0-93.0","D18E8083ADC74EF4A3A3C716416DF25D","019ce7dd-56a6-7a57-8748-04a673535734","019ce7a0-0965-7aa7-a556-174d32a8e773","","1123","
                    <div class=""stimulus-container"">
                        <img src=""images/causal_sequence/package_causal/package_causal_1.png"" class=""exp-image"">
                        <div class=""question-area"">
                            <p style=""font-size: 20px; font-weight: bold; margin: 0;"">Is there a person in this image?</p>
                        </div>
                    </div>","0","main_causal_task","1","package_causal","","","",""
"","","","","","html-keyboard-response","94","522690","0.0-94.0","D18E8083ADC74EF4A3A3C716416DF25D","019ce7dd-56a6-7a57-8748-04a673535734","019ce7a0-0965-7aa7-a556-174d32a8e773","","null","
                    <div class=""stimulus-container"">
                        <img src=""images/causal_sequence/package_causal/package_causal_2.png"" class=""exp-image"">
                        <div class=""question-area""></div> 
                    </div>","null","","","","","","",""
"","","","","","html-button-response","95","523393","0.0-95.0","D18E8083ADC74EF4A3A3C716416DF25D","019ce7dd-56a6-7a57-8748-04a673535734","019ce7a0-0965-7aa7-a556-174d32a8e773","","701","
                    <div class=""stimulus-container"">
                        <img src=""images/causal_sequence/package_causal/package_causal_2.png"" class=""exp-image"">
                        <div class=""question-area"">
                            <p style=""font-size: 20px; font-weight: bold; margin: 0;"">Is there a person in this image?</p>
                        </div>
                    </div>","0","main_causal_task","2","package_causal","","","",""
"","","","","","html-keyboard-response","96","528402","0.0-96.0","D18E8083ADC74EF4A3A3C716416DF25D","019ce7dd-56a6-7a57-8748-04a673535734","019ce7a0-0965-7aa7-a556-174d32a8e773","","null","
                    <div class=""stimulus-container"">
                        <img src=""images/causal_sequence/package_causal/package_causal_3.png"" class=""exp-image"">
                        <div class=""question-area""></div> 
                    </div>","null","","","","","","",""
"","","","","","html-button-response","97","529188","0.0-97.0","D18E8083ADC74EF4A3A3C716416DF25D","019ce7dd-56a6-7a57-8748-04a673535734","019ce7a0-0965-7aa7-a556-174d32a8e773","","784","
                    <div class=""stimulus-container"">
                        <img src=""images/causal_sequence/package_causal/package_causal_3.png"" class=""exp-image"">
                        <div class=""question-area"">
                            <p style=""font-size: 20px; font-weight: bold; margin: 0;"">Is there a person in this image?</p>
                        </div>
                    </div>","0","main_causal_task","3","package_causal","","","",""
"","","","","","html-keyboard-response","98","534198","0.0-98.0","D18E8083ADC74EF4A3A3C716416DF25D","019ce7dd-56a6-7a57-8748-04a673535734","019ce7a0-0965-7aa7-a556-174d32a8e773","","null","
                    <div class=""stimulus-container"">
                        <img src=""images/causal_sequence/package_causal/package_causal_4.png"" class=""exp-image"">
                        <div class=""question-area""></div> 
                    </div>","null","","","","","","",""
"","","","","","html-button-response","99","535284","0.0-99.0","D18E8083ADC74EF4A3A3C716416DF25D","019ce7dd-56a6-7a57-8748-04a673535734","019ce7a0-0965-7aa7-a556-174d32a8e773","","1085","
                    <div class=""stimulus-container"">
                        <img src=""images/causal_sequence/package_causal/package_causal_4.png"" class=""exp-image"">
                        <div class=""question-area"">
                            <p style=""font-size: 20px; font-weight: bold; margin: 0;"">Is there a person in this image?</p>
                        </div>
                    </div>","1","main_causal_task","4","package_causal","","","",""
"","","","","","html-keyboard-response","100","540290","0.0-100.0","D18E8083ADC74EF4A3A3C716416DF25D","019ce7dd-56a6-7a57-8748-04a673535734","019ce7a0-0965-7aa7-a556-174d32a8e773","","null","
                    <div class=""stimulus-container"">
                        <img src=""images/causal_sequence/package_causal/package_causal_5.png"" class=""exp-image"">
                        <div class=""question-area""></div> 
                    </div>","null","","","","","","",""
"","","","","","html-button-response","101","540941","0.0-101.0","D18E8083ADC74EF4A3A3C716416DF25D","019ce7dd-56a6-7a57-8748-04a673535734","019ce7a0-0965-7aa7-a556-174d32a8e773","","650","
                    <div class=""stimulus-container"">
                        <img src=""images/causal_sequence/package_causal/package_causal_5.png"" class=""exp-image"">
                        <div class=""question-area"">
                            <p style=""font-size: 20px; font-weight: bold; margin: 0;"">Is there a person in this image?</p>
                        </div>
                    </div>","0","main_causal_task","5","package_causal","","","",""
"","","","","","html-keyboard-response","102","545955","0.0-102.0","D18E8083ADC74EF4A3A3C716416DF25D","019ce7dd-56a6-7a57-8748-04a673535734","019ce7a0-0965-7aa7-a556-174d32a8e773","","null","
                    <div class=""stimulus-container"">
                        <img src=""images/causal_sequence/package_causal/package_causal_6.png"" class=""exp-image"">
                        <div class=""question-area""></div> 
                    </div>","null","","","","","","",""
"","","","","","html-button-response","103","546609","0.0-103.0","D18E8083ADC74EF4A3A3C716416DF25D","019ce7dd-56a6-7a57-8748-04a673535734","019ce7a0-0965-7aa7-a556-174d32a8e773","","652","
                    <div class=""stimulus-container"">
                        <img src=""images/causal_sequence/package_causal/package_causal_6.png"" class=""exp-image"">
                        <div class=""question-area"">
                            <p style=""font-size: 20px; font-weight: bold; margin: 0;"">Is there a person in this image?</p>
                        </div>
                    </div>","0","main_causal_task","6","package_causal","","","",""
"","","","","","html-keyboard-response","104","551622","0.0-104.0","D18E8083ADC74EF4A3A3C716416DF25D","019ce7dd-56a6-7a57-8748-04a673535734","019ce7a0-0965-7aa7-a556-174d32a8e773","","null","
                    <div class=""stimulus-container"">
                        <img src=""images/causal_sequence/package_causal/package_causal_7.png"" class=""exp-image"">
                        <div class=""question-area""></div> 
                    </div>","null","","","","","","",""
"","","","","","html-button-response","105","552293","0.0-105.0","D18E8083ADC74EF4A3A3C716416DF25D","019ce7dd-56a6-7a57-8748-04a673535734","019ce7a0-0965-7aa7-a556-174d32a8e773","","670","
                    <div class=""stimulus-container"">
                        <img src=""images/causal_sequence/package_causal/package_causal_7.png"" class=""exp-image"">
                        <div class=""question-area"">
                            <p style=""font-size: 20px; font-weight: bold; margin: 0;"">Is there a person in this image?</p>
                        </div>
                    </div>","0","main_causal_task","7","package_causal","","","",""
"","","","","","html-keyboard-response","106","557297","0.0-106.0","D18E8083ADC74EF4A3A3C716416DF25D","019ce7dd-56a6-7a57-8748-04a673535734","019ce7a0-0965-7aa7-a556-174d32a8e773","","null","
                    <div class=""stimulus-container"">
                        <img src=""images/causal_sequence/package_causal/package_causal_8.png"" class=""exp-image"">
                        <div class=""question-area""></div> 
                    </div>","null","","","","","","",""
"","","","","","html-button-response","107","557961","0.0-107.0","D18E8083ADC74EF4A3A3C716416DF25D","019ce7dd-56a6-7a57-8748-04a673535734","019ce7a0-0965-7aa7-a556-174d32a8e773","","663","
                    <div class=""stimulus-container"">
                        <img src=""images/causal_sequence/package_causal/package_causal_8.png"" class=""exp-image"">
                        <div class=""question-area"">
                            <p style=""font-size: 20px; font-weight: bold; margin: 0;"">Is there a person in this image?</p>
                        </div>
                    </div>","0","main_causal_task","8","package_causal","","","",""
"","","","","","html-keyboard-response","108","562972","0.0-108.0","D18E8083ADC74EF4A3A3C716416DF25D","019ce7dd-56a6-7a57-8748-04a673535734","019ce7a0-0965-7aa7-a556-174d32a8e773","","null","
                    <div class=""stimulus-container"">
                        <img src=""images/causal_sequence/package_causal/package_causal_9.png"" class=""exp-image"">
                        <div class=""question-area""></div> 
                    </div>","null","","","","","","",""
"","","","","","html-button-response","109","563628","0.0-109.0","D18E8083ADC74EF4A3A3C716416DF25D","019ce7dd-56a6-7a57-8748-04a673535734","019ce7a0-0965-7aa7-a556-174d32a8e773","","655","
                    <div class=""stimulus-container"">
                        <img src=""images/causal_sequence/package_causal/package_causal_9.png"" class=""exp-image"">
                        <div class=""question-area"">
                            <p style=""font-size: 20px; font-weight: bold; margin: 0;"">Is there a person in this image?</p>
                        </div>
                    </div>","0","main_causal_task","9","package_causal","","","",""
"","","","","","html-keyboard-response","110","564639","0.0-110.0","D18E8083ADC74EF4A3A3C716416DF25D","019ce7dd-56a6-7a57-8748-04a673535734","019ce7a0-0965-7aa7-a556-174d32a8e773","","null","<div style=""background-color: gray; width: 100vw; height: 100vh;""></div>","null","","","","","","",""
"","","","","","html-keyboard-response","111","569642","0.0-111.0","D18E8083ADC74EF4A3A3C716416DF25D","019ce7dd-56a6-7a57-8748-04a673535734","019ce7a0-0965-7aa7-a556-174d32a8e773","","null","
                    <div class=""stimulus-container"">
                        <img src=""images/causal_sequence/the_performance_causal/the_performance_causal_1.png"" class=""exp-image"">
                        <div class=""question-area""></div> 
                    </div>","null","","","","","","",""
"","","","","","html-button-response","112","570380","0.0-112.0","D18E8083ADC74EF4A3A3C716416DF25D","019ce7dd-56a6-7a57-8748-04a673535734","019ce7a0-0965-7aa7-a556-174d32a8e773","","736","
                    <div class=""stimulus-container"">
                        <img src=""images/causal_sequence/the_performance_causal/the_performance_causal_1.png"" class=""exp-image"">
                        <div class=""question-area"">
                            <p style=""font-size: 20px; font-weight: bold; margin: 0;"">Is there a person in this image?</p>
                        </div>
                    </div>","0","main_causal_task","1","the_performance_causal","","","",""
"","","","","","html-keyboard-response","113","575388","0.0-113.0","D18E8083ADC74EF4A3A3C716416DF25D","019ce7dd-56a6-7a57-8748-04a673535734","019ce7a0-0965-7aa7-a556-174d32a8e773","","null","
                    <div class=""stimulus-container"">
                        <img src=""images/causal_sequence/the_performance_causal/the_performance_causal_2.png"" class=""exp-image"">
                        <div class=""question-area""></div> 
                    </div>","null","","","","","","",""
"","","","","","html-button-response","114","576269","0.0-114.0","D18E8083ADC74EF4A3A3C716416DF25D","019ce7dd-56a6-7a57-8748-04a673535734","019ce7a0-0965-7aa7-a556-174d32a8e773","","879","
                    <div class=""stimulus-container"">
                        <img src=""images/causal_sequence/the_performance_causal/the_performance_causal_2.png"" class=""exp-image"">
                        <div class=""question-area"">
                            <p style=""font-size: 20px; font-weight: bold; margin: 0;"">Is there a person in this image?</p>
                        </div>
                    </div>","0","main_causal_task","2","the_performance_causal","","","",""
"","","","","","html-keyboard-response","115","581285","0.0-115.0","D18E8083ADC74EF4A3A3C716416DF25D","019ce7dd-56a6-7a57-8748-04a673535734","019ce7a0-0965-7aa7-a556-174d32a8e773","","null","
                    <div class=""stimulus-container"">
                        <img src=""images/causal_sequence/the_performance_causal/the_performance_causal_3.png"" class=""exp-image"">
                        <div class=""question-area""></div> 
                    </div>","null","","","","","","",""
"","","","","","html-button-response","116","582238","0.0-116.0","D18E8083ADC74EF4A3A3C716416DF25D","019ce7dd-56a6-7a57-8748-04a673535734","019ce7a0-0965-7aa7-a556-174d32a8e773","","952","
                    <div class=""stimulus-container"">
                        <img src=""images/causal_sequence/the_performance_causal/the_performance_causal_3.png"" class=""exp-image"">
                        <div class=""question-area"">
                            <p style=""font-size: 20px; font-weight: bold; margin: 0;"">Is there a person in this image?</p>
                        </div>
                    </div>","0","main_causal_task","3","the_performance_causal","","","",""
"","","","","","html-keyboard-response","117","587242","0.0-117.0","D18E8083ADC74EF4A3A3C716416DF25D","019ce7dd-56a6-7a57-8748-04a673535734","019ce7a0-0965-7aa7-a556-174d32a8e773","","null","
                    <div class=""stimulus-container"">
                        <img src=""images/causal_sequence/the_performance_causal/the_performance_causal_4.png"" class=""exp-image"">
                        <div class=""question-area""></div> 
                    </div>","null","","","","","","",""
"","","","","","html-button-response","118","588251","0.0-118.0","D18E8083ADC74EF4A3A3C716416DF25D","019ce7dd-56a6-7a57-8748-04a673535734","019ce7a0-0965-7aa7-a556-174d32a8e773","","1007","
                    <div class=""stimulus-container"">
                        <img src=""images/causal_sequence/the_performance_causal/the_performance_causal_4.png"" class=""exp-image"">
                        <div class=""question-area"">
                            <p style=""font-size: 20px; font-weight: bold; margin: 0;"">Is there a person in this image?</p>
                        </div>
                    </div>","0","main_causal_task","4","the_performance_causal","","","",""
"","","","","","html-keyboard-response","119","593260","0.0-119.0","D18E8083ADC74EF4A3A3C716416DF25D","019ce7dd-56a6-7a57-8748-04a673535734","019ce7a0-0965-7aa7-a556-174d32a8e773","","null","
                    <div class=""stimulus-container"">
                        <img src=""images/causal_sequence/the_performance_causal/the_performance_causal_5.png"" class=""exp-image"">
                        <div class=""question-area""></div> 
                    </div>","null","","","","","","",""
"","","","","","html-button-response","120","593997","0.0-120.0","D18E8083ADC74EF4A3A3C716416DF25D","019ce7dd-56a6-7a57-8748-04a673535734","019ce7a0-0965-7aa7-a556-174d32a8e773","","735","
                    <div class=""stimulus-container"">
                        <img src=""images/causal_sequence/the_performance_causal/the_performance_causal_5.png"" class=""exp-image"">
                        <div class=""question-area"">
                            <p style=""font-size: 20px; font-weight: bold; margin: 0;"">Is there a person in this image?</p>
                        </div>
                    </div>","0","main_causal_task","5","the_performance_causal","","","",""
"","","","","","html-keyboard-response","121","599006","0.0-121.0","D18E8083ADC74EF4A3A3C716416DF25D","019ce7dd-56a6-7a57-8748-04a673535734","019ce7a0-0965-7aa7-a556-174d32a8e773","","null","
                    <div class=""stimulus-container"">
                        <img src=""images/causal_sequence/the_performance_causal/the_performance_causal_6.png"" class=""exp-image"">
                        <div class=""question-area""></div> 
                    </div>","null","","","","","","",""
"","","","","","html-button-response","122","599770","0.0-122.0","D18E8083ADC74EF4A3A3C716416DF25D","019ce7dd-56a6-7a57-8748-04a673535734","019ce7a0-0965-7aa7-a556-174d32a8e773","","763","
                    <div class=""stimulus-container"">
                        <img src=""images/causal_sequence/the_performance_causal/the_performance_causal_6.png"" class=""exp-image"">
                        <div class=""question-area"">
                            <p style=""font-size: 20px; font-weight: bold; margin: 0;"">Is there a person in this image?</p>
                        </div>
                    </div>","0","main_causal_task","6","the_performance_causal","","","",""
"","","","","","html-keyboard-response","123","604786","0.0-123.0","D18E8083ADC74EF4A3A3C716416DF25D","019ce7dd-56a6-7a57-8748-04a673535734","019ce7a0-0965-7aa7-a556-174d32a8e773","","null","
                    <div class=""stimulus-container"">
                        <img src=""images/causal_sequence/the_performance_causal/the_performance_causal_7.png"" class=""exp-image"">
                        <div class=""question-area""></div> 
                    </div>","null","","","","","","",""
"","","","","","html-button-response","124","605537","0.0-124.0","D18E8083ADC74EF4A3A3C716416DF25D","019ce7dd-56a6-7a57-8748-04a673535734","019ce7a0-0965-7aa7-a556-174d32a8e773","","750","
                    <div class=""stimulus-container"">
                        <img src=""images/causal_sequence/the_performance_causal/the_performance_causal_7.png"" class=""exp-image"">
                        <div class=""question-area"">
                            <p style=""font-size: 20px; font-weight: bold; margin: 0;"">Is there a person in this image?</p>
                        </div>
                    </div>","0","main_causal_task","7","the_performance_causal","","","",""
"","","","","","html-keyboard-response","125","610546","0.0-125.0","D18E8083ADC74EF4A3A3C716416DF25D","019ce7dd-56a6-7a57-8748-04a673535734","019ce7a0-0965-7aa7-a556-174d32a8e773","","null","
                    <div class=""stimulus-container"">
                        <img src=""images/causal_sequence/the_performance_causal/the_performance_causal_8.png"" class=""exp-image"">
                        <div class=""question-area""></div> 
                    </div>","null","","","","","","",""
"","","","","","html-button-response","126","611309","0.0-126.0","D18E8083ADC74EF4A3A3C716416DF25D","019ce7dd-56a6-7a57-8748-04a673535734","019ce7a0-0965-7aa7-a556-174d32a8e773","","762","
                    <div class=""stimulus-container"">
                        <img src=""images/causal_sequence/the_performance_causal/the_performance_causal_8.png"" class=""exp-image"">
                        <div class=""question-area"">
                            <p style=""font-size: 20px; font-weight: bold; margin: 0;"">Is there a person in this image?</p>
                        </div>
                    </div>","0","main_causal_task","8","the_performance_causal","","","",""
"","","","","","html-keyboard-response","127","616310","0.0-127.0","D18E8083ADC74EF4A3A3C716416DF25D","019ce7dd-56a6-7a57-8748-04a673535734","019ce7a0-0965-7aa7-a556-174d32a8e773","","null","
                    <div class=""stimulus-container"">
                        <img src=""images/causal_sequence/the_performance_causal/the_performance_causal_9.png"" class=""exp-image"">
                        <div class=""question-area""></div> 
                    </div>","null","","","","","","",""
"","","","","","html-button-response","128","617148","0.0-128.0","D18E8083ADC74EF4A3A3C716416DF25D","019ce7dd-56a6-7a57-8748-04a673535734","019ce7a0-0965-7aa7-a556-174d32a8e773","","836","
                    <div class=""stimulus-container"">
                        <img src=""images/causal_sequence/the_performance_causal/the_performance_causal_9.png"" class=""exp-image"">
                        <div class=""question-area"">
                            <p style=""font-size: 20px; font-weight: bold; margin: 0;"">Is there a person in this image?</p>
                        </div>
                    </div>","0","main_causal_task","9","the_performance_causal","","","",""
"","","","","","instructions","129","623285","0.0-129.0","D18E8083ADC74EF4A3A3C716416DF25D","019ce7dd-56a6-7a57-8748-04a673535734","019ce7a0-0965-7aa7-a556-174d32a8e773","[{""page_index"":0,""viewing_time"":6135}]","6136","","","","","","","","",""
"","","","","","instructions","130","634670","0.0-130.0","D18E8083ADC74EF4A3A3C716416DF25D","019ce7dd-56a6-7a57-8748-04a673535734","019ce7a0-0965-7aa7-a556-174d32a8e773","[{""page_index"":0,""viewing_time"":11384}]","11385","","","","","","","","",""
"","","","","","html-keyboard-response","131","635673","0.0-131.0","D18E8083ADC74EF4A3A3C716416DF25D","019ce7dd-56a6-7a57-8748-04a673535734","019ce7a0-0965-7aa7-a556-174d32a8e773","","null","
        <div class=""stimulus-container"" style=""display: flex; align-items: center; justify-content: center; gap: 30px;"">
            <img src=""images/instructions/movie_1.png"" class=""exp-image"">
            <div style=""font-size: 40px; font-weight: bold; color: green; border: 5px solid green; padding: 25px; border-radius: 15px; background-color: #f0fff0;"">
                WORTH<br>$1
            </div>
        </div>
        <div class=""question-area""></div>","null","","","","","","",""
"","","","","","html-button-response","132","638676","0.0-132.0","D18E8083ADC74EF4A3A3C716416DF25D","019ce7dd-56a6-7a57-8748-04a673535734","019ce7a0-0965-7aa7-a556-174d32a8e773","","null","
        <div class=""stimulus-container"" style=""display: flex; align-items: center; justify-content: center; gap: 30px;"">
            <img src=""images/instructions/movie_1.png"" class=""exp-image"">
            <div style=""font-size: 40px; font-weight: bold; color: green; border: 5px solid green; padding: 25px; border-radius: 15px; background-color: #f0fff0;"">
                WORTH<br>$1
            </div>
        </div>
        <div class=""question-area"">
            <p style=""font-size: 20px; font-weight: bold; margin: 0;"">Was there a person in this image?</p>
        </div>","null","","","","","","",""
"","","","","","instructions","133","643197","0.0-133.0","D18E8083ADC74EF4A3A3C716416DF25D","019ce7dd-56a6-7a57-8748-04a673535734","019ce7a0-0965-7aa7-a556-174d32a8e773","[{""page_index"":0,""viewing_time"":4520}]","4520","","","","","","","","",""
"","","","","","html-keyboard-response","134","653204","0.0-134.0","D18E8083ADC74EF4A3A3C716416DF25D","019ce7dd-56a6-7a57-8748-04a673535734","019ce7a0-0965-7aa7-a556-174d32a8e773","","null","
            <div class=""stimulus-container"" style=""display: flex; align-items: center; justify-content: center; gap: 30px;"">
                <img src=""images/causal_sequence/dog_causal/dog_causal_6.png"" class=""exp-image"">
                <div style=""font-size: 40px; font-weight: bold; color: green; border: 5px solid green; padding: 25px; border-radius: 15px; background-color: #f0fff0;"">
                    WORTH<br>$1
                </div>
            </div>
            <div class=""question-area""></div>","null","","","","","","",""
"","","","","","html-button-response","135","654821","0.0-135.0","D18E8083ADC74EF4A3A3C716416DF25D","019ce7dd-56a6-7a57-8748-04a673535734","019ce7a0-0965-7aa7-a556-174d32a8e773","","1615","
            <div class=""stimulus-container"" style=""display: flex; align-items: center; justify-content: center; gap: 30px;"">
                <img src=""images/causal_sequence/dog_causal/dog_causal_6.png"" class=""exp-image"">
                <div style=""font-size: 40px; font-weight: bold; color: green; border: 5px solid green; padding: 25px; border-radius: 15px; background-color: #f0fff0;"">
                    WORTH<br>$1
                </div>
            </div>
            <div class=""question-area"">
                <p style=""font-size: 20px; font-weight: bold; margin: 0;"">Was there a person in this image?</p>
            </div>","0","part2_value_learning","","dog_causal","6","","",""
"","","","","","html-keyboard-response","136","664827","0.0-136.0","D18E8083ADC74EF4A3A3C716416DF25D","019ce7dd-56a6-7a57-8748-04a673535734","019ce7a0-0965-7aa7-a556-174d32a8e773","","null","
            <div class=""stimulus-container"" style=""display: flex; align-items: center; justify-content: center; gap: 30px;"">
                <img src=""images/causal_sequence/the_performance_causal/the_performance_causal_4.png"" class=""exp-image"">
                <div style=""font-size: 40px; font-weight: bold; color: green; border: 5px solid green; padding: 25px; border-radius: 15px; background-color: #f0fff0;"">
                    WORTH<br>$1
                </div>
            </div>
            <div class=""question-area""></div>","null","","","","","","",""
"","","","","","html-button-response","137","665832","0.0-137.0","D18E8083ADC74EF4A3A3C716416DF25D","019ce7dd-56a6-7a57-8748-04a673535734","019ce7a0-0965-7aa7-a556-174d32a8e773","","1003","
            <div class=""stimulus-container"" style=""display: flex; align-items: center; justify-content: center; gap: 30px;"">
                <img src=""images/causal_sequence/the_performance_causal/the_performance_causal_4.png"" class=""exp-image"">
                <div style=""font-size: 40px; font-weight: bold; color: green; border: 5px solid green; padding: 25px; border-radius: 15px; background-color: #f0fff0;"">
                    WORTH<br>$1
                </div>
            </div>
            <div class=""question-area"">
                <p style=""font-size: 20px; font-weight: bold; margin: 0;"">Was there a person in this image?</p>
            </div>","0","part2_value_learning","","the_performance_causal","4","","",""
"","","","","","html-keyboard-response","138","675838","0.0-138.0","D18E8083ADC74EF4A3A3C716416DF25D","019ce7dd-56a6-7a57-8748-04a673535734","019ce7a0-0965-7aa7-a556-174d32a8e773","","null","
            <div class=""stimulus-container"" style=""display: flex; align-items: center; justify-content: center; gap: 30px;"">
                <img src=""images/causal_sequence/saving_a_cat_causal/saving_a_cat_causal_4.png"" class=""exp-image"">
                <div style=""font-size: 40px; font-weight: bold; color: green; border: 5px solid green; padding: 25px; border-radius: 15px; background-color: #f0fff0;"">
                    WORTH<br>$1
                </div>
            </div>
            <div class=""question-area""></div>","null","","","","","","",""
"","","","","","html-button-response","139","676993","0.0-139.0","D18E8083ADC74EF4A3A3C716416DF25D","019ce7dd-56a6-7a57-8748-04a673535734","019ce7a0-0965-7aa7-a556-174d32a8e773","","1153","
            <div class=""stimulus-container"" style=""display: flex; align-items: center; justify-content: center; gap: 30px;"">
                <img src=""images/causal_sequence/saving_a_cat_causal/saving_a_cat_causal_4.png"" class=""exp-image"">
                <div style=""font-size: 40px; font-weight: bold; color: green; border: 5px solid green; padding: 25px; border-radius: 15px; background-color: #f0fff0;"">
                    WORTH<br>$1
                </div>
            </div>
            <div class=""question-area"">
                <p style=""font-size: 20px; font-weight: bold; margin: 0;"">Was there a person in this image?</p>
            </div>","0","part2_value_learning","","saving_a_cat_causal","4","","",""
"","","","","","html-keyboard-response","140","687009","0.0-140.0","D18E8083ADC74EF4A3A3C716416DF25D","019ce7dd-56a6-7a57-8748-04a673535734","019ce7a0-0965-7aa7-a556-174d32a8e773","","null","
            <div class=""stimulus-container"" style=""display: flex; align-items: center; justify-content: center; gap: 30px;"">
                <img src=""images/causal_sequence/museum_causal/museum_causal_7.png"" class=""exp-image"">
                <div style=""font-size: 40px; font-weight: bold; color: green; border: 5px solid green; padding: 25px; border-radius: 15px; background-color: #f0fff0;"">
                    WORTH<br>$1
                </div>
            </div>
            <div class=""question-area""></div>","null","","","","","","",""
"","","","","","html-button-response","141","688319","0.0-141.0","D18E8083ADC74EF4A3A3C716416DF25D","019ce7dd-56a6-7a57-8748-04a673535734","019ce7a0-0965-7aa7-a556-174d32a8e773","","1308","
            <div class=""stimulus-container"" style=""display: flex; align-items: center; justify-content: center; gap: 30px;"">
                <img src=""images/causal_sequence/museum_causal/museum_causal_7.png"" class=""exp-image"">
                <div style=""font-size: 40px; font-weight: bold; color: green; border: 5px solid green; padding: 25px; border-radius: 15px; background-color: #f0fff0;"">
                    WORTH<br>$1
                </div>
            </div>
            <div class=""question-area"">
                <p style=""font-size: 20px; font-weight: bold; margin: 0;"">Was there a person in this image?</p>
            </div>","1","part2_value_learning","","museum_causal","7","","",""
"","","","","","html-keyboard-response","142","698332","0.0-142.0","D18E8083ADC74EF4A3A3C716416DF25D","019ce7dd-56a6-7a57-8748-04a673535734","019ce7a0-0965-7aa7-a556-174d32a8e773","","null","
            <div class=""stimulus-container"" style=""display: flex; align-items: center; justify-content: center; gap: 30px;"">
                <img src=""images/causal_sequence/package_causal/package_causal_5.png"" class=""exp-image"">
                <div style=""font-size: 40px; font-weight: bold; color: green; border: 5px solid green; padding: 25px; border-radius: 15px; background-color: #f0fff0;"">
                    WORTH<br>$1
                </div>
            </div>
            <div class=""question-area""></div>","null","","","","","","",""
"","","","","","html-button-response","143","699686","0.0-143.0","D18E8083ADC74EF4A3A3C716416DF25D","019ce7dd-56a6-7a57-8748-04a673535734","019ce7a0-0965-7aa7-a556-174d32a8e773","","1353","
            <div class=""stimulus-container"" style=""display: flex; align-items: center; justify-content: center; gap: 30px;"">
                <img src=""images/causal_sequence/package_causal/package_causal_5.png"" class=""exp-image"">
                <div style=""font-size: 40px; font-weight: bold; color: green; border: 5px solid green; padding: 25px; border-radius: 15px; background-color: #f0fff0;"">
                    WORTH<br>$1
                </div>
            </div>
            <div class=""question-area"">
                <p style=""font-size: 20px; font-weight: bold; margin: 0;"">Was there a person in this image?</p>
            </div>","0","part2_value_learning","","package_causal","5","","",""
"","","","","","html-keyboard-response","144","709692","0.0-144.0","D18E8083ADC74EF4A3A3C716416DF25D","019ce7dd-56a6-7a57-8748-04a673535734","019ce7a0-0965-7aa7-a556-174d32a8e773","","null","
            <div class=""stimulus-container"" style=""display: flex; align-items: center; justify-content: center; gap: 30px;"">
                <img src=""images/causal_sequence/coin_causal/coin_causal_5.png"" class=""exp-image"">
                <div style=""font-size: 40px; font-weight: bold; color: green; border: 5px solid green; padding: 25px; border-radius: 15px; background-color: #f0fff0;"">
                    WORTH<br>$1
                </div>
            </div>
            <div class=""question-area""></div>","null","","","","","","",""
"","","","","","html-button-response","145","710550","0.0-145.0","D18E8083ADC74EF4A3A3C716416DF25D","019ce7dd-56a6-7a57-8748-04a673535734","019ce7a0-0965-7aa7-a556-174d32a8e773","","856","
            <div class=""stimulus-container"" style=""display: flex; align-items: center; justify-content: center; gap: 30px;"">
                <img src=""images/causal_sequence/coin_causal/coin_causal_5.png"" class=""exp-image"">
                <div style=""font-size: 40px; font-weight: bold; color: green; border: 5px solid green; padding: 25px; border-radius: 15px; background-color: #f0fff0;"">
                    WORTH<br>$1
                </div>
            </div>
            <div class=""question-area"">
                <p style=""font-size: 20px; font-weight: bold; margin: 0;"">Was there a person in this image?</p>
            </div>","0","part2_value_learning","","coin_causal","5","","",""
"","","","","","instructions","146","713267","0.0-146.0","D18E8083ADC74EF4A3A3C716416DF25D","019ce7dd-56a6-7a57-8748-04a673535734","019ce7a0-0965-7aa7-a556-174d32a8e773","[{""page_index"":0,""viewing_time"":2715}]","2716","","","","","","","","",""
"","","","","","instructions","147","715348","0.0-147.0","D18E8083ADC74EF4A3A3C716416DF25D","019ce7dd-56a6-7a57-8748-04a673535734","019ce7a0-0965-7aa7-a556-174d32a8e773","[{""page_index"":0,""viewing_time"":2080}]","2081","","","","","","","","",""
"","","","","","html-keyboard-response","148","725361","0.0-148.0-0.0","D18E8083ADC74EF4A3A3C716416DF25D","019ce7dd-56a6-7a57-8748-04a673535734","019ce7a0-0965-7aa7-a556-174d32a8e773","","null","
                        <div style=""font-family: Arial; margin-bottom: 20px;""><h3>Which image is more valuable?</h3></div>
                        <div class=""stimulus-container"" style=""display: flex; width: 1100px; justify-content: center; gap: 50px;"">
                            <img src=""images/causal_sequence/museum_causal/museum_causal_9.png"" class=""exp-image"">
                            <img src=""images/causal_sequence/museum_causal/museum_causal_5.png"" class=""exp-image"">
                        </div>","null","","","","","","",""
"","","","","","html-button-response","149","728341","0.0-148.0-1.0","D18E8083ADC74EF4A3A3C716416DF25D","019ce7dd-56a6-7a57-8748-04a673535734","019ce7a0-0965-7aa7-a556-174d32a8e773","","2977","
                        <div style=""font-family: Arial; margin-bottom: 20px;""><h3>Which image is more valuable?</h3></div>
                        <div class=""stimulus-container"" style=""display: flex; width: 1100px; justify-content: center; gap: 50px;"">
                            <img src=""images/causal_sequence/museum_causal/museum_causal_9.png"" class=""exp-image"">
                            <img src=""images/causal_sequence/museum_causal/museum_causal_5.png"" class=""exp-image"">
                        </div>","0","part3_final_choice","","museum_causal","","7","9","2"
"","","","","","html-keyboard-response","150","738347","0.0-149.0-0.0","D18E8083ADC74EF4A3A3C716416DF25D","019ce7dd-56a6-7a57-8748-04a673535734","019ce7a0-0965-7aa7-a556-174d32a8e773","","null","
                        <div style=""font-family: Arial; margin-bottom: 20px;""><h3>Which image is more valuable?</h3></div>
                        <div class=""stimulus-container"" style=""display: flex; width: 1100px; justify-content: center; gap: 50px;"">
                            <img src=""images/causal_sequence/coin_causal/coin_causal_7.png"" class=""exp-image"">
                            <img src=""images/causal_sequence/coin_causal/coin_causal_3.png"" class=""exp-image"">
                        </div>","null","","","","","","",""
"","","","","","html-button-response","151","739766","0.0-149.0-1.0","D18E8083ADC74EF4A3A3C716416DF25D","019ce7dd-56a6-7a57-8748-04a673535734","019ce7a0-0965-7aa7-a556-174d32a8e773","","1417","
                        <div style=""font-family: Arial; margin-bottom: 20px;""><h3>Which image is more valuable?</h3></div>
                        <div class=""stimulus-container"" style=""display: flex; width: 1100px; justify-content: center; gap: 50px;"">
                            <img src=""images/causal_sequence/coin_causal/coin_causal_7.png"" class=""exp-image"">
                            <img src=""images/causal_sequence/coin_causal/coin_causal_3.png"" class=""exp-image"">
                        </div>","1","part3_final_choice","","coin_causal","","5","3","-2"
"","","","","","html-keyboard-response","152","749772","0.0-150.0-0.0","D18E8083ADC74EF4A3A3C716416DF25D","019ce7dd-56a6-7a57-8748-04a673535734","019ce7a0-0965-7aa7-a556-174d32a8e773","","null","
                        <div style=""font-family: Arial; margin-bottom: 20px;""><h3>Which image is more valuable?</h3></div>
                        <div class=""stimulus-container"" style=""display: flex; width: 1100px; justify-content: center; gap: 50px;"">
                            <img src=""images/causal_sequence/the_performance_causal/the_performance_causal_2.png"" class=""exp-image"">
                            <img src=""images/causal_sequence/the_performance_causal/the_performance_causal_6.png"" class=""exp-image"">
                        </div>","null","","","","","","",""
"","","","","","html-button-response","153","750643","0.0-150.0-1.0","D18E8083ADC74EF4A3A3C716416DF25D","019ce7dd-56a6-7a57-8748-04a673535734","019ce7a0-0965-7aa7-a556-174d32a8e773","","869","
                        <div style=""font-family: Arial; margin-bottom: 20px;""><h3>Which image is more valuable?</h3></div>
                        <div class=""stimulus-container"" style=""display: flex; width: 1100px; justify-content: center; gap: 50px;"">
                            <img src=""images/causal_sequence/the_performance_causal/the_performance_causal_2.png"" class=""exp-image"">
                            <img src=""images/causal_sequence/the_performance_causal/the_performance_causal_6.png"" class=""exp-image"">
                        </div>","1","part3_final_choice","","the_performance_causal","","4","6","2"
"","","","","","html-keyboard-response","154","760649","0.0-151.0-0.0","D18E8083ADC74EF4A3A3C716416DF25D","019ce7dd-56a6-7a57-8748-04a673535734","019ce7a0-0965-7aa7-a556-174d32a8e773","","null","
                        <div style=""font-family: Arial; margin-bottom: 20px;""><h3>Which image is more valuable?</h3></div>
                        <div class=""stimulus-container"" style=""display: flex; width: 1100px; justify-content: center; gap: 50px;"">
                            <img src=""images/causal_sequence/package_causal/package_causal_3.png"" class=""exp-image"">
                            <img src=""images/causal_sequence/package_causal/package_causal_7.png"" class=""exp-image"">
                        </div>","null","","","","","","",""
"","","","","","html-button-response","155","763135","0.0-151.0-1.0","D18E8083ADC74EF4A3A3C716416DF25D","019ce7dd-56a6-7a57-8748-04a673535734","019ce7a0-0965-7aa7-a556-174d32a8e773","","2483","
                        <div style=""font-family: Arial; margin-bottom: 20px;""><h3>Which image is more valuable?</h3></div>
                        <div class=""stimulus-container"" style=""display: flex; width: 1100px; justify-content: center; gap: 50px;"">
                            <img src=""images/causal_sequence/package_causal/package_causal_3.png"" class=""exp-image"">
                            <img src=""images/causal_sequence/package_causal/package_causal_7.png"" class=""exp-image"">
                        </div>","1","part3_final_choice","","package_causal","","5","7","2"
"","","","","","html-keyboard-response","156","773152","0.0-152.0-0.0","D18E8083ADC74EF4A3A3C716416DF25D","019ce7dd-56a6-7a57-8748-04a673535734","019ce7a0-0965-7aa7-a556-174d32a8e773","","null","
                        <div style=""font-family: Arial; margin-bottom: 20px;""><h3>Which image is more valuable?</h3></div>
                        <div class=""stimulus-container"" style=""display: flex; width: 1100px; justify-content: center; gap: 50px;"">
                            <img src=""images/causal_sequence/saving_a_cat_causal/saving_a_cat_causal_6.png"" class=""exp-image"">
                            <img src=""images/causal_sequence/saving_a_cat_causal/saving_a_cat_causal_2.png"" class=""exp-image"">
                        </div>","null","","","","","","",""
"","","","","","html-button-response","157","774753","0.0-152.0-1.0","D18E8083ADC74EF4A3A3C716416DF25D","019ce7dd-56a6-7a57-8748-04a673535734","019ce7a0-0965-7aa7-a556-174d32a8e773","","1600","
                        <div style=""font-family: Arial; margin-bottom: 20px;""><h3>Which image is more valuable?</h3></div>
                        <div class=""stimulus-container"" style=""display: flex; width: 1100px; justify-content: center; gap: 50px;"">
                            <img src=""images/causal_sequence/saving_a_cat_causal/saving_a_cat_causal_6.png"" class=""exp-image"">
                            <img src=""images/causal_sequence/saving_a_cat_causal/saving_a_cat_causal_2.png"" class=""exp-image"">
                        </div>","0","part3_final_choice","","saving_a_cat_causal","","4","6","2"
"","","","","","html-keyboard-response","158","784770","0.0-153.0-0.0","D18E8083ADC74EF4A3A3C716416DF25D","019ce7dd-56a6-7a57-8748-04a673535734","019ce7a0-0965-7aa7-a556-174d32a8e773","","null","
                        <div style=""font-family: Arial; margin-bottom: 20px;""><h3>Which image is more valuable?</h3></div>
                        <div class=""stimulus-container"" style=""display: flex; width: 1100px; justify-content: center; gap: 50px;"">
                            <img src=""images/causal_sequence/dog_causal/dog_causal_4.png"" class=""exp-image"">
                            <img src=""images/causal_sequence/dog_causal/dog_causal_8.png"" class=""exp-image"">
                        </div>","null","","","","","","",""
"","","","","","html-button-response","159","786135","0.0-153.0-1.0","D18E8083ADC74EF4A3A3C716416DF25D","019ce7dd-56a6-7a57-8748-04a673535734","019ce7a0-0965-7aa7-a556-174d32a8e773","","1363","
                        <div style=""font-family: Arial; margin-bottom: 20px;""><h3>Which image is more valuable?</h3></div>
                        <div class=""stimulus-container"" style=""display: flex; width: 1100px; justify-content: center; gap: 50px;"">
                            <img src=""images/causal_sequence/dog_causal/dog_causal_4.png"" class=""exp-image"">
                            <img src=""images/causal_sequence/dog_causal/dog_causal_8.png"" class=""exp-image"">
                        </div>","1","part3_final_choice","","dog_causal","","6","8","2"
"","","","","","survey-text","160","854662","0.0-154.0","D18E8083ADC74EF4A3A3C716416DF25D","019ce7dd-56a6-7a57-8748-04a673535734","019ce7a0-0965-7aa7-a556-174d32a8e773","","68508","","{""gender"":""Female"",""age"":""24"",""decision_strategy"":""By chosing"",""consistency_check"":""My reason changed because each image was different""}","demographics_and_strategy","","","","","",""
"","","","","","instructions","161","871453","0.0-155.0","D18E8083ADC74EF4A3A3C716416DF25D","019ce7dd-56a6-7a57-8748-04a673535734","019ce7a0-0965-7aa7-a556-174d32a8e773","[{""page_index"":0,""viewing_time"":16789}]","16789","","","","","","","","",""
