"success","timeout","failed_images","failed_audio","failed_video","trial_type","trial_index","time_elapsed","internal_node_id","view_history","rt","stimulus","response","task","folder","sequence_type","img_idx","comparison_type","img_index","block_story","block_info","left_img_path","right_img_path"
"true","false","[]","[]","[]","preload","0","3304","0.0-0.0","","","","","","","","","","","","","",""
"","","","","","instructions","1","27919","0.0-1.0","[{""page_index"":0,""viewing_time"":24614}]","24614","","","","","","","","","","","",""
"","","","","","instructions","2","31277","0.0-2.0","[{""page_index"":0,""viewing_time"":3357}]","3358","","","","","","","","","","","",""
"true","","","","","fullscreen","3","33932","0.0-3.0","","1650","","","","","","","","","","","",""
"","","","","","instructions","4","47294","0.0-4.0","[{""page_index"":0,""viewing_time"":13362}]","13362","","","","","","","","","","","",""
"","","","","","html-keyboard-response","5","49297","0.0-5.0","","null","<div class=""transition-square""></div>","null","","","","","","","","","",""
"","","","","","html-keyboard-response","6","54298","0.0-6.0","","null","<div class=""stimulus-container""><img src=""images_story_vs_info/info_4_1.png"" class=""exp-image""><div class=""question-area""></div></div>","null","","","","","","","","","",""
"","","","","","html-button-response","7","56867","0.0-7.0","","2567","<div class=""stimulus-container""><img src=""images_story_vs_info/info_4_1.png"" class=""exp-image""><div class=""question-area""><p style=""font-size: 20px; font-weight: bold; margin: 0;"">Is there a person in this image?</p></div></div>","1","observation","info_4","info","1","","","","","",""
"","","","","","html-keyboard-response","8","61869","0.0-8.0","","null","<div class=""stimulus-container""><img src=""images_story_vs_info/info_4_2.png"" class=""exp-image""><div class=""question-area""></div></div>","null","","","","","","","","","",""
"","","","","","html-button-response","9","63690","0.0-9.0","","1819","<div class=""stimulus-container""><img src=""images_story_vs_info/info_4_2.png"" class=""exp-image""><div class=""question-area""><p style=""font-size: 20px; font-weight: bold; margin: 0;"">Is there a person in this image?</p></div></div>","1","observation","info_4","info","2","","","","","",""
"","","","","","html-keyboard-response","10","68692","0.0-10.0","","null","<div class=""stimulus-container""><img src=""images_story_vs_info/info_4_3.png"" class=""exp-image""><div class=""question-area""></div></div>","null","","","","","","","","","",""
"","","","","","html-button-response","11","70031","0.0-11.0","","1337","<div class=""stimulus-container""><img src=""images_story_vs_info/info_4_3.png"" class=""exp-image""><div class=""question-area""><p style=""font-size: 20px; font-weight: bold; margin: 0;"">Is there a person in this image?</p></div></div>","1","observation","info_4","info","3","","","","","",""
"","","","","","html-keyboard-response","12","75033","0.0-12.0","","null","<div class=""stimulus-container""><img src=""images_story_vs_info/info_4_4.png"" class=""exp-image""><div class=""question-area""></div></div>","null","","","","","","","","","",""
"","","","","","html-button-response","13","75958","0.0-13.0","","924","<div class=""stimulus-container""><img src=""images_story_vs_info/info_4_4.png"" class=""exp-image""><div class=""question-area""><p style=""font-size: 20px; font-weight: bold; margin: 0;"">Is there a person in this image?</p></div></div>","1","observation","info_4","info","4","","","","","",""
"","","","","","html-keyboard-response","14","80960","0.0-14.0","","null","<div class=""stimulus-container""><img src=""images_story_vs_info/info_4_5.png"" class=""exp-image""><div class=""question-area""></div></div>","null","","","","","","","","","",""
"","","","","","html-button-response","15","82142","0.0-15.0","","1181","<div class=""stimulus-container""><img src=""images_story_vs_info/info_4_5.png"" class=""exp-image""><div class=""question-area""><p style=""font-size: 20px; font-weight: bold; margin: 0;"">Is there a person in this image?</p></div></div>","1","observation","info_4","info","5","","","","","",""
"","","","","","html-keyboard-response","16","87144","0.0-16.0","","null","<div class=""stimulus-container""><img src=""images_story_vs_info/info_4_6_a.png"" class=""exp-image""><div class=""question-area""></div></div>","null","","","","","","","","","",""
"","","","","","html-button-response","17","88189","0.0-17.0","","1044","<div class=""stimulus-container""><img src=""images_story_vs_info/info_4_6_a.png"" class=""exp-image""><div class=""question-area""><p style=""font-size: 20px; font-weight: bold; margin: 0;"">Is there a person in this image?</p></div></div>","0","observation","info_4","info","6","","","","","",""
"","","","","","html-keyboard-response","18","90191","0.0-18.0","","null","<div class=""transition-square""></div>","null","","","","","","","","","",""
"","","","","","html-keyboard-response","19","95192","0.0-19.0","","null","<div class=""stimulus-container""><img src=""images_story_vs_info/story_3_1.png"" class=""exp-image""><div class=""question-area""></div></div>","null","","","","","","","","","",""
"","","","","","html-button-response","20","98195","0.0-20.0","","null","<div class=""stimulus-container""><img src=""images_story_vs_info/story_3_1.png"" class=""exp-image""><div class=""question-area""><p style=""font-size: 20px; font-weight: bold; margin: 0;"">Is there a person in this image?</p></div></div>","null","observation","story_3","story","1","","","","","",""
"","","","","","html-keyboard-response","21","103196","0.0-21.0","","null","<div class=""stimulus-container""><img src=""images_story_vs_info/story_3_2.png"" class=""exp-image""><div class=""question-area""></div></div>","null","","","","","","","","","",""
"","","","","","html-button-response","22","104417","0.0-22.0","","1219","<div class=""stimulus-container""><img src=""images_story_vs_info/story_3_2.png"" class=""exp-image""><div class=""question-area""><p style=""font-size: 20px; font-weight: bold; margin: 0;"">Is there a person in this image?</p></div></div>","1","observation","story_3","story","2","","","","","",""
"","","","","","html-keyboard-response","23","109418","0.0-23.0","","null","<div class=""stimulus-container""><img src=""images_story_vs_info/story_3_3.png"" class=""exp-image""><div class=""question-area""></div></div>","null","","","","","","","","","",""
"","","","","","html-button-response","24","110213","0.0-24.0","","793","<div class=""stimulus-container""><img src=""images_story_vs_info/story_3_3.png"" class=""exp-image""><div class=""question-area""><p style=""font-size: 20px; font-weight: bold; margin: 0;"">Is there a person in this image?</p></div></div>","1","observation","story_3","story","3","","","","","",""
"","","","","","html-keyboard-response","25","115215","0.0-25.0","","null","<div class=""stimulus-container""><img src=""images_story_vs_info/story_3_4.png"" class=""exp-image""><div class=""question-area""></div></div>","null","","","","","","","","","",""
"","","","","","html-button-response","26","116010","0.0-26.0","","794","<div class=""stimulus-container""><img src=""images_story_vs_info/story_3_4.png"" class=""exp-image""><div class=""question-area""><p style=""font-size: 20px; font-weight: bold; margin: 0;"">Is there a person in this image?</p></div></div>","1","observation","story_3","story","4","","","","","",""
"","","","","","html-keyboard-response","27","121012","0.0-27.0","","null","<div class=""stimulus-container""><img src=""images_story_vs_info/story_3_5.png"" class=""exp-image""><div class=""question-area""></div></div>","null","","","","","","","","","",""
"","","","","","html-button-response","28","121948","0.0-28.0","","935","<div class=""stimulus-container""><img src=""images_story_vs_info/story_3_5.png"" class=""exp-image""><div class=""question-area""><p style=""font-size: 20px; font-weight: bold; margin: 0;"">Is there a person in this image?</p></div></div>","1","observation","story_3","story","5","","","","","",""
"","","","","","html-keyboard-response","29","126949","0.0-29.0","","null","<div class=""stimulus-container""><img src=""images_story_vs_info/story_3_6_a.png"" class=""exp-image""><div class=""question-area""></div></div>","null","","","","","","","","","",""
"","","","","","html-button-response","30","128176","0.0-30.0","","1225","<div class=""stimulus-container""><img src=""images_story_vs_info/story_3_6_a.png"" class=""exp-image""><div class=""question-area""><p style=""font-size: 20px; font-weight: bold; margin: 0;"">Is there a person in this image?</p></div></div>","0","observation","story_3","story","6","","","","","",""
"","","","","","html-keyboard-response","31","130179","0.0-31.0","","null","<div class=""transition-square""></div>","null","","","","","","","","","",""
"","","","","","html-keyboard-response","32","135181","0.0-32.0","","null","<div class=""stimulus-container""><img src=""images_story_vs_info/info_2_1.png"" class=""exp-image""><div class=""question-area""></div></div>","null","","","","","","","","","",""
"","","","","","html-button-response","33","136433","0.0-33.0","","1251","<div class=""stimulus-container""><img src=""images_story_vs_info/info_2_1.png"" class=""exp-image""><div class=""question-area""><p style=""font-size: 20px; font-weight: bold; margin: 0;"">Is there a person in this image?</p></div></div>","1","observation","info_2","info","1","","","","","",""
"","","","","","html-keyboard-response","34","141435","0.0-34.0","","null","<div class=""stimulus-container""><img src=""images_story_vs_info/info_2_2.png"" class=""exp-image""><div class=""question-area""></div></div>","null","","","","","","","","","",""
"","","","","","html-button-response","35","142572","0.0-35.0","","1136","<div class=""stimulus-container""><img src=""images_story_vs_info/info_2_2.png"" class=""exp-image""><div class=""question-area""><p style=""font-size: 20px; font-weight: bold; margin: 0;"">Is there a person in this image?</p></div></div>","1","observation","info_2","info","2","","","","","",""
"","","","","","html-keyboard-response","36","147574","0.0-36.0","","null","<div class=""stimulus-container""><img src=""images_story_vs_info/info_2_3.png"" class=""exp-image""><div class=""question-area""></div></div>","null","","","","","","","","","",""
"","","","","","html-button-response","37","148969","0.0-37.0","","1394","<div class=""stimulus-container""><img src=""images_story_vs_info/info_2_3.png"" class=""exp-image""><div class=""question-area""><p style=""font-size: 20px; font-weight: bold; margin: 0;"">Is there a person in this image?</p></div></div>","1","observation","info_2","info","3","","","","","",""
"","","","","","html-keyboard-response","38","153971","0.0-38.0","","null","<div class=""stimulus-container""><img src=""images_story_vs_info/info_2_4.png"" class=""exp-image""><div class=""question-area""></div></div>","null","","","","","","","","","",""
"","","","","","html-button-response","39","154952","0.0-39.0","","981","<div class=""stimulus-container""><img src=""images_story_vs_info/info_2_4.png"" class=""exp-image""><div class=""question-area""><p style=""font-size: 20px; font-weight: bold; margin: 0;"">Is there a person in this image?</p></div></div>","1","observation","info_2","info","4","","","","","",""
"","","","","","html-keyboard-response","40","159953","0.0-40.0","","null","<div class=""stimulus-container""><img src=""images_story_vs_info/info_2_5.png"" class=""exp-image""><div class=""question-area""></div></div>","null","","","","","","","","","",""
"","","","","","html-button-response","41","160580","0.0-41.0","","625","<div class=""stimulus-container""><img src=""images_story_vs_info/info_2_5.png"" class=""exp-image""><div class=""question-area""><p style=""font-size: 20px; font-weight: bold; margin: 0;"">Is there a person in this image?</p></div></div>","1","observation","info_2","info","5","","","","","",""
"","","","","","html-keyboard-response","42","165582","0.0-42.0","","null","<div class=""stimulus-container""><img src=""images_story_vs_info/info_2_6_b.png"" class=""exp-image""><div class=""question-area""></div></div>","null","","","","","","","","","",""
"","","","","","html-button-response","43","166662","0.0-43.0","","1079","<div class=""stimulus-container""><img src=""images_story_vs_info/info_2_6_b.png"" class=""exp-image""><div class=""question-area""><p style=""font-size: 20px; font-weight: bold; margin: 0;"">Is there a person in this image?</p></div></div>","1","observation","info_2","info","6","","","","","",""
"","","","","","html-keyboard-response","44","168663","0.0-44.0","","null","<div class=""transition-square""></div>","null","","","","","","","","","",""
"","","","","","html-keyboard-response","45","173664","0.0-45.0","","null","<div class=""stimulus-container""><img src=""images_story_vs_info/story_1_1.png"" class=""exp-image""><div class=""question-area""></div></div>","null","","","","","","","","","",""
"","","","","","html-button-response","46","174485","0.0-46.0","","819","<div class=""stimulus-container""><img src=""images_story_vs_info/story_1_1.png"" class=""exp-image""><div class=""question-area""><p style=""font-size: 20px; font-weight: bold; margin: 0;"">Is there a person in this image?</p></div></div>","1","observation","story_1","story","1","","","","","",""
"","","","","","html-keyboard-response","47","179487","0.0-47.0","","null","<div class=""stimulus-container""><img src=""images_story_vs_info/story_1_2.png"" class=""exp-image""><div class=""question-area""></div></div>","null","","","","","","","","","",""
"","","","","","html-button-response","48","180364","0.0-48.0","","876","<div class=""stimulus-container""><img src=""images_story_vs_info/story_1_2.png"" class=""exp-image""><div class=""question-area""><p style=""font-size: 20px; font-weight: bold; margin: 0;"">Is there a person in this image?</p></div></div>","1","observation","story_1","story","2","","","","","",""
"","","","","","html-keyboard-response","49","185367","0.0-49.0","","null","<div class=""stimulus-container""><img src=""images_story_vs_info/story_1_3.png"" class=""exp-image""><div class=""question-area""></div></div>","null","","","","","","","","","",""
"","","","","","html-button-response","50","187832","0.0-50.0","","2463","<div class=""stimulus-container""><img src=""images_story_vs_info/story_1_3.png"" class=""exp-image""><div class=""question-area""><p style=""font-size: 20px; font-weight: bold; margin: 0;"">Is there a person in this image?</p></div></div>","1","observation","story_1","story","3","","","","","",""
"","","","","","html-keyboard-response","51","192833","0.0-51.0","","null","<div class=""stimulus-container""><img src=""images_story_vs_info/story_1_4.png"" class=""exp-image""><div class=""question-area""></div></div>","null","","","","","","","","","",""
"","","","","","html-button-response","52","193744","0.0-52.0","","910","<div class=""stimulus-container""><img src=""images_story_vs_info/story_1_4.png"" class=""exp-image""><div class=""question-area""><p style=""font-size: 20px; font-weight: bold; margin: 0;"">Is there a person in this image?</p></div></div>","1","observation","story_1","story","4","","","","","",""
"","","","","","html-keyboard-response","53","198746","0.0-53.0","","null","<div class=""stimulus-container""><img src=""images_story_vs_info/story_1_5.png"" class=""exp-image""><div class=""question-area""></div></div>","null","","","","","","","","","",""
"","","","","","html-button-response","54","199369","0.0-54.0","","622","<div class=""stimulus-container""><img src=""images_story_vs_info/story_1_5.png"" class=""exp-image""><div class=""question-area""><p style=""font-size: 20px; font-weight: bold; margin: 0;"">Is there a person in this image?</p></div></div>","1","observation","story_1","story","5","","","","","",""
"","","","","","html-keyboard-response","55","204371","0.0-55.0","","null","<div class=""stimulus-container""><img src=""images_story_vs_info/story_1_6_b.png"" class=""exp-image""><div class=""question-area""></div></div>","null","","","","","","","","","",""
"","","","","","html-button-response","56","205162","0.0-56.0","","789","<div class=""stimulus-container""><img src=""images_story_vs_info/story_1_6_b.png"" class=""exp-image""><div class=""question-area""><p style=""font-size: 20px; font-weight: bold; margin: 0;"">Is there a person in this image?</p></div></div>","1","observation","story_1","story","6","","","","","",""
"","","","","","instructions","57","216354","0.0-57.0","[{""page_index"":0,""viewing_time"":11192}]","11192","","","","","","","","","","","",""
"","","","","","html-button-response","58","226245","0.0-58.0","","9888","
                <div style=""font-family: Arial; margin-bottom: 20px;""><h3>Which image is worth <b>more money</b>?</h3></div>
                <div class=""stimulus-container"" style=""display: flex; flex-direction: row; width: 800px; justify-content: center; gap: 30px;"">
                    <img src=""images_story_vs_info/info_4_5.png"" class=""small-image"">
                    <img src=""images_story_vs_info/story_3_5.png"" class=""small-image"">
                </div>","1","choice_comparison","","","","Valuable_Story_vs_Info","5","story_3","info_4","images_story_vs_info/info_4_5.png","images_story_vs_info/story_3_5.png"
"","","","","","html-button-response","59","232357","0.0-59.0","","6110","
                <div style=""font-family: Arial; margin-bottom: 20px;""><h3>Which image is worth <b>more money</b>?</h3></div>
                <div class=""stimulus-container"" style=""display: flex; flex-direction: row; width: 800px; justify-content: center; gap: 30px;"">
                    <img src=""images_story_vs_info/story_1_6_b.png"" class=""small-image"">
                    <img src=""images_story_vs_info/info_2_6_b.png"" class=""small-image"">
                </div>","0","choice_comparison","","","","Neutral_Story_vs_Info","6","story_1","info_2","images_story_vs_info/story_1_6_b.png","images_story_vs_info/info_2_6_b.png"
"","","","","","html-button-response","60","239599","0.0-60.0","","7240","
                <div style=""font-family: Arial; margin-bottom: 20px;""><h3>Which image is worth <b>more money</b>?</h3></div>
                <div class=""stimulus-container"" style=""display: flex; flex-direction: row; width: 800px; justify-content: center; gap: 30px;"">
                    <img src=""images_story_vs_info/info_4_1.png"" class=""small-image"">
                    <img src=""images_story_vs_info/story_3_1.png"" class=""small-image"">
                </div>","0","choice_comparison","","","","Valuable_Story_vs_Info","1","story_3","info_4","images_story_vs_info/info_4_1.png","images_story_vs_info/story_3_1.png"
"","","","","","html-button-response","61","245987","0.0-61.0","","6388","
                <div style=""font-family: Arial; margin-bottom: 20px;""><h3>Which image is worth <b>more money</b>?</h3></div>
                <div class=""stimulus-container"" style=""display: flex; flex-direction: row; width: 800px; justify-content: center; gap: 30px;"">
                    <img src=""images_story_vs_info/story_3_2.png"" class=""small-image"">
                    <img src=""images_story_vs_info/info_4_2.png"" class=""small-image"">
                </div>","0","choice_comparison","","","","Valuable_Story_vs_Info","2","story_3","info_4","images_story_vs_info/story_3_2.png","images_story_vs_info/info_4_2.png"
"","","","","","html-button-response","62","261961","0.0-62.0","","15969","
                <div style=""font-family: Arial; margin-bottom: 20px;""><h3>Which image is worth <b>more money</b>?</h3></div>
                <div class=""stimulus-container"" style=""display: flex; flex-direction: row; width: 800px; justify-content: center; gap: 30px;"">
                    <img src=""images_story_vs_info/story_3_6_a.png"" class=""small-image"">
                    <img src=""images_story_vs_info/info_4_6_a.png"" class=""small-image"">
                </div>","0","choice_comparison","","","","Valuable_Story_vs_Info","6","story_3","info_4","images_story_vs_info/story_3_6_a.png","images_story_vs_info/info_4_6_a.png"
"","","","","","html-button-response","63","269160","0.0-63.0","","7194","
                <div style=""font-family: Arial; margin-bottom: 20px;""><h3>Which image is worth <b>more money</b>?</h3></div>
                <div class=""stimulus-container"" style=""display: flex; flex-direction: row; width: 800px; justify-content: center; gap: 30px;"">
                    <img src=""images_story_vs_info/info_4_4.png"" class=""small-image"">
                    <img src=""images_story_vs_info/story_3_4.png"" class=""small-image"">
                </div>","0","choice_comparison","","","","Valuable_Story_vs_Info","4","story_3","info_4","images_story_vs_info/info_4_4.png","images_story_vs_info/story_3_4.png"
"","","","","","html-button-response","64","272178","0.0-64.0","","3016","
                <div style=""font-family: Arial; margin-bottom: 20px;""><h3>Which image is worth <b>more money</b>?</h3></div>
                <div class=""stimulus-container"" style=""display: flex; flex-direction: row; width: 800px; justify-content: center; gap: 30px;"">
                    <img src=""images_story_vs_info/story_1_5.png"" class=""small-image"">
                    <img src=""images_story_vs_info/info_2_5.png"" class=""small-image"">
                </div>","0","choice_comparison","","","","Neutral_Story_vs_Info","5","story_1","info_2","images_story_vs_info/story_1_5.png","images_story_vs_info/info_2_5.png"
"","","","","","html-button-response","65","277904","0.0-65.0","","5723","
                <div style=""font-family: Arial; margin-bottom: 20px;""><h3>Which image is worth <b>more money</b>?</h3></div>
                <div class=""stimulus-container"" style=""display: flex; flex-direction: row; width: 800px; justify-content: center; gap: 30px;"">
                    <img src=""images_story_vs_info/story_3_3.png"" class=""small-image"">
                    <img src=""images_story_vs_info/info_4_3.png"" class=""small-image"">
                </div>","0","choice_comparison","","","","Valuable_Story_vs_Info","3","story_3","info_4","images_story_vs_info/story_3_3.png","images_story_vs_info/info_4_3.png"
"","","","","","html-button-response","66","280747","0.0-66.0","","2841","
                <div style=""font-family: Arial; margin-bottom: 20px;""><h3>Which image is worth <b>more money</b>?</h3></div>
                <div class=""stimulus-container"" style=""display: flex; flex-direction: row; width: 800px; justify-content: center; gap: 30px;"">
                    <img src=""images_story_vs_info/story_1_4.png"" class=""small-image"">
                    <img src=""images_story_vs_info/info_2_4.png"" class=""small-image"">
                </div>","0","choice_comparison","","","","Neutral_Story_vs_Info","4","story_1","info_2","images_story_vs_info/story_1_4.png","images_story_vs_info/info_2_4.png"
"","","","","","html-button-response","67","286979","0.0-67.0","","6230","
                <div style=""font-family: Arial; margin-bottom: 20px;""><h3>Which image is worth <b>more money</b>?</h3></div>
                <div class=""stimulus-container"" style=""display: flex; flex-direction: row; width: 800px; justify-content: center; gap: 30px;"">
                    <img src=""images_story_vs_info/story_1_1.png"" class=""small-image"">
                    <img src=""images_story_vs_info/info_2_1.png"" class=""small-image"">
                </div>","0","choice_comparison","","","","Neutral_Story_vs_Info","1","story_1","info_2","images_story_vs_info/story_1_1.png","images_story_vs_info/info_2_1.png"
"","","","","","html-button-response","68","291228","0.0-68.0","","4248","
                <div style=""font-family: Arial; margin-bottom: 20px;""><h3>Which image is worth <b>more money</b>?</h3></div>
                <div class=""stimulus-container"" style=""display: flex; flex-direction: row; width: 800px; justify-content: center; gap: 30px;"">
                    <img src=""images_story_vs_info/info_2_3.png"" class=""small-image"">
                    <img src=""images_story_vs_info/story_1_3.png"" class=""small-image"">
                </div>","1","choice_comparison","","","","Neutral_Story_vs_Info","3","story_1","info_2","images_story_vs_info/info_2_3.png","images_story_vs_info/story_1_3.png"
"","","","","","html-button-response","69","295026","0.0-69.0","","3796","
                <div style=""font-family: Arial; margin-bottom: 20px;""><h3>Which image is worth <b>more money</b>?</h3></div>
                <div class=""stimulus-container"" style=""display: flex; flex-direction: row; width: 800px; justify-content: center; gap: 30px;"">
                    <img src=""images_story_vs_info/info_2_2.png"" class=""small-image"">
                    <img src=""images_story_vs_info/story_1_2.png"" class=""small-image"">
                </div>","1","choice_comparison","","","","Neutral_Story_vs_Info","2","story_1","info_2","images_story_vs_info/info_2_2.png","images_story_vs_info/story_1_2.png"
"","","","","","survey-text","70","354783","0.0-70.0","","59748","","{""choice_strategy"":""I did either what I thought the object was worth more money or whether it led to something being worth more money. "",""gender"":""Male"",""age"":""22""}","","","","","","","","","",""
"","","","","","instructions","71","358230","0.0-71.0","[{""page_index"":0,""viewing_time"":3446}]","3446","","","","","","","","","","","",""
