"success","timeout","failed_images","failed_audio","failed_video","trial_type","trial_index","time_elapsed","internal_node_id","subject_id","study_id","session_id","view_history","rt","stimulus","response","task","image_index","folder","sequence_type","presentation_order","valuable_image_index","reward_type","chosen_image_index","target_X","correct_choice"
"true","false","[]","[]","[]","preload","0","6500","0.0-0.0","CA8C5FE2128547EB9FEDD9E18EE6A8DE","019cf9bd-a61b-7c13-9ce6-3b6bd34c5562","019cf99d-e445-78ae-88d0-91fe39b758eb","","","","","","","","","","","","","",""
"","","","","","instructions","1","8948","0.0-1.0","CA8C5FE2128547EB9FEDD9E18EE6A8DE","019cf9bd-a61b-7c13-9ce6-3b6bd34c5562","019cf99d-e445-78ae-88d0-91fe39b758eb","[{""page_index"":0,""viewing_time"":2447}]","2448","","","","","","","","","","","",""
"","","","","","instructions","2","17606","0.0-2.0","CA8C5FE2128547EB9FEDD9E18EE6A8DE","019cf9bd-a61b-7c13-9ce6-3b6bd34c5562","019cf99d-e445-78ae-88d0-91fe39b758eb","[{""page_index"":0,""viewing_time"":8657}]","8658","","","","","","","","","","","",""
"true","","","","","fullscreen","3","21209","0.0-3.0","CA8C5FE2128547EB9FEDD9E18EE6A8DE","019cf9bd-a61b-7c13-9ce6-3b6bd34c5562","019cf99d-e445-78ae-88d0-91fe39b758eb","","2590","","","","","","","","","","","",""
"","","","","","instructions","4","559070","0.0-4.0","CA8C5FE2128547EB9FEDD9E18EE6A8DE","019cf9bd-a61b-7c13-9ce6-3b6bd34c5562","019cf99d-e445-78ae-88d0-91fe39b758eb","[{""page_index"":0,""viewing_time"":537861}]","537861","","","","","","","","","","","",""
"","","","","","instructions","5","568564","0.0-5.0","CA8C5FE2128547EB9FEDD9E18EE6A8DE","019cf9bd-a61b-7c13-9ce6-3b6bd34c5562","019cf99d-e445-78ae-88d0-91fe39b758eb","[{""page_index"":0,""viewing_time"":9494}]","9494","","","","","","","","","","","",""
"","","","","","html-keyboard-response","6","572575","0.0-6.0","CA8C5FE2128547EB9FEDD9E18EE6A8DE","019cf9bd-a61b-7c13-9ce6-3b6bd34c5562","019cf99d-e445-78ae-88d0-91fe39b758eb","","null","
                <div class=""stimulus-container"">
                    <img src=""images/instructions/movie_1.png"" class=""exp-image"">
                    <div class=""question-area""></div> 
                </div>","null","","","","","","","","","",""
"","","","","","html-button-response","7","573498","0.0-7.0","CA8C5FE2128547EB9FEDD9E18EE6A8DE","019cf9bd-a61b-7c13-9ce6-3b6bd34c5562","019cf99d-e445-78ae-88d0-91fe39b758eb","","922","
                <div class=""stimulus-container"">
                    <img src=""images/instructions/movie_1.png"" class=""exp-image"">
                    <div class=""question-area"">
                        <p style=""font-size: 20px; font-weight: bold; margin: 0;"">Was there a person in this image?</p>
                    </div>
                </div>","0","example_question","1","","","","","","","",""
"","","","","","html-keyboard-response","8","577510","0.0-8.0","CA8C5FE2128547EB9FEDD9E18EE6A8DE","019cf9bd-a61b-7c13-9ce6-3b6bd34c5562","019cf99d-e445-78ae-88d0-91fe39b758eb","","null","
                <div class=""stimulus-container"">
                    <img src=""images/instructions/movie_2.png"" class=""exp-image"">
                    <div class=""question-area""></div> 
                </div>","null","","","","","","","","","",""
"","","","","","html-button-response","9","578956","0.0-9.0","CA8C5FE2128547EB9FEDD9E18EE6A8DE","019cf9bd-a61b-7c13-9ce6-3b6bd34c5562","019cf99d-e445-78ae-88d0-91fe39b758eb","","1446","
                <div class=""stimulus-container"">
                    <img src=""images/instructions/movie_2.png"" class=""exp-image"">
                    <div class=""question-area"">
                        <p style=""font-size: 20px; font-weight: bold; margin: 0;"">Was there a person in this image?</p>
                    </div>
                </div>","0","example_question","2","","","","","","","",""
"","","","","","html-keyboard-response","10","582962","0.0-10.0","CA8C5FE2128547EB9FEDD9E18EE6A8DE","019cf9bd-a61b-7c13-9ce6-3b6bd34c5562","019cf99d-e445-78ae-88d0-91fe39b758eb","","null","
                <div class=""stimulus-container"">
                    <img src=""images/instructions/movie_3.png"" class=""exp-image"">
                    <div class=""question-area""></div> 
                </div>","null","","","","","","","","","",""
"","","","","","html-button-response","11","583831","0.0-11.0","CA8C5FE2128547EB9FEDD9E18EE6A8DE","019cf9bd-a61b-7c13-9ce6-3b6bd34c5562","019cf99d-e445-78ae-88d0-91fe39b758eb","","868","
                <div class=""stimulus-container"">
                    <img src=""images/instructions/movie_3.png"" class=""exp-image"">
                    <div class=""question-area"">
                        <p style=""font-size: 20px; font-weight: bold; margin: 0;"">Was there a person in this image?</p>
                    </div>
                </div>","0","example_question","3","","","","","","","",""
"","","","","","html-keyboard-response","12","587835","0.0-12.0","CA8C5FE2128547EB9FEDD9E18EE6A8DE","019cf9bd-a61b-7c13-9ce6-3b6bd34c5562","019cf99d-e445-78ae-88d0-91fe39b758eb","","null","
                <div class=""stimulus-container"">
                    <img src=""images/instructions/movie_4.png"" class=""exp-image"">
                    <div class=""question-area""></div> 
                </div>","null","","","","","","","","","",""
"","","","","","html-button-response","13","588461","0.0-13.0","CA8C5FE2128547EB9FEDD9E18EE6A8DE","019cf9bd-a61b-7c13-9ce6-3b6bd34c5562","019cf99d-e445-78ae-88d0-91fe39b758eb","","626","
                <div class=""stimulus-container"">
                    <img src=""images/instructions/movie_4.png"" class=""exp-image"">
                    <div class=""question-area"">
                        <p style=""font-size: 20px; font-weight: bold; margin: 0;"">Was there a person in this image?</p>
                    </div>
                </div>","0","example_question","4","","","","","","","",""
"","","","","","instructions","14","589876","0.0-14.0","CA8C5FE2128547EB9FEDD9E18EE6A8DE","019cf9bd-a61b-7c13-9ce6-3b6bd34c5562","019cf99d-e445-78ae-88d0-91fe39b758eb","[{""page_index"":0,""viewing_time"":1414}]","1414","","","","","","","","","","","",""
"","","","","","instructions","15","596281","0.0-15.0","CA8C5FE2128547EB9FEDD9E18EE6A8DE","019cf9bd-a61b-7c13-9ce6-3b6bd34c5562","019cf99d-e445-78ae-88d0-91fe39b758eb","[{""page_index"":0,""viewing_time"":6405}]","6405","","","","","","","","","","","",""
"","","","","","html-keyboard-response","16","601291","0.0-16.0","CA8C5FE2128547EB9FEDD9E18EE6A8DE","019cf9bd-a61b-7c13-9ce6-3b6bd34c5562","019cf99d-e445-78ae-88d0-91fe39b758eb","","null","<div style=""background-color: white; width: 100vw; height: 100vh;""></div>","null","","","","","","","","","",""
"","","","","","html-keyboard-response","17","602294","0.0-17.0","CA8C5FE2128547EB9FEDD9E18EE6A8DE","019cf9bd-a61b-7c13-9ce6-3b6bd34c5562","019cf99d-e445-78ae-88d0-91fe39b758eb","","null","
                <div class=""stimulus-container"">
                    <img src=""images/semantic_sequence/physical_activity_semantic/physical_activity_semantic_3.png"" class=""exp-image"">
                    <div class=""question-area""></div> 
                </div>","null","","","","","","","","","",""
"","","","","","html-button-response","18","603740","0.0-18.0","CA8C5FE2128547EB9FEDD9E18EE6A8DE","019cf9bd-a61b-7c13-9ce6-3b6bd34c5562","019cf99d-e445-78ae-88d0-91fe39b758eb","","1445","
                <div class=""stimulus-container"">
                    <img src=""images/semantic_sequence/physical_activity_semantic/physical_activity_semantic_3.png"" class=""exp-image"">
                    <div class=""question-area"">
                        <p style=""font-size: 20px; font-weight: bold; margin: 0;"">Is there a person in this image?</p>
                    </div>
                </div>","0","main_experiment_trial","3","physical_activity_semantic","semantic_sequence","randomized","","","","",""
"","","","","","html-keyboard-response","19","604740","0.0-19.0","CA8C5FE2128547EB9FEDD9E18EE6A8DE","019cf9bd-a61b-7c13-9ce6-3b6bd34c5562","019cf99d-e445-78ae-88d0-91fe39b758eb","","null","
                <div class=""stimulus-container"">
                    <img src=""images/semantic_sequence/physical_activity_semantic/physical_activity_semantic_8.png"" class=""exp-image"">
                    <div class=""question-area""></div> 
                </div>","null","","","","","","","","","",""
"","","","","","html-button-response","20","605771","0.0-20.0","CA8C5FE2128547EB9FEDD9E18EE6A8DE","019cf9bd-a61b-7c13-9ce6-3b6bd34c5562","019cf99d-e445-78ae-88d0-91fe39b758eb","","1030","
                <div class=""stimulus-container"">
                    <img src=""images/semantic_sequence/physical_activity_semantic/physical_activity_semantic_8.png"" class=""exp-image"">
                    <div class=""question-area"">
                        <p style=""font-size: 20px; font-weight: bold; margin: 0;"">Is there a person in this image?</p>
                    </div>
                </div>","0","main_experiment_trial","8","physical_activity_semantic","semantic_sequence","randomized","","","","",""
"","","","","","html-keyboard-response","21","606774","0.0-21.0","CA8C5FE2128547EB9FEDD9E18EE6A8DE","019cf9bd-a61b-7c13-9ce6-3b6bd34c5562","019cf99d-e445-78ae-88d0-91fe39b758eb","","null","
                <div class=""stimulus-container"">
                    <img src=""images/semantic_sequence/physical_activity_semantic/physical_activity_semantic_7.png"" class=""exp-image"">
                    <div class=""question-area""></div> 
                </div>","null","","","","","","","","","",""
"","","","","","html-button-response","22","607446","0.0-22.0","CA8C5FE2128547EB9FEDD9E18EE6A8DE","019cf9bd-a61b-7c13-9ce6-3b6bd34c5562","019cf99d-e445-78ae-88d0-91fe39b758eb","","672","
                <div class=""stimulus-container"">
                    <img src=""images/semantic_sequence/physical_activity_semantic/physical_activity_semantic_7.png"" class=""exp-image"">
                    <div class=""question-area"">
                        <p style=""font-size: 20px; font-weight: bold; margin: 0;"">Is there a person in this image?</p>
                    </div>
                </div>","0","main_experiment_trial","7","physical_activity_semantic","semantic_sequence","randomized","","","","",""
"","","","","","html-keyboard-response","23","608448","0.0-23.0","CA8C5FE2128547EB9FEDD9E18EE6A8DE","019cf9bd-a61b-7c13-9ce6-3b6bd34c5562","019cf99d-e445-78ae-88d0-91fe39b758eb","","null","
                <div class=""stimulus-container"">
                    <img src=""images/semantic_sequence/physical_activity_semantic/physical_activity_semantic_5.png"" class=""exp-image"">
                    <div class=""question-area""></div> 
                </div>","null","","","","","","","","","",""
"","","","","","html-button-response","24","610389","0.0-24.0","CA8C5FE2128547EB9FEDD9E18EE6A8DE","019cf9bd-a61b-7c13-9ce6-3b6bd34c5562","019cf99d-e445-78ae-88d0-91fe39b758eb","","1941","
                <div class=""stimulus-container"">
                    <img src=""images/semantic_sequence/physical_activity_semantic/physical_activity_semantic_5.png"" class=""exp-image"">
                    <div class=""question-area"">
                        <p style=""font-size: 20px; font-weight: bold; margin: 0;"">Is there a person in this image?</p>
                    </div>
                </div>","0","main_experiment_trial","5","physical_activity_semantic","semantic_sequence","randomized","","","","",""
"","","","","","html-keyboard-response","25","611395","0.0-25.0","CA8C5FE2128547EB9FEDD9E18EE6A8DE","019cf9bd-a61b-7c13-9ce6-3b6bd34c5562","019cf99d-e445-78ae-88d0-91fe39b758eb","","null","
                <div class=""stimulus-container"">
                    <img src=""images/semantic_sequence/physical_activity_semantic/physical_activity_semantic_1.png"" class=""exp-image"">
                    <div class=""question-area""></div> 
                </div>","null","","","","","","","","","",""
"","","","","","html-button-response","26","612199","0.0-26.0","CA8C5FE2128547EB9FEDD9E18EE6A8DE","019cf9bd-a61b-7c13-9ce6-3b6bd34c5562","019cf99d-e445-78ae-88d0-91fe39b758eb","","803","
                <div class=""stimulus-container"">
                    <img src=""images/semantic_sequence/physical_activity_semantic/physical_activity_semantic_1.png"" class=""exp-image"">
                    <div class=""question-area"">
                        <p style=""font-size: 20px; font-weight: bold; margin: 0;"">Is there a person in this image?</p>
                    </div>
                </div>","0","main_experiment_trial","1","physical_activity_semantic","semantic_sequence","randomized","","","","",""
"","","","","","html-keyboard-response","27","613215","0.0-27.0","CA8C5FE2128547EB9FEDD9E18EE6A8DE","019cf9bd-a61b-7c13-9ce6-3b6bd34c5562","019cf99d-e445-78ae-88d0-91fe39b758eb","","null","
                <div class=""stimulus-container"">
                    <img src=""images/semantic_sequence/physical_activity_semantic/physical_activity_semantic_9.png"" class=""exp-image"">
                    <div class=""question-area""></div> 
                </div>","null","","","","","","","","","",""
"","","","","","html-button-response","28","613806","0.0-28.0","CA8C5FE2128547EB9FEDD9E18EE6A8DE","019cf9bd-a61b-7c13-9ce6-3b6bd34c5562","019cf99d-e445-78ae-88d0-91fe39b758eb","","591","
                <div class=""stimulus-container"">
                    <img src=""images/semantic_sequence/physical_activity_semantic/physical_activity_semantic_9.png"" class=""exp-image"">
                    <div class=""question-area"">
                        <p style=""font-size: 20px; font-weight: bold; margin: 0;"">Is there a person in this image?</p>
                    </div>
                </div>","0","main_experiment_trial","9","physical_activity_semantic","semantic_sequence","randomized","","","","",""
"","","","","","html-keyboard-response","29","614822","0.0-29.0","CA8C5FE2128547EB9FEDD9E18EE6A8DE","019cf9bd-a61b-7c13-9ce6-3b6bd34c5562","019cf99d-e445-78ae-88d0-91fe39b758eb","","null","
                <div class=""stimulus-container"">
                    <img src=""images/semantic_sequence/physical_activity_semantic/physical_activity_semantic_ten.png"" class=""exp-image"">
                    <div class=""question-area""></div> 
                </div>","null","","","","","","","","","",""
"","","","","","html-button-response","30","615191","0.0-30.0","CA8C5FE2128547EB9FEDD9E18EE6A8DE","019cf9bd-a61b-7c13-9ce6-3b6bd34c5562","019cf99d-e445-78ae-88d0-91fe39b758eb","","369","
                <div class=""stimulus-container"">
                    <img src=""images/semantic_sequence/physical_activity_semantic/physical_activity_semantic_ten.png"" class=""exp-image"">
                    <div class=""question-area"">
                        <p style=""font-size: 20px; font-weight: bold; margin: 0;"">Is there a person in this image?</p>
                    </div>
                </div>","0","main_experiment_trial","ten","physical_activity_semantic","semantic_sequence","randomized","","","","",""
"","","","","","html-keyboard-response","31","616195","0.0-31.0","CA8C5FE2128547EB9FEDD9E18EE6A8DE","019cf9bd-a61b-7c13-9ce6-3b6bd34c5562","019cf99d-e445-78ae-88d0-91fe39b758eb","","null","
                <div class=""stimulus-container"">
                    <img src=""images/semantic_sequence/physical_activity_semantic/physical_activity_semantic_4.png"" class=""exp-image"">
                    <div class=""question-area""></div> 
                </div>","null","","","","","","","","","",""
"","","","","","html-button-response","32","616507","0.0-32.0","CA8C5FE2128547EB9FEDD9E18EE6A8DE","019cf9bd-a61b-7c13-9ce6-3b6bd34c5562","019cf99d-e445-78ae-88d0-91fe39b758eb","","311","
                <div class=""stimulus-container"">
                    <img src=""images/semantic_sequence/physical_activity_semantic/physical_activity_semantic_4.png"" class=""exp-image"">
                    <div class=""question-area"">
                        <p style=""font-size: 20px; font-weight: bold; margin: 0;"">Is there a person in this image?</p>
                    </div>
                </div>","0","main_experiment_trial","4","physical_activity_semantic","semantic_sequence","randomized","","","","",""
"","","","","","html-keyboard-response","33","617516","0.0-33.0","CA8C5FE2128547EB9FEDD9E18EE6A8DE","019cf9bd-a61b-7c13-9ce6-3b6bd34c5562","019cf99d-e445-78ae-88d0-91fe39b758eb","","null","
                <div class=""stimulus-container"">
                    <img src=""images/semantic_sequence/physical_activity_semantic/physical_activity_semantic_6.png"" class=""exp-image"">
                    <div class=""question-area""></div> 
                </div>","null","","","","","","","","","",""
"","","","","","html-button-response","34","617825","0.0-34.0","CA8C5FE2128547EB9FEDD9E18EE6A8DE","019cf9bd-a61b-7c13-9ce6-3b6bd34c5562","019cf99d-e445-78ae-88d0-91fe39b758eb","","308","
                <div class=""stimulus-container"">
                    <img src=""images/semantic_sequence/physical_activity_semantic/physical_activity_semantic_6.png"" class=""exp-image"">
                    <div class=""question-area"">
                        <p style=""font-size: 20px; font-weight: bold; margin: 0;"">Is there a person in this image?</p>
                    </div>
                </div>","0","main_experiment_trial","6","physical_activity_semantic","semantic_sequence","randomized","","","","",""
"","","","","","html-keyboard-response","35","618837","0.0-35.0","CA8C5FE2128547EB9FEDD9E18EE6A8DE","019cf9bd-a61b-7c13-9ce6-3b6bd34c5562","019cf99d-e445-78ae-88d0-91fe39b758eb","","null","
                <div class=""stimulus-container"">
                    <img src=""images/semantic_sequence/physical_activity_semantic/physical_activity_semantic_2.png"" class=""exp-image"">
                    <div class=""question-area""></div> 
                </div>","null","","","","","","","","","",""
"","","","","","html-button-response","36","619074","0.0-36.0","CA8C5FE2128547EB9FEDD9E18EE6A8DE","019cf9bd-a61b-7c13-9ce6-3b6bd34c5562","019cf99d-e445-78ae-88d0-91fe39b758eb","","237","
                <div class=""stimulus-container"">
                    <img src=""images/semantic_sequence/physical_activity_semantic/physical_activity_semantic_2.png"" class=""exp-image"">
                    <div class=""question-area"">
                        <p style=""font-size: 20px; font-weight: bold; margin: 0;"">Is there a person in this image?</p>
                    </div>
                </div>","0","main_experiment_trial","2","physical_activity_semantic","semantic_sequence","randomized","","","","",""
"","","","","","html-keyboard-response","37","624077","0.0-37.0","CA8C5FE2128547EB9FEDD9E18EE6A8DE","019cf9bd-a61b-7c13-9ce6-3b6bd34c5562","019cf99d-e445-78ae-88d0-91fe39b758eb","","null","<div style=""background-color: white; width: 100vw; height: 100vh;""></div>","null","","","","","","","","","",""
"","","","","","html-keyboard-response","38","625079","0.0-38.0","CA8C5FE2128547EB9FEDD9E18EE6A8DE","019cf9bd-a61b-7c13-9ce6-3b6bd34c5562","019cf99d-e445-78ae-88d0-91fe39b758eb","","null","
                <div class=""stimulus-container"">
                    <img src=""images/causal_sequence/the_performance_causal/the_performance_causal_1.png"" class=""exp-image"">
                    <div class=""question-area""></div> 
                </div>","null","","","","","","","","","",""
"","","","","","html-button-response","39","626187","0.0-39.0","CA8C5FE2128547EB9FEDD9E18EE6A8DE","019cf9bd-a61b-7c13-9ce6-3b6bd34c5562","019cf99d-e445-78ae-88d0-91fe39b758eb","","1107","
                <div class=""stimulus-container"">
                    <img src=""images/causal_sequence/the_performance_causal/the_performance_causal_1.png"" class=""exp-image"">
                    <div class=""question-area"">
                        <p style=""font-size: 20px; font-weight: bold; margin: 0;"">Is there a person in this image?</p>
                    </div>
                </div>","0","main_experiment_trial","1","the_performance_causal","causal_sequence","randomized","","","","",""
"","","","","","html-keyboard-response","40","627188","0.0-40.0","CA8C5FE2128547EB9FEDD9E18EE6A8DE","019cf9bd-a61b-7c13-9ce6-3b6bd34c5562","019cf99d-e445-78ae-88d0-91fe39b758eb","","null","
                <div class=""stimulus-container"">
                    <img src=""images/causal_sequence/the_performance_causal/the_performance_causal_8.png"" class=""exp-image"">
                    <div class=""question-area""></div> 
                </div>","null","","","","","","","","","",""
"","","","","","html-button-response","41","627641","0.0-41.0","CA8C5FE2128547EB9FEDD9E18EE6A8DE","019cf9bd-a61b-7c13-9ce6-3b6bd34c5562","019cf99d-e445-78ae-88d0-91fe39b758eb","","452","
                <div class=""stimulus-container"">
                    <img src=""images/causal_sequence/the_performance_causal/the_performance_causal_8.png"" class=""exp-image"">
                    <div class=""question-area"">
                        <p style=""font-size: 20px; font-weight: bold; margin: 0;"">Is there a person in this image?</p>
                    </div>
                </div>","0","main_experiment_trial","8","the_performance_causal","causal_sequence","randomized","","","","",""
"","","","","","html-keyboard-response","42","628653","0.0-42.0","CA8C5FE2128547EB9FEDD9E18EE6A8DE","019cf9bd-a61b-7c13-9ce6-3b6bd34c5562","019cf99d-e445-78ae-88d0-91fe39b758eb","","null","
                <div class=""stimulus-container"">
                    <img src=""images/causal_sequence/the_performance_causal/the_performance_causal_6.png"" class=""exp-image"">
                    <div class=""question-area""></div> 
                </div>","null","","","","","","","","","",""
"","","","","","html-button-response","43","629099","0.0-43.0","CA8C5FE2128547EB9FEDD9E18EE6A8DE","019cf9bd-a61b-7c13-9ce6-3b6bd34c5562","019cf99d-e445-78ae-88d0-91fe39b758eb","","446","
                <div class=""stimulus-container"">
                    <img src=""images/causal_sequence/the_performance_causal/the_performance_causal_6.png"" class=""exp-image"">
                    <div class=""question-area"">
                        <p style=""font-size: 20px; font-weight: bold; margin: 0;"">Is there a person in this image?</p>
                    </div>
                </div>","0","main_experiment_trial","6","the_performance_causal","causal_sequence","randomized","","","","",""
"","","","","","html-keyboard-response","44","630114","0.0-44.0","CA8C5FE2128547EB9FEDD9E18EE6A8DE","019cf9bd-a61b-7c13-9ce6-3b6bd34c5562","019cf99d-e445-78ae-88d0-91fe39b758eb","","null","
                <div class=""stimulus-container"">
                    <img src=""images/causal_sequence/the_performance_causal/the_performance_causal_2.png"" class=""exp-image"">
                    <div class=""question-area""></div> 
                </div>","null","","","","","","","","","",""
"","","","","","html-button-response","45","630462","0.0-45.0","CA8C5FE2128547EB9FEDD9E18EE6A8DE","019cf9bd-a61b-7c13-9ce6-3b6bd34c5562","019cf99d-e445-78ae-88d0-91fe39b758eb","","347","
                <div class=""stimulus-container"">
                    <img src=""images/causal_sequence/the_performance_causal/the_performance_causal_2.png"" class=""exp-image"">
                    <div class=""question-area"">
                        <p style=""font-size: 20px; font-weight: bold; margin: 0;"">Is there a person in this image?</p>
                    </div>
                </div>","0","main_experiment_trial","2","the_performance_causal","causal_sequence","randomized","","","","",""
"","","","","","html-keyboard-response","46","631470","0.0-46.0","CA8C5FE2128547EB9FEDD9E18EE6A8DE","019cf9bd-a61b-7c13-9ce6-3b6bd34c5562","019cf99d-e445-78ae-88d0-91fe39b758eb","","null","
                <div class=""stimulus-container"">
                    <img src=""images/causal_sequence/the_performance_causal/the_performance_causal_ten.png"" class=""exp-image"">
                    <div class=""question-area""></div> 
                </div>","null","","","","","","","","","",""
"","","","","","html-button-response","47","631897","0.0-47.0","CA8C5FE2128547EB9FEDD9E18EE6A8DE","019cf9bd-a61b-7c13-9ce6-3b6bd34c5562","019cf99d-e445-78ae-88d0-91fe39b758eb","","426","
                <div class=""stimulus-container"">
                    <img src=""images/causal_sequence/the_performance_causal/the_performance_causal_ten.png"" class=""exp-image"">
                    <div class=""question-area"">
                        <p style=""font-size: 20px; font-weight: bold; margin: 0;"">Is there a person in this image?</p>
                    </div>
                </div>","0","main_experiment_trial","ten","the_performance_causal","causal_sequence","randomized","","","","",""
"","","","","","html-keyboard-response","48","632904","0.0-48.0","CA8C5FE2128547EB9FEDD9E18EE6A8DE","019cf9bd-a61b-7c13-9ce6-3b6bd34c5562","019cf99d-e445-78ae-88d0-91fe39b758eb","","null","
                <div class=""stimulus-container"">
                    <img src=""images/causal_sequence/the_performance_causal/the_performance_causal_9.png"" class=""exp-image"">
                    <div class=""question-area""></div> 
                </div>","null","","","","","","","","","",""
"","","","","","html-button-response","49","633317","0.0-49.0","CA8C5FE2128547EB9FEDD9E18EE6A8DE","019cf9bd-a61b-7c13-9ce6-3b6bd34c5562","019cf99d-e445-78ae-88d0-91fe39b758eb","","412","
                <div class=""stimulus-container"">
                    <img src=""images/causal_sequence/the_performance_causal/the_performance_causal_9.png"" class=""exp-image"">
                    <div class=""question-area"">
                        <p style=""font-size: 20px; font-weight: bold; margin: 0;"">Is there a person in this image?</p>
                    </div>
                </div>","0","main_experiment_trial","9","the_performance_causal","causal_sequence","randomized","","","","",""
"","","","","","html-keyboard-response","50","634324","0.0-50.0","CA8C5FE2128547EB9FEDD9E18EE6A8DE","019cf9bd-a61b-7c13-9ce6-3b6bd34c5562","019cf99d-e445-78ae-88d0-91fe39b758eb","","null","
                <div class=""stimulus-container"">
                    <img src=""images/causal_sequence/the_performance_causal/the_performance_causal_7.png"" class=""exp-image"">
                    <div class=""question-area""></div> 
                </div>","null","","","","","","","","","",""
"","","","","","html-button-response","51","635772","0.0-51.0","CA8C5FE2128547EB9FEDD9E18EE6A8DE","019cf9bd-a61b-7c13-9ce6-3b6bd34c5562","019cf99d-e445-78ae-88d0-91fe39b758eb","","1447","
                <div class=""stimulus-container"">
                    <img src=""images/causal_sequence/the_performance_causal/the_performance_causal_7.png"" class=""exp-image"">
                    <div class=""question-area"">
                        <p style=""font-size: 20px; font-weight: bold; margin: 0;"">Is there a person in this image?</p>
                    </div>
                </div>","0","main_experiment_trial","7","the_performance_causal","causal_sequence","randomized","","","","",""
"","","","","","html-keyboard-response","52","636777","0.0-52.0","CA8C5FE2128547EB9FEDD9E18EE6A8DE","019cf9bd-a61b-7c13-9ce6-3b6bd34c5562","019cf99d-e445-78ae-88d0-91fe39b758eb","","null","
                <div class=""stimulus-container"">
                    <img src=""images/causal_sequence/the_performance_causal/the_performance_causal_5.png"" class=""exp-image"">
                    <div class=""question-area""></div> 
                </div>","null","","","","","","","","","",""
"","","","","","html-button-response","53","637510","0.0-53.0","CA8C5FE2128547EB9FEDD9E18EE6A8DE","019cf9bd-a61b-7c13-9ce6-3b6bd34c5562","019cf99d-e445-78ae-88d0-91fe39b758eb","","733","
                <div class=""stimulus-container"">
                    <img src=""images/causal_sequence/the_performance_causal/the_performance_causal_5.png"" class=""exp-image"">
                    <div class=""question-area"">
                        <p style=""font-size: 20px; font-weight: bold; margin: 0;"">Is there a person in this image?</p>
                    </div>
                </div>","0","main_experiment_trial","5","the_performance_causal","causal_sequence","randomized","","","","",""
"","","","","","html-keyboard-response","54","638512","0.0-54.0","CA8C5FE2128547EB9FEDD9E18EE6A8DE","019cf9bd-a61b-7c13-9ce6-3b6bd34c5562","019cf99d-e445-78ae-88d0-91fe39b758eb","","null","
                <div class=""stimulus-container"">
                    <img src=""images/causal_sequence/the_performance_causal/the_performance_causal_4.png"" class=""exp-image"">
                    <div class=""question-area""></div> 
                </div>","null","","","","","","","","","",""
"","","","","","html-button-response","55","639073","0.0-55.0","CA8C5FE2128547EB9FEDD9E18EE6A8DE","019cf9bd-a61b-7c13-9ce6-3b6bd34c5562","019cf99d-e445-78ae-88d0-91fe39b758eb","","561","
                <div class=""stimulus-container"">
                    <img src=""images/causal_sequence/the_performance_causal/the_performance_causal_4.png"" class=""exp-image"">
                    <div class=""question-area"">
                        <p style=""font-size: 20px; font-weight: bold; margin: 0;"">Is there a person in this image?</p>
                    </div>
                </div>","0","main_experiment_trial","4","the_performance_causal","causal_sequence","randomized","","","","",""
"","","","","","html-keyboard-response","56","640090","0.0-56.0","CA8C5FE2128547EB9FEDD9E18EE6A8DE","019cf9bd-a61b-7c13-9ce6-3b6bd34c5562","019cf99d-e445-78ae-88d0-91fe39b758eb","","null","
                <div class=""stimulus-container"">
                    <img src=""images/causal_sequence/the_performance_causal/the_performance_causal_3.png"" class=""exp-image"">
                    <div class=""question-area""></div> 
                </div>","null","","","","","","","","","",""
"","","","","","html-button-response","57","640351","0.0-57.0","CA8C5FE2128547EB9FEDD9E18EE6A8DE","019cf9bd-a61b-7c13-9ce6-3b6bd34c5562","019cf99d-e445-78ae-88d0-91fe39b758eb","","260","
                <div class=""stimulus-container"">
                    <img src=""images/causal_sequence/the_performance_causal/the_performance_causal_3.png"" class=""exp-image"">
                    <div class=""question-area"">
                        <p style=""font-size: 20px; font-weight: bold; margin: 0;"">Is there a person in this image?</p>
                    </div>
                </div>","0","main_experiment_trial","3","the_performance_causal","causal_sequence","randomized","","","","",""
"","","","","","html-keyboard-response","58","645353","0.0-58.0","CA8C5FE2128547EB9FEDD9E18EE6A8DE","019cf9bd-a61b-7c13-9ce6-3b6bd34c5562","019cf99d-e445-78ae-88d0-91fe39b758eb","","null","<div style=""background-color: white; width: 100vw; height: 100vh;""></div>","null","","","","","","","","","",""
"","","","","","html-keyboard-response","59","646357","0.0-59.0","CA8C5FE2128547EB9FEDD9E18EE6A8DE","019cf9bd-a61b-7c13-9ce6-3b6bd34c5562","019cf99d-e445-78ae-88d0-91fe39b758eb","","null","
                <div class=""stimulus-container"">
                    <img src=""images/semantic_sequence/exploring_nature_semantic/exploring_nature_semantic_3.png"" class=""exp-image"">
                    <div class=""question-area""></div> 
                </div>","null","","","","","","","","","",""
"","","","","","html-button-response","60","648209","0.0-60.0","CA8C5FE2128547EB9FEDD9E18EE6A8DE","019cf9bd-a61b-7c13-9ce6-3b6bd34c5562","019cf99d-e445-78ae-88d0-91fe39b758eb","","1851","
                <div class=""stimulus-container"">
                    <img src=""images/semantic_sequence/exploring_nature_semantic/exploring_nature_semantic_3.png"" class=""exp-image"">
                    <div class=""question-area"">
                        <p style=""font-size: 20px; font-weight: bold; margin: 0;"">Is there a person in this image?</p>
                    </div>
                </div>","0","main_experiment_trial","3","exploring_nature_semantic","semantic_sequence","randomized","","","","",""
"","","","","","html-keyboard-response","61","649219","0.0-61.0","CA8C5FE2128547EB9FEDD9E18EE6A8DE","019cf9bd-a61b-7c13-9ce6-3b6bd34c5562","019cf99d-e445-78ae-88d0-91fe39b758eb","","null","
                <div class=""stimulus-container"">
                    <img src=""images/semantic_sequence/exploring_nature_semantic/exploring_nature_semantic_1.png"" class=""exp-image"">
                    <div class=""question-area""></div> 
                </div>","null","","","","","","","","","",""
"","","","","","html-button-response","62","649638","0.0-62.0","CA8C5FE2128547EB9FEDD9E18EE6A8DE","019cf9bd-a61b-7c13-9ce6-3b6bd34c5562","019cf99d-e445-78ae-88d0-91fe39b758eb","","419","
                <div class=""stimulus-container"">
                    <img src=""images/semantic_sequence/exploring_nature_semantic/exploring_nature_semantic_1.png"" class=""exp-image"">
                    <div class=""question-area"">
                        <p style=""font-size: 20px; font-weight: bold; margin: 0;"">Is there a person in this image?</p>
                    </div>
                </div>","0","main_experiment_trial","1","exploring_nature_semantic","semantic_sequence","randomized","","","","",""
"","","","","","html-keyboard-response","63","650643","0.0-63.0","CA8C5FE2128547EB9FEDD9E18EE6A8DE","019cf9bd-a61b-7c13-9ce6-3b6bd34c5562","019cf99d-e445-78ae-88d0-91fe39b758eb","","null","
                <div class=""stimulus-container"">
                    <img src=""images/semantic_sequence/exploring_nature_semantic/exploring_nature_semantic_ten.png"" class=""exp-image"">
                    <div class=""question-area""></div> 
                </div>","null","","","","","","","","","",""
"","","","","","html-button-response","64","650932","0.0-64.0","CA8C5FE2128547EB9FEDD9E18EE6A8DE","019cf9bd-a61b-7c13-9ce6-3b6bd34c5562","019cf99d-e445-78ae-88d0-91fe39b758eb","","288","
                <div class=""stimulus-container"">
                    <img src=""images/semantic_sequence/exploring_nature_semantic/exploring_nature_semantic_ten.png"" class=""exp-image"">
                    <div class=""question-area"">
                        <p style=""font-size: 20px; font-weight: bold; margin: 0;"">Is there a person in this image?</p>
                    </div>
                </div>","0","main_experiment_trial","ten","exploring_nature_semantic","semantic_sequence","randomized","","","","",""
"","","","","","html-keyboard-response","65","651942","0.0-65.0","CA8C5FE2128547EB9FEDD9E18EE6A8DE","019cf9bd-a61b-7c13-9ce6-3b6bd34c5562","019cf99d-e445-78ae-88d0-91fe39b758eb","","null","
                <div class=""stimulus-container"">
                    <img src=""images/semantic_sequence/exploring_nature_semantic/exploring_nature_semantic_2.png"" class=""exp-image"">
                    <div class=""question-area""></div> 
                </div>","null","","","","","","","","","",""
"","","","","","html-button-response","66","652175","0.0-66.0","CA8C5FE2128547EB9FEDD9E18EE6A8DE","019cf9bd-a61b-7c13-9ce6-3b6bd34c5562","019cf99d-e445-78ae-88d0-91fe39b758eb","","233","
                <div class=""stimulus-container"">
                    <img src=""images/semantic_sequence/exploring_nature_semantic/exploring_nature_semantic_2.png"" class=""exp-image"">
                    <div class=""question-area"">
                        <p style=""font-size: 20px; font-weight: bold; margin: 0;"">Is there a person in this image?</p>
                    </div>
                </div>","0","main_experiment_trial","2","exploring_nature_semantic","semantic_sequence","randomized","","","","",""
"","","","","","html-keyboard-response","67","653181","0.0-67.0","CA8C5FE2128547EB9FEDD9E18EE6A8DE","019cf9bd-a61b-7c13-9ce6-3b6bd34c5562","019cf99d-e445-78ae-88d0-91fe39b758eb","","null","
                <div class=""stimulus-container"">
                    <img src=""images/semantic_sequence/exploring_nature_semantic/exploring_nature_semantic_4.png"" class=""exp-image"">
                    <div class=""question-area""></div> 
                </div>","null","","","","","","","","","",""
"","","","","","html-button-response","68","653769","0.0-68.0","CA8C5FE2128547EB9FEDD9E18EE6A8DE","019cf9bd-a61b-7c13-9ce6-3b6bd34c5562","019cf99d-e445-78ae-88d0-91fe39b758eb","","587","
                <div class=""stimulus-container"">
                    <img src=""images/semantic_sequence/exploring_nature_semantic/exploring_nature_semantic_4.png"" class=""exp-image"">
                    <div class=""question-area"">
                        <p style=""font-size: 20px; font-weight: bold; margin: 0;"">Is there a person in this image?</p>
                    </div>
                </div>","0","main_experiment_trial","4","exploring_nature_semantic","semantic_sequence","randomized","","","","",""
"","","","","","html-keyboard-response","69","654772","0.0-69.0","CA8C5FE2128547EB9FEDD9E18EE6A8DE","019cf9bd-a61b-7c13-9ce6-3b6bd34c5562","019cf99d-e445-78ae-88d0-91fe39b758eb","","null","
                <div class=""stimulus-container"">
                    <img src=""images/semantic_sequence/exploring_nature_semantic/exploring_nature_semantic_5.png"" class=""exp-image"">
                    <div class=""question-area""></div> 
                </div>","null","","","","","","","","","",""
"","","","","","html-button-response","70","655061","0.0-70.0","CA8C5FE2128547EB9FEDD9E18EE6A8DE","019cf9bd-a61b-7c13-9ce6-3b6bd34c5562","019cf99d-e445-78ae-88d0-91fe39b758eb","","288","
                <div class=""stimulus-container"">
                    <img src=""images/semantic_sequence/exploring_nature_semantic/exploring_nature_semantic_5.png"" class=""exp-image"">
                    <div class=""question-area"">
                        <p style=""font-size: 20px; font-weight: bold; margin: 0;"">Is there a person in this image?</p>
                    </div>
                </div>","0","main_experiment_trial","5","exploring_nature_semantic","semantic_sequence","randomized","","","","",""
"","","","","","html-keyboard-response","71","656074","0.0-71.0","CA8C5FE2128547EB9FEDD9E18EE6A8DE","019cf9bd-a61b-7c13-9ce6-3b6bd34c5562","019cf99d-e445-78ae-88d0-91fe39b758eb","","null","
                <div class=""stimulus-container"">
                    <img src=""images/semantic_sequence/exploring_nature_semantic/exploring_nature_semantic_9.png"" class=""exp-image"">
                    <div class=""question-area""></div> 
                </div>","null","","","","","","","","","",""
"","","","","","html-button-response","72","656347","0.0-72.0","CA8C5FE2128547EB9FEDD9E18EE6A8DE","019cf9bd-a61b-7c13-9ce6-3b6bd34c5562","019cf99d-e445-78ae-88d0-91fe39b758eb","","272","
                <div class=""stimulus-container"">
                    <img src=""images/semantic_sequence/exploring_nature_semantic/exploring_nature_semantic_9.png"" class=""exp-image"">
                    <div class=""question-area"">
                        <p style=""font-size: 20px; font-weight: bold; margin: 0;"">Is there a person in this image?</p>
                    </div>
                </div>","0","main_experiment_trial","9","exploring_nature_semantic","semantic_sequence","randomized","","","","",""
"","","","","","html-keyboard-response","73","657357","0.0-73.0","CA8C5FE2128547EB9FEDD9E18EE6A8DE","019cf9bd-a61b-7c13-9ce6-3b6bd34c5562","019cf99d-e445-78ae-88d0-91fe39b758eb","","null","
                <div class=""stimulus-container"">
                    <img src=""images/semantic_sequence/exploring_nature_semantic/exploring_nature_semantic_6.png"" class=""exp-image"">
                    <div class=""question-area""></div> 
                </div>","null","","","","","","","","","",""
"","","","","","html-button-response","74","659168","0.0-74.0","CA8C5FE2128547EB9FEDD9E18EE6A8DE","019cf9bd-a61b-7c13-9ce6-3b6bd34c5562","019cf99d-e445-78ae-88d0-91fe39b758eb","","1810","
                <div class=""stimulus-container"">
                    <img src=""images/semantic_sequence/exploring_nature_semantic/exploring_nature_semantic_6.png"" class=""exp-image"">
                    <div class=""question-area"">
                        <p style=""font-size: 20px; font-weight: bold; margin: 0;"">Is there a person in this image?</p>
                    </div>
                </div>","0","main_experiment_trial","6","exploring_nature_semantic","semantic_sequence","randomized","","","","",""
"","","","","","html-keyboard-response","75","660178","0.0-75.0","CA8C5FE2128547EB9FEDD9E18EE6A8DE","019cf9bd-a61b-7c13-9ce6-3b6bd34c5562","019cf99d-e445-78ae-88d0-91fe39b758eb","","null","
                <div class=""stimulus-container"">
                    <img src=""images/semantic_sequence/exploring_nature_semantic/exploring_nature_semantic_8.png"" class=""exp-image"">
                    <div class=""question-area""></div> 
                </div>","null","","","","","","","","","",""
"","","","","","html-button-response","76","660960","0.0-76.0","CA8C5FE2128547EB9FEDD9E18EE6A8DE","019cf9bd-a61b-7c13-9ce6-3b6bd34c5562","019cf99d-e445-78ae-88d0-91fe39b758eb","","782","
                <div class=""stimulus-container"">
                    <img src=""images/semantic_sequence/exploring_nature_semantic/exploring_nature_semantic_8.png"" class=""exp-image"">
                    <div class=""question-area"">
                        <p style=""font-size: 20px; font-weight: bold; margin: 0;"">Is there a person in this image?</p>
                    </div>
                </div>","0","main_experiment_trial","8","exploring_nature_semantic","semantic_sequence","randomized","","","","",""
"","","","","","html-keyboard-response","77","661965","0.0-77.0","CA8C5FE2128547EB9FEDD9E18EE6A8DE","019cf9bd-a61b-7c13-9ce6-3b6bd34c5562","019cf99d-e445-78ae-88d0-91fe39b758eb","","null","
                <div class=""stimulus-container"">
                    <img src=""images/semantic_sequence/exploring_nature_semantic/exploring_nature_semantic_7.png"" class=""exp-image"">
                    <div class=""question-area""></div> 
                </div>","null","","","","","","","","","",""
"","","","","","html-button-response","78","662331","0.0-78.0","CA8C5FE2128547EB9FEDD9E18EE6A8DE","019cf9bd-a61b-7c13-9ce6-3b6bd34c5562","019cf99d-e445-78ae-88d0-91fe39b758eb","","366","
                <div class=""stimulus-container"">
                    <img src=""images/semantic_sequence/exploring_nature_semantic/exploring_nature_semantic_7.png"" class=""exp-image"">
                    <div class=""question-area"">
                        <p style=""font-size: 20px; font-weight: bold; margin: 0;"">Is there a person in this image?</p>
                    </div>
                </div>","0","main_experiment_trial","7","exploring_nature_semantic","semantic_sequence","randomized","","","","",""
"","","","","","html-keyboard-response","79","667335","0.0-79.0","CA8C5FE2128547EB9FEDD9E18EE6A8DE","019cf9bd-a61b-7c13-9ce6-3b6bd34c5562","019cf99d-e445-78ae-88d0-91fe39b758eb","","null","<div style=""background-color: white; width: 100vw; height: 100vh;""></div>","null","","","","","","","","","",""
"","","","","","html-keyboard-response","80","668338","0.0-80.0","CA8C5FE2128547EB9FEDD9E18EE6A8DE","019cf9bd-a61b-7c13-9ce6-3b6bd34c5562","019cf99d-e445-78ae-88d0-91fe39b758eb","","null","
                <div class=""stimulus-container"">
                    <img src=""images/semantic_sequence/redecorating_a_house_semantic/redecorating_a_house_semantic_6.png"" class=""exp-image"">
                    <div class=""question-area""></div> 
                </div>","null","","","","","","","","","",""
"","","","","","html-button-response","81","668997","0.0-81.0","CA8C5FE2128547EB9FEDD9E18EE6A8DE","019cf9bd-a61b-7c13-9ce6-3b6bd34c5562","019cf99d-e445-78ae-88d0-91fe39b758eb","","659","
                <div class=""stimulus-container"">
                    <img src=""images/semantic_sequence/redecorating_a_house_semantic/redecorating_a_house_semantic_6.png"" class=""exp-image"">
                    <div class=""question-area"">
                        <p style=""font-size: 20px; font-weight: bold; margin: 0;"">Is there a person in this image?</p>
                    </div>
                </div>","0","main_experiment_trial","6","redecorating_a_house_semantic","semantic_sequence","randomized","","","","",""
"","","","","","html-keyboard-response","82","670009","0.0-82.0","CA8C5FE2128547EB9FEDD9E18EE6A8DE","019cf9bd-a61b-7c13-9ce6-3b6bd34c5562","019cf99d-e445-78ae-88d0-91fe39b758eb","","null","
                <div class=""stimulus-container"">
                    <img src=""images/semantic_sequence/redecorating_a_house_semantic/redecorating_a_house_semantic_2.png"" class=""exp-image"">
                    <div class=""question-area""></div> 
                </div>","null","","","","","","","","","",""
"","","","","","html-button-response","83","672523","0.0-83.0","CA8C5FE2128547EB9FEDD9E18EE6A8DE","019cf9bd-a61b-7c13-9ce6-3b6bd34c5562","019cf99d-e445-78ae-88d0-91fe39b758eb","","2513","
                <div class=""stimulus-container"">
                    <img src=""images/semantic_sequence/redecorating_a_house_semantic/redecorating_a_house_semantic_2.png"" class=""exp-image"">
                    <div class=""question-area"">
                        <p style=""font-size: 20px; font-weight: bold; margin: 0;"">Is there a person in this image?</p>
                    </div>
                </div>","0","main_experiment_trial","2","redecorating_a_house_semantic","semantic_sequence","randomized","","","","",""
"","","","","","html-keyboard-response","84","673538","0.0-84.0","CA8C5FE2128547EB9FEDD9E18EE6A8DE","019cf9bd-a61b-7c13-9ce6-3b6bd34c5562","019cf99d-e445-78ae-88d0-91fe39b758eb","","null","
                <div class=""stimulus-container"">
                    <img src=""images/semantic_sequence/redecorating_a_house_semantic/redecorating_a_house_semantic_1.png"" class=""exp-image"">
                    <div class=""question-area""></div> 
                </div>","null","","","","","","","","","",""
"","","","","","html-button-response","85","676228","0.0-85.0","CA8C5FE2128547EB9FEDD9E18EE6A8DE","019cf9bd-a61b-7c13-9ce6-3b6bd34c5562","019cf99d-e445-78ae-88d0-91fe39b758eb","","2689","
                <div class=""stimulus-container"">
                    <img src=""images/semantic_sequence/redecorating_a_house_semantic/redecorating_a_house_semantic_1.png"" class=""exp-image"">
                    <div class=""question-area"">
                        <p style=""font-size: 20px; font-weight: bold; margin: 0;"">Is there a person in this image?</p>
                    </div>
                </div>","0","main_experiment_trial","1","redecorating_a_house_semantic","semantic_sequence","randomized","","","","",""
"","","","","","html-keyboard-response","86","677237","0.0-86.0","CA8C5FE2128547EB9FEDD9E18EE6A8DE","019cf9bd-a61b-7c13-9ce6-3b6bd34c5562","019cf99d-e445-78ae-88d0-91fe39b758eb","","null","
                <div class=""stimulus-container"">
                    <img src=""images/semantic_sequence/redecorating_a_house_semantic/redecorating_a_house_semantic_9.png"" class=""exp-image"">
                    <div class=""question-area""></div> 
                </div>","null","","","","","","","","","",""
"","","","","","html-button-response","87","677858","0.0-87.0","CA8C5FE2128547EB9FEDD9E18EE6A8DE","019cf9bd-a61b-7c13-9ce6-3b6bd34c5562","019cf99d-e445-78ae-88d0-91fe39b758eb","","620","
                <div class=""stimulus-container"">
                    <img src=""images/semantic_sequence/redecorating_a_house_semantic/redecorating_a_house_semantic_9.png"" class=""exp-image"">
                    <div class=""question-area"">
                        <p style=""font-size: 20px; font-weight: bold; margin: 0;"">Is there a person in this image?</p>
                    </div>
                </div>","0","main_experiment_trial","9","redecorating_a_house_semantic","semantic_sequence","randomized","","","","",""
"","","","","","html-keyboard-response","88","678871","0.0-88.0","CA8C5FE2128547EB9FEDD9E18EE6A8DE","019cf9bd-a61b-7c13-9ce6-3b6bd34c5562","019cf99d-e445-78ae-88d0-91fe39b758eb","","null","
                <div class=""stimulus-container"">
                    <img src=""images/semantic_sequence/redecorating_a_house_semantic/redecorating_a_house_semantic_4.png"" class=""exp-image"">
                    <div class=""question-area""></div> 
                </div>","null","","","","","","","","","",""
"","","","","","html-button-response","89","681873","0.0-89.0","CA8C5FE2128547EB9FEDD9E18EE6A8DE","019cf9bd-a61b-7c13-9ce6-3b6bd34c5562","019cf99d-e445-78ae-88d0-91fe39b758eb","","null","
                <div class=""stimulus-container"">
                    <img src=""images/semantic_sequence/redecorating_a_house_semantic/redecorating_a_house_semantic_4.png"" class=""exp-image"">
                    <div class=""question-area"">
                        <p style=""font-size: 20px; font-weight: bold; margin: 0;"">Is there a person in this image?</p>
                    </div>
                </div>","null","main_experiment_trial","4","redecorating_a_house_semantic","semantic_sequence","randomized","","","","",""
"","","","","","html-keyboard-response","90","682882","0.0-90.0","CA8C5FE2128547EB9FEDD9E18EE6A8DE","019cf9bd-a61b-7c13-9ce6-3b6bd34c5562","019cf99d-e445-78ae-88d0-91fe39b758eb","","null","
                <div class=""stimulus-container"">
                    <img src=""images/semantic_sequence/redecorating_a_house_semantic/redecorating_a_house_semantic_8.png"" class=""exp-image"">
                    <div class=""question-area""></div> 
                </div>","null","","","","","","","","","",""
"","","","","","html-button-response","91","683589","0.0-91.0","CA8C5FE2128547EB9FEDD9E18EE6A8DE","019cf9bd-a61b-7c13-9ce6-3b6bd34c5562","019cf99d-e445-78ae-88d0-91fe39b758eb","","706","
                <div class=""stimulus-container"">
                    <img src=""images/semantic_sequence/redecorating_a_house_semantic/redecorating_a_house_semantic_8.png"" class=""exp-image"">
                    <div class=""question-area"">
                        <p style=""font-size: 20px; font-weight: bold; margin: 0;"">Is there a person in this image?</p>
                    </div>
                </div>","0","main_experiment_trial","8","redecorating_a_house_semantic","semantic_sequence","randomized","","","","",""
"","","","","","html-keyboard-response","92","684590","0.0-92.0","CA8C5FE2128547EB9FEDD9E18EE6A8DE","019cf9bd-a61b-7c13-9ce6-3b6bd34c5562","019cf99d-e445-78ae-88d0-91fe39b758eb","","null","
                <div class=""stimulus-container"">
                    <img src=""images/semantic_sequence/redecorating_a_house_semantic/redecorating_a_house_semantic_3.png"" class=""exp-image"">
                    <div class=""question-area""></div> 
                </div>","null","","","","","","","","","",""
"","","","","","html-button-response","93","685078","0.0-93.0","CA8C5FE2128547EB9FEDD9E18EE6A8DE","019cf9bd-a61b-7c13-9ce6-3b6bd34c5562","019cf99d-e445-78ae-88d0-91fe39b758eb","","487","
                <div class=""stimulus-container"">
                    <img src=""images/semantic_sequence/redecorating_a_house_semantic/redecorating_a_house_semantic_3.png"" class=""exp-image"">
                    <div class=""question-area"">
                        <p style=""font-size: 20px; font-weight: bold; margin: 0;"">Is there a person in this image?</p>
                    </div>
                </div>","0","main_experiment_trial","3","redecorating_a_house_semantic","semantic_sequence","randomized","","","","",""
"","","","","","html-keyboard-response","94","686080","0.0-94.0","CA8C5FE2128547EB9FEDD9E18EE6A8DE","019cf9bd-a61b-7c13-9ce6-3b6bd34c5562","019cf99d-e445-78ae-88d0-91fe39b758eb","","null","
                <div class=""stimulus-container"">
                    <img src=""images/semantic_sequence/redecorating_a_house_semantic/redecorating_a_house_semantic_ten.png"" class=""exp-image"">
                    <div class=""question-area""></div> 
                </div>","null","","","","","","","","","",""
"","","","","","html-button-response","95","686301","0.0-95.0","CA8C5FE2128547EB9FEDD9E18EE6A8DE","019cf9bd-a61b-7c13-9ce6-3b6bd34c5562","019cf99d-e445-78ae-88d0-91fe39b758eb","","220","
                <div class=""stimulus-container"">
                    <img src=""images/semantic_sequence/redecorating_a_house_semantic/redecorating_a_house_semantic_ten.png"" class=""exp-image"">
                    <div class=""question-area"">
                        <p style=""font-size: 20px; font-weight: bold; margin: 0;"">Is there a person in this image?</p>
                    </div>
                </div>","0","main_experiment_trial","ten","redecorating_a_house_semantic","semantic_sequence","randomized","","","","",""
"","","","","","html-keyboard-response","96","687312","0.0-96.0","CA8C5FE2128547EB9FEDD9E18EE6A8DE","019cf9bd-a61b-7c13-9ce6-3b6bd34c5562","019cf99d-e445-78ae-88d0-91fe39b758eb","","null","
                <div class=""stimulus-container"">
                    <img src=""images/semantic_sequence/redecorating_a_house_semantic/redecorating_a_house_semantic_5.png"" class=""exp-image"">
                    <div class=""question-area""></div> 
                </div>","null","","","","","","","","","",""
"","","","","","html-button-response","97","687885","0.0-97.0","CA8C5FE2128547EB9FEDD9E18EE6A8DE","019cf9bd-a61b-7c13-9ce6-3b6bd34c5562","019cf99d-e445-78ae-88d0-91fe39b758eb","","573","
                <div class=""stimulus-container"">
                    <img src=""images/semantic_sequence/redecorating_a_house_semantic/redecorating_a_house_semantic_5.png"" class=""exp-image"">
                    <div class=""question-area"">
                        <p style=""font-size: 20px; font-weight: bold; margin: 0;"">Is there a person in this image?</p>
                    </div>
                </div>","0","main_experiment_trial","5","redecorating_a_house_semantic","semantic_sequence","randomized","","","","",""
"","","","","","html-keyboard-response","98","688901","0.0-98.0","CA8C5FE2128547EB9FEDD9E18EE6A8DE","019cf9bd-a61b-7c13-9ce6-3b6bd34c5562","019cf99d-e445-78ae-88d0-91fe39b758eb","","null","
                <div class=""stimulus-container"">
                    <img src=""images/semantic_sequence/redecorating_a_house_semantic/redecorating_a_house_semantic_7.png"" class=""exp-image"">
                    <div class=""question-area""></div> 
                </div>","null","","","","","","","","","",""
"","","","","","html-button-response","99","689039","0.0-99.0","CA8C5FE2128547EB9FEDD9E18EE6A8DE","019cf9bd-a61b-7c13-9ce6-3b6bd34c5562","019cf99d-e445-78ae-88d0-91fe39b758eb","","138","
                <div class=""stimulus-container"">
                    <img src=""images/semantic_sequence/redecorating_a_house_semantic/redecorating_a_house_semantic_7.png"" class=""exp-image"">
                    <div class=""question-area"">
                        <p style=""font-size: 20px; font-weight: bold; margin: 0;"">Is there a person in this image?</p>
                    </div>
                </div>","0","main_experiment_trial","7","redecorating_a_house_semantic","semantic_sequence","randomized","","","","",""
"","","","","","html-keyboard-response","100","694042","0.0-100.0","CA8C5FE2128547EB9FEDD9E18EE6A8DE","019cf9bd-a61b-7c13-9ce6-3b6bd34c5562","019cf99d-e445-78ae-88d0-91fe39b758eb","","null","<div style=""background-color: white; width: 100vw; height: 100vh;""></div>","null","","","","","","","","","",""
"","","","","","html-keyboard-response","101","695053","0.0-101.0","CA8C5FE2128547EB9FEDD9E18EE6A8DE","019cf9bd-a61b-7c13-9ce6-3b6bd34c5562","019cf99d-e445-78ae-88d0-91fe39b758eb","","null","
                <div class=""stimulus-container"">
                    <img src=""images/semantic_sequence/visiting_cities_semantic/visiting_cities_semantic_3.png"" class=""exp-image"">
                    <div class=""question-area""></div> 
                </div>","null","","","","","","","","","",""
"","","","","","html-button-response","102","696514","0.0-102.0","CA8C5FE2128547EB9FEDD9E18EE6A8DE","019cf9bd-a61b-7c13-9ce6-3b6bd34c5562","019cf99d-e445-78ae-88d0-91fe39b758eb","","1460","
                <div class=""stimulus-container"">
                    <img src=""images/semantic_sequence/visiting_cities_semantic/visiting_cities_semantic_3.png"" class=""exp-image"">
                    <div class=""question-area"">
                        <p style=""font-size: 20px; font-weight: bold; margin: 0;"">Is there a person in this image?</p>
                    </div>
                </div>","1","main_experiment_trial","3","visiting_cities_semantic","semantic_sequence","randomized","","","","",""
"","","","","","html-keyboard-response","103","697528","0.0-103.0","CA8C5FE2128547EB9FEDD9E18EE6A8DE","019cf9bd-a61b-7c13-9ce6-3b6bd34c5562","019cf99d-e445-78ae-88d0-91fe39b758eb","","null","
                <div class=""stimulus-container"">
                    <img src=""images/semantic_sequence/visiting_cities_semantic/visiting_cities_semantic_5.png"" class=""exp-image"">
                    <div class=""question-area""></div> 
                </div>","null","","","","","","","","","",""
"","","","","","html-button-response","104","697988","0.0-104.0","CA8C5FE2128547EB9FEDD9E18EE6A8DE","019cf9bd-a61b-7c13-9ce6-3b6bd34c5562","019cf99d-e445-78ae-88d0-91fe39b758eb","","460","
                <div class=""stimulus-container"">
                    <img src=""images/semantic_sequence/visiting_cities_semantic/visiting_cities_semantic_5.png"" class=""exp-image"">
                    <div class=""question-area"">
                        <p style=""font-size: 20px; font-weight: bold; margin: 0;"">Is there a person in this image?</p>
                    </div>
                </div>","1","main_experiment_trial","5","visiting_cities_semantic","semantic_sequence","randomized","","","","",""
"","","","","","html-keyboard-response","105","698989","0.0-105.0","CA8C5FE2128547EB9FEDD9E18EE6A8DE","019cf9bd-a61b-7c13-9ce6-3b6bd34c5562","019cf99d-e445-78ae-88d0-91fe39b758eb","","null","
                <div class=""stimulus-container"">
                    <img src=""images/semantic_sequence/visiting_cities_semantic/visiting_cities_semantic_8.png"" class=""exp-image"">
                    <div class=""question-area""></div> 
                </div>","null","","","","","","","","","",""
"","","","","","html-button-response","106","699396","0.0-106.0","CA8C5FE2128547EB9FEDD9E18EE6A8DE","019cf9bd-a61b-7c13-9ce6-3b6bd34c5562","019cf99d-e445-78ae-88d0-91fe39b758eb","","406","
                <div class=""stimulus-container"">
                    <img src=""images/semantic_sequence/visiting_cities_semantic/visiting_cities_semantic_8.png"" class=""exp-image"">
                    <div class=""question-area"">
                        <p style=""font-size: 20px; font-weight: bold; margin: 0;"">Is there a person in this image?</p>
                    </div>
                </div>","1","main_experiment_trial","8","visiting_cities_semantic","semantic_sequence","randomized","","","","",""
"","","","","","html-keyboard-response","107","700397","0.0-107.0","CA8C5FE2128547EB9FEDD9E18EE6A8DE","019cf9bd-a61b-7c13-9ce6-3b6bd34c5562","019cf99d-e445-78ae-88d0-91fe39b758eb","","null","
                <div class=""stimulus-container"">
                    <img src=""images/semantic_sequence/visiting_cities_semantic/visiting_cities_semantic_6.png"" class=""exp-image"">
                    <div class=""question-area""></div> 
                </div>","null","","","","","","","","","",""
"","","","","","html-button-response","108","700804","0.0-108.0","CA8C5FE2128547EB9FEDD9E18EE6A8DE","019cf9bd-a61b-7c13-9ce6-3b6bd34c5562","019cf99d-e445-78ae-88d0-91fe39b758eb","","406","
                <div class=""stimulus-container"">
                    <img src=""images/semantic_sequence/visiting_cities_semantic/visiting_cities_semantic_6.png"" class=""exp-image"">
                    <div class=""question-area"">
                        <p style=""font-size: 20px; font-weight: bold; margin: 0;"">Is there a person in this image?</p>
                    </div>
                </div>","1","main_experiment_trial","6","visiting_cities_semantic","semantic_sequence","randomized","","","","",""
"","","","","","html-keyboard-response","109","701817","0.0-109.0","CA8C5FE2128547EB9FEDD9E18EE6A8DE","019cf9bd-a61b-7c13-9ce6-3b6bd34c5562","019cf99d-e445-78ae-88d0-91fe39b758eb","","null","
                <div class=""stimulus-container"">
                    <img src=""images/semantic_sequence/visiting_cities_semantic/visiting_cities_semantic_7.png"" class=""exp-image"">
                    <div class=""question-area""></div> 
                </div>","null","","","","","","","","","",""
"","","","","","html-button-response","110","703061","0.0-110.0","CA8C5FE2128547EB9FEDD9E18EE6A8DE","019cf9bd-a61b-7c13-9ce6-3b6bd34c5562","019cf99d-e445-78ae-88d0-91fe39b758eb","","1243","
                <div class=""stimulus-container"">
                    <img src=""images/semantic_sequence/visiting_cities_semantic/visiting_cities_semantic_7.png"" class=""exp-image"">
                    <div class=""question-area"">
                        <p style=""font-size: 20px; font-weight: bold; margin: 0;"">Is there a person in this image?</p>
                    </div>
                </div>","0","main_experiment_trial","7","visiting_cities_semantic","semantic_sequence","randomized","","","","",""
"","","","","","html-keyboard-response","111","704063","0.0-111.0","CA8C5FE2128547EB9FEDD9E18EE6A8DE","019cf9bd-a61b-7c13-9ce6-3b6bd34c5562","019cf99d-e445-78ae-88d0-91fe39b758eb","","null","
                <div class=""stimulus-container"">
                    <img src=""images/semantic_sequence/visiting_cities_semantic/visiting_cities_semantic_2.png"" class=""exp-image"">
                    <div class=""question-area""></div> 
                </div>","null","","","","","","","","","",""
"","","","","","html-button-response","112","704642","0.0-112.0","CA8C5FE2128547EB9FEDD9E18EE6A8DE","019cf9bd-a61b-7c13-9ce6-3b6bd34c5562","019cf99d-e445-78ae-88d0-91fe39b758eb","","579","
                <div class=""stimulus-container"">
                    <img src=""images/semantic_sequence/visiting_cities_semantic/visiting_cities_semantic_2.png"" class=""exp-image"">
                    <div class=""question-area"">
                        <p style=""font-size: 20px; font-weight: bold; margin: 0;"">Is there a person in this image?</p>
                    </div>
                </div>","1","main_experiment_trial","2","visiting_cities_semantic","semantic_sequence","randomized","","","","",""
"","","","","","html-keyboard-response","113","705653","0.0-113.0","CA8C5FE2128547EB9FEDD9E18EE6A8DE","019cf9bd-a61b-7c13-9ce6-3b6bd34c5562","019cf99d-e445-78ae-88d0-91fe39b758eb","","null","
                <div class=""stimulus-container"">
                    <img src=""images/semantic_sequence/visiting_cities_semantic/visiting_cities_semantic_1.png"" class=""exp-image"">
                    <div class=""question-area""></div> 
                </div>","null","","","","","","","","","",""
"","","","","","html-button-response","114","707334","0.0-114.0","CA8C5FE2128547EB9FEDD9E18EE6A8DE","019cf9bd-a61b-7c13-9ce6-3b6bd34c5562","019cf99d-e445-78ae-88d0-91fe39b758eb","","1680","
                <div class=""stimulus-container"">
                    <img src=""images/semantic_sequence/visiting_cities_semantic/visiting_cities_semantic_1.png"" class=""exp-image"">
                    <div class=""question-area"">
                        <p style=""font-size: 20px; font-weight: bold; margin: 0;"">Is there a person in this image?</p>
                    </div>
                </div>","0","main_experiment_trial","1","visiting_cities_semantic","semantic_sequence","randomized","","","","",""
"","","","","","html-keyboard-response","115","708337","0.0-115.0","CA8C5FE2128547EB9FEDD9E18EE6A8DE","019cf9bd-a61b-7c13-9ce6-3b6bd34c5562","019cf99d-e445-78ae-88d0-91fe39b758eb","","null","
                <div class=""stimulus-container"">
                    <img src=""images/semantic_sequence/visiting_cities_semantic/visiting_cities_semantic_9.png"" class=""exp-image"">
                    <div class=""question-area""></div> 
                </div>","null","","","","","","","","","",""
"","","","","","html-button-response","116","708791","0.0-116.0","CA8C5FE2128547EB9FEDD9E18EE6A8DE","019cf9bd-a61b-7c13-9ce6-3b6bd34c5562","019cf99d-e445-78ae-88d0-91fe39b758eb","","454","
                <div class=""stimulus-container"">
                    <img src=""images/semantic_sequence/visiting_cities_semantic/visiting_cities_semantic_9.png"" class=""exp-image"">
                    <div class=""question-area"">
                        <p style=""font-size: 20px; font-weight: bold; margin: 0;"">Is there a person in this image?</p>
                    </div>
                </div>","0","main_experiment_trial","9","visiting_cities_semantic","semantic_sequence","randomized","","","","",""
"","","","","","html-keyboard-response","117","709806","0.0-117.0","CA8C5FE2128547EB9FEDD9E18EE6A8DE","019cf9bd-a61b-7c13-9ce6-3b6bd34c5562","019cf99d-e445-78ae-88d0-91fe39b758eb","","null","
                <div class=""stimulus-container"">
                    <img src=""images/semantic_sequence/visiting_cities_semantic/visiting_cities_semantic_ten.png"" class=""exp-image"">
                    <div class=""question-area""></div> 
                </div>","null","","","","","","","","","",""
"","","","","","html-button-response","118","710170","0.0-118.0","CA8C5FE2128547EB9FEDD9E18EE6A8DE","019cf9bd-a61b-7c13-9ce6-3b6bd34c5562","019cf99d-e445-78ae-88d0-91fe39b758eb","","364","
                <div class=""stimulus-container"">
                    <img src=""images/semantic_sequence/visiting_cities_semantic/visiting_cities_semantic_ten.png"" class=""exp-image"">
                    <div class=""question-area"">
                        <p style=""font-size: 20px; font-weight: bold; margin: 0;"">Is there a person in this image?</p>
                    </div>
                </div>","0","main_experiment_trial","ten","visiting_cities_semantic","semantic_sequence","randomized","","","","",""
"","","","","","html-keyboard-response","119","711172","0.0-119.0","CA8C5FE2128547EB9FEDD9E18EE6A8DE","019cf9bd-a61b-7c13-9ce6-3b6bd34c5562","019cf99d-e445-78ae-88d0-91fe39b758eb","","null","
                <div class=""stimulus-container"">
                    <img src=""images/semantic_sequence/visiting_cities_semantic/visiting_cities_semantic_4.png"" class=""exp-image"">
                    <div class=""question-area""></div> 
                </div>","null","","","","","","","","","",""
"","","","","","html-button-response","120","714182","0.0-120.0","CA8C5FE2128547EB9FEDD9E18EE6A8DE","019cf9bd-a61b-7c13-9ce6-3b6bd34c5562","019cf99d-e445-78ae-88d0-91fe39b758eb","","null","
                <div class=""stimulus-container"">
                    <img src=""images/semantic_sequence/visiting_cities_semantic/visiting_cities_semantic_4.png"" class=""exp-image"">
                    <div class=""question-area"">
                        <p style=""font-size: 20px; font-weight: bold; margin: 0;"">Is there a person in this image?</p>
                    </div>
                </div>","null","main_experiment_trial","4","visiting_cities_semantic","semantic_sequence","randomized","","","","",""
"","","","","","html-keyboard-response","121","719186","0.0-121.0","CA8C5FE2128547EB9FEDD9E18EE6A8DE","019cf9bd-a61b-7c13-9ce6-3b6bd34c5562","019cf99d-e445-78ae-88d0-91fe39b758eb","","null","<div style=""background-color: white; width: 100vw; height: 100vh;""></div>","null","","","","","","","","","",""
"","","","","","html-keyboard-response","122","720187","0.0-122.0","CA8C5FE2128547EB9FEDD9E18EE6A8DE","019cf9bd-a61b-7c13-9ce6-3b6bd34c5562","019cf99d-e445-78ae-88d0-91fe39b758eb","","null","
                <div class=""stimulus-container"">
                    <img src=""images/causal_sequence/saving_a_cat_causal/saving_a_cat_causal_7.png"" class=""exp-image"">
                    <div class=""question-area""></div> 
                </div>","null","","","","","","","","","",""
"","","","","","html-button-response","123","721016","0.0-123.0","CA8C5FE2128547EB9FEDD9E18EE6A8DE","019cf9bd-a61b-7c13-9ce6-3b6bd34c5562","019cf99d-e445-78ae-88d0-91fe39b758eb","","828","
                <div class=""stimulus-container"">
                    <img src=""images/causal_sequence/saving_a_cat_causal/saving_a_cat_causal_7.png"" class=""exp-image"">
                    <div class=""question-area"">
                        <p style=""font-size: 20px; font-weight: bold; margin: 0;"">Is there a person in this image?</p>
                    </div>
                </div>","0","main_experiment_trial","7","saving_a_cat_causal","causal_sequence","randomized","","","","",""
"","","","","","html-keyboard-response","124","722028","0.0-124.0","CA8C5FE2128547EB9FEDD9E18EE6A8DE","019cf9bd-a61b-7c13-9ce6-3b6bd34c5562","019cf99d-e445-78ae-88d0-91fe39b758eb","","null","
                <div class=""stimulus-container"">
                    <img src=""images/causal_sequence/saving_a_cat_causal/saving_a_cat_causal_5.png"" class=""exp-image"">
                    <div class=""question-area""></div> 
                </div>","null","","","","","","","","","",""
"","","","","","html-button-response","125","722404","0.0-125.0","CA8C5FE2128547EB9FEDD9E18EE6A8DE","019cf9bd-a61b-7c13-9ce6-3b6bd34c5562","019cf99d-e445-78ae-88d0-91fe39b758eb","","375","
                <div class=""stimulus-container"">
                    <img src=""images/causal_sequence/saving_a_cat_causal/saving_a_cat_causal_5.png"" class=""exp-image"">
                    <div class=""question-area"">
                        <p style=""font-size: 20px; font-weight: bold; margin: 0;"">Is there a person in this image?</p>
                    </div>
                </div>","0","main_experiment_trial","5","saving_a_cat_causal","causal_sequence","randomized","","","","",""
"","","","","","html-keyboard-response","126","723414","0.0-126.0","CA8C5FE2128547EB9FEDD9E18EE6A8DE","019cf9bd-a61b-7c13-9ce6-3b6bd34c5562","019cf99d-e445-78ae-88d0-91fe39b758eb","","null","
                <div class=""stimulus-container"">
                    <img src=""images/causal_sequence/saving_a_cat_causal/saving_a_cat_causal_9.png"" class=""exp-image"">
                    <div class=""question-area""></div> 
                </div>","null","","","","","","","","","",""
"","","","","","html-button-response","127","723659","0.0-127.0","CA8C5FE2128547EB9FEDD9E18EE6A8DE","019cf9bd-a61b-7c13-9ce6-3b6bd34c5562","019cf99d-e445-78ae-88d0-91fe39b758eb","","245","
                <div class=""stimulus-container"">
                    <img src=""images/causal_sequence/saving_a_cat_causal/saving_a_cat_causal_9.png"" class=""exp-image"">
                    <div class=""question-area"">
                        <p style=""font-size: 20px; font-weight: bold; margin: 0;"">Is there a person in this image?</p>
                    </div>
                </div>","0","main_experiment_trial","9","saving_a_cat_causal","causal_sequence","randomized","","","","",""
"","","","","","html-keyboard-response","128","724669","0.0-128.0","CA8C5FE2128547EB9FEDD9E18EE6A8DE","019cf9bd-a61b-7c13-9ce6-3b6bd34c5562","019cf99d-e445-78ae-88d0-91fe39b758eb","","null","
                <div class=""stimulus-container"">
                    <img src=""images/causal_sequence/saving_a_cat_causal/saving_a_cat_causal_2.png"" class=""exp-image"">
                    <div class=""question-area""></div> 
                </div>","null","","","","","","","","","",""
"","","","","","html-button-response","129","726316","0.0-129.0","CA8C5FE2128547EB9FEDD9E18EE6A8DE","019cf9bd-a61b-7c13-9ce6-3b6bd34c5562","019cf99d-e445-78ae-88d0-91fe39b758eb","","1647","
                <div class=""stimulus-container"">
                    <img src=""images/causal_sequence/saving_a_cat_causal/saving_a_cat_causal_2.png"" class=""exp-image"">
                    <div class=""question-area"">
                        <p style=""font-size: 20px; font-weight: bold; margin: 0;"">Is there a person in this image?</p>
                    </div>
                </div>","1","main_experiment_trial","2","saving_a_cat_causal","causal_sequence","randomized","","","","",""
"","","","","","html-keyboard-response","130","727319","0.0-130.0","CA8C5FE2128547EB9FEDD9E18EE6A8DE","019cf9bd-a61b-7c13-9ce6-3b6bd34c5562","019cf99d-e445-78ae-88d0-91fe39b758eb","","null","
                <div class=""stimulus-container"">
                    <img src=""images/causal_sequence/saving_a_cat_causal/saving_a_cat_causal_4.png"" class=""exp-image"">
                    <div class=""question-area""></div> 
                </div>","null","","","","","","","","","",""
"","","","","","html-button-response","131","730323","0.0-131.0","CA8C5FE2128547EB9FEDD9E18EE6A8DE","019cf9bd-a61b-7c13-9ce6-3b6bd34c5562","019cf99d-e445-78ae-88d0-91fe39b758eb","","null","
                <div class=""stimulus-container"">
                    <img src=""images/causal_sequence/saving_a_cat_causal/saving_a_cat_causal_4.png"" class=""exp-image"">
                    <div class=""question-area"">
                        <p style=""font-size: 20px; font-weight: bold; margin: 0;"">Is there a person in this image?</p>
                    </div>
                </div>","null","main_experiment_trial","4","saving_a_cat_causal","causal_sequence","randomized","","","","",""
"","","","","","html-keyboard-response","132","731339","0.0-132.0","CA8C5FE2128547EB9FEDD9E18EE6A8DE","019cf9bd-a61b-7c13-9ce6-3b6bd34c5562","019cf99d-e445-78ae-88d0-91fe39b758eb","","null","
                <div class=""stimulus-container"">
                    <img src=""images/causal_sequence/saving_a_cat_causal/saving_a_cat_causal_ten.png"" class=""exp-image"">
                    <div class=""question-area""></div> 
                </div>","null","","","","","","","","","",""
"","","","","","html-button-response","133","732560","0.0-133.0","CA8C5FE2128547EB9FEDD9E18EE6A8DE","019cf9bd-a61b-7c13-9ce6-3b6bd34c5562","019cf99d-e445-78ae-88d0-91fe39b758eb","","1220","
                <div class=""stimulus-container"">
                    <img src=""images/causal_sequence/saving_a_cat_causal/saving_a_cat_causal_ten.png"" class=""exp-image"">
                    <div class=""question-area"">
                        <p style=""font-size: 20px; font-weight: bold; margin: 0;"">Is there a person in this image?</p>
                    </div>
                </div>","0","main_experiment_trial","ten","saving_a_cat_causal","causal_sequence","randomized","","","","",""
"","","","","","html-keyboard-response","134","733562","0.0-134.0","CA8C5FE2128547EB9FEDD9E18EE6A8DE","019cf9bd-a61b-7c13-9ce6-3b6bd34c5562","019cf99d-e445-78ae-88d0-91fe39b758eb","","null","
                <div class=""stimulus-container"">
                    <img src=""images/causal_sequence/saving_a_cat_causal/saving_a_cat_causal_8.png"" class=""exp-image"">
                    <div class=""question-area""></div> 
                </div>","null","","","","","","","","","",""
"","","","","","html-button-response","135","733941","0.0-135.0","CA8C5FE2128547EB9FEDD9E18EE6A8DE","019cf9bd-a61b-7c13-9ce6-3b6bd34c5562","019cf99d-e445-78ae-88d0-91fe39b758eb","","379","
                <div class=""stimulus-container"">
                    <img src=""images/causal_sequence/saving_a_cat_causal/saving_a_cat_causal_8.png"" class=""exp-image"">
                    <div class=""question-area"">
                        <p style=""font-size: 20px; font-weight: bold; margin: 0;"">Is there a person in this image?</p>
                    </div>
                </div>","0","main_experiment_trial","8","saving_a_cat_causal","causal_sequence","randomized","","","","",""
"","","","","","html-keyboard-response","136","734944","0.0-136.0","CA8C5FE2128547EB9FEDD9E18EE6A8DE","019cf9bd-a61b-7c13-9ce6-3b6bd34c5562","019cf99d-e445-78ae-88d0-91fe39b758eb","","null","
                <div class=""stimulus-container"">
                    <img src=""images/causal_sequence/saving_a_cat_causal/saving_a_cat_causal_6.png"" class=""exp-image"">
                    <div class=""question-area""></div> 
                </div>","null","","","","","","","","","",""
"","","","","","html-button-response","137","736780","0.0-137.0","CA8C5FE2128547EB9FEDD9E18EE6A8DE","019cf9bd-a61b-7c13-9ce6-3b6bd34c5562","019cf99d-e445-78ae-88d0-91fe39b758eb","","1835","
                <div class=""stimulus-container"">
                    <img src=""images/causal_sequence/saving_a_cat_causal/saving_a_cat_causal_6.png"" class=""exp-image"">
                    <div class=""question-area"">
                        <p style=""font-size: 20px; font-weight: bold; margin: 0;"">Is there a person in this image?</p>
                    </div>
                </div>","0","main_experiment_trial","6","saving_a_cat_causal","causal_sequence","randomized","","","","",""
"","","","","","html-keyboard-response","138","737795","0.0-138.0","CA8C5FE2128547EB9FEDD9E18EE6A8DE","019cf9bd-a61b-7c13-9ce6-3b6bd34c5562","019cf99d-e445-78ae-88d0-91fe39b758eb","","null","
                <div class=""stimulus-container"">
                    <img src=""images/causal_sequence/saving_a_cat_causal/saving_a_cat_causal_3.png"" class=""exp-image"">
                    <div class=""question-area""></div> 
                </div>","null","","","","","","","","","",""
"","","","","","html-button-response","139","739058","0.0-139.0","CA8C5FE2128547EB9FEDD9E18EE6A8DE","019cf9bd-a61b-7c13-9ce6-3b6bd34c5562","019cf99d-e445-78ae-88d0-91fe39b758eb","","1262","
                <div class=""stimulus-container"">
                    <img src=""images/causal_sequence/saving_a_cat_causal/saving_a_cat_causal_3.png"" class=""exp-image"">
                    <div class=""question-area"">
                        <p style=""font-size: 20px; font-weight: bold; margin: 0;"">Is there a person in this image?</p>
                    </div>
                </div>","0","main_experiment_trial","3","saving_a_cat_causal","causal_sequence","randomized","","","","",""
"","","","","","html-keyboard-response","140","740073","0.0-140.0","CA8C5FE2128547EB9FEDD9E18EE6A8DE","019cf9bd-a61b-7c13-9ce6-3b6bd34c5562","019cf99d-e445-78ae-88d0-91fe39b758eb","","null","
                <div class=""stimulus-container"">
                    <img src=""images/causal_sequence/saving_a_cat_causal/saving_a_cat_causal_1.png"" class=""exp-image"">
                    <div class=""question-area""></div> 
                </div>","null","","","","","","","","","",""
"","","","","","html-button-response","141","740455","0.0-141.0","CA8C5FE2128547EB9FEDD9E18EE6A8DE","019cf9bd-a61b-7c13-9ce6-3b6bd34c5562","019cf99d-e445-78ae-88d0-91fe39b758eb","","381","
                <div class=""stimulus-container"">
                    <img src=""images/causal_sequence/saving_a_cat_causal/saving_a_cat_causal_1.png"" class=""exp-image"">
                    <div class=""question-area"">
                        <p style=""font-size: 20px; font-weight: bold; margin: 0;"">Is there a person in this image?</p>
                    </div>
                </div>","0","main_experiment_trial","1","saving_a_cat_causal","causal_sequence","randomized","","","","",""
"","","","","","html-keyboard-response","142","745466","0.0-142.0","CA8C5FE2128547EB9FEDD9E18EE6A8DE","019cf9bd-a61b-7c13-9ce6-3b6bd34c5562","019cf99d-e445-78ae-88d0-91fe39b758eb","","null","<div style=""background-color: white; width: 100vw; height: 100vh;""></div>","null","","","","","","","","","",""
"","","","","","html-keyboard-response","143","746482","0.0-143.0","CA8C5FE2128547EB9FEDD9E18EE6A8DE","019cf9bd-a61b-7c13-9ce6-3b6bd34c5562","019cf99d-e445-78ae-88d0-91fe39b758eb","","null","
                <div class=""stimulus-container"">
                    <img src=""images/causal_sequence/museum_causal/museum_causal_7.png"" class=""exp-image"">
                    <div class=""question-area""></div> 
                </div>","null","","","","","","","","","",""
"","","","","","html-button-response","144","748069","0.0-144.0","CA8C5FE2128547EB9FEDD9E18EE6A8DE","019cf9bd-a61b-7c13-9ce6-3b6bd34c5562","019cf99d-e445-78ae-88d0-91fe39b758eb","","1586","
                <div class=""stimulus-container"">
                    <img src=""images/causal_sequence/museum_causal/museum_causal_7.png"" class=""exp-image"">
                    <div class=""question-area"">
                        <p style=""font-size: 20px; font-weight: bold; margin: 0;"">Is there a person in this image?</p>
                    </div>
                </div>","1","main_experiment_trial","7","museum_causal","causal_sequence","randomized","","","","",""
"","","","","","html-keyboard-response","145","749072","0.0-145.0","CA8C5FE2128547EB9FEDD9E18EE6A8DE","019cf9bd-a61b-7c13-9ce6-3b6bd34c5562","019cf99d-e445-78ae-88d0-91fe39b758eb","","null","
                <div class=""stimulus-container"">
                    <img src=""images/causal_sequence/museum_causal/museum_causal_2.png"" class=""exp-image"">
                    <div class=""question-area""></div> 
                </div>","null","","","","","","","","","",""
"","","","","","html-button-response","146","751042","0.0-146.0","CA8C5FE2128547EB9FEDD9E18EE6A8DE","019cf9bd-a61b-7c13-9ce6-3b6bd34c5562","019cf99d-e445-78ae-88d0-91fe39b758eb","","1970","
                <div class=""stimulus-container"">
                    <img src=""images/causal_sequence/museum_causal/museum_causal_2.png"" class=""exp-image"">
                    <div class=""question-area"">
                        <p style=""font-size: 20px; font-weight: bold; margin: 0;"">Is there a person in this image?</p>
                    </div>
                </div>","0","main_experiment_trial","2","museum_causal","causal_sequence","randomized","","","","",""
"","","","","","html-keyboard-response","147","752051","0.0-147.0","CA8C5FE2128547EB9FEDD9E18EE6A8DE","019cf9bd-a61b-7c13-9ce6-3b6bd34c5562","019cf99d-e445-78ae-88d0-91fe39b758eb","","null","
                <div class=""stimulus-container"">
                    <img src=""images/causal_sequence/museum_causal/museum_causal_5.png"" class=""exp-image"">
                    <div class=""question-area""></div> 
                </div>","null","","","","","","","","","",""
"","","","","","html-button-response","148","752538","0.0-148.0","CA8C5FE2128547EB9FEDD9E18EE6A8DE","019cf9bd-a61b-7c13-9ce6-3b6bd34c5562","019cf99d-e445-78ae-88d0-91fe39b758eb","","486","
                <div class=""stimulus-container"">
                    <img src=""images/causal_sequence/museum_causal/museum_causal_5.png"" class=""exp-image"">
                    <div class=""question-area"">
                        <p style=""font-size: 20px; font-weight: bold; margin: 0;"">Is there a person in this image?</p>
                    </div>
                </div>","0","main_experiment_trial","5","museum_causal","causal_sequence","randomized","","","","",""
"","","","","","html-keyboard-response","149","753540","0.0-149.0","CA8C5FE2128547EB9FEDD9E18EE6A8DE","019cf9bd-a61b-7c13-9ce6-3b6bd34c5562","019cf99d-e445-78ae-88d0-91fe39b758eb","","null","
                <div class=""stimulus-container"">
                    <img src=""images/causal_sequence/museum_causal/museum_causal_1.png"" class=""exp-image"">
                    <div class=""question-area""></div> 
                </div>","null","","","","","","","","","",""
"","","","","","html-button-response","150","754434","0.0-150.0","CA8C5FE2128547EB9FEDD9E18EE6A8DE","019cf9bd-a61b-7c13-9ce6-3b6bd34c5562","019cf99d-e445-78ae-88d0-91fe39b758eb","","893","
                <div class=""stimulus-container"">
                    <img src=""images/causal_sequence/museum_causal/museum_causal_1.png"" class=""exp-image"">
                    <div class=""question-area"">
                        <p style=""font-size: 20px; font-weight: bold; margin: 0;"">Is there a person in this image?</p>
                    </div>
                </div>","0","main_experiment_trial","1","museum_causal","causal_sequence","randomized","","","","",""
"","","","","","html-keyboard-response","151","755452","0.0-151.0","CA8C5FE2128547EB9FEDD9E18EE6A8DE","019cf9bd-a61b-7c13-9ce6-3b6bd34c5562","019cf99d-e445-78ae-88d0-91fe39b758eb","","null","
                <div class=""stimulus-container"">
                    <img src=""images/causal_sequence/museum_causal/museum_causal_6.png"" class=""exp-image"">
                    <div class=""question-area""></div> 
                </div>","null","","","","","","","","","",""
"","","","","","html-button-response","152","755767","0.0-152.0","CA8C5FE2128547EB9FEDD9E18EE6A8DE","019cf9bd-a61b-7c13-9ce6-3b6bd34c5562","019cf99d-e445-78ae-88d0-91fe39b758eb","","314","
                <div class=""stimulus-container"">
                    <img src=""images/causal_sequence/museum_causal/museum_causal_6.png"" class=""exp-image"">
                    <div class=""question-area"">
                        <p style=""font-size: 20px; font-weight: bold; margin: 0;"">Is there a person in this image?</p>
                    </div>
                </div>","0","main_experiment_trial","6","museum_causal","causal_sequence","randomized","","","","",""
"","","","","","html-keyboard-response","153","756776","0.0-153.0","CA8C5FE2128547EB9FEDD9E18EE6A8DE","019cf9bd-a61b-7c13-9ce6-3b6bd34c5562","019cf99d-e445-78ae-88d0-91fe39b758eb","","null","
                <div class=""stimulus-container"">
                    <img src=""images/causal_sequence/museum_causal/museum_causal_9.png"" class=""exp-image"">
                    <div class=""question-area""></div> 
                </div>","null","","","","","","","","","",""
"","","","","","html-button-response","154","757155","0.0-154.0","CA8C5FE2128547EB9FEDD9E18EE6A8DE","019cf9bd-a61b-7c13-9ce6-3b6bd34c5562","019cf99d-e445-78ae-88d0-91fe39b758eb","","379","
                <div class=""stimulus-container"">
                    <img src=""images/causal_sequence/museum_causal/museum_causal_9.png"" class=""exp-image"">
                    <div class=""question-area"">
                        <p style=""font-size: 20px; font-weight: bold; margin: 0;"">Is there a person in this image?</p>
                    </div>
                </div>","0","main_experiment_trial","9","museum_causal","causal_sequence","randomized","","","","",""
"","","","","","html-keyboard-response","155","758162","0.0-155.0","CA8C5FE2128547EB9FEDD9E18EE6A8DE","019cf9bd-a61b-7c13-9ce6-3b6bd34c5562","019cf99d-e445-78ae-88d0-91fe39b758eb","","null","
                <div class=""stimulus-container"">
                    <img src=""images/causal_sequence/museum_causal/museum_causal_3.png"" class=""exp-image"">
                    <div class=""question-area""></div> 
                </div>","null","","","","","","","","","",""
"","","","","","html-button-response","156","759317","0.0-156.0","CA8C5FE2128547EB9FEDD9E18EE6A8DE","019cf9bd-a61b-7c13-9ce6-3b6bd34c5562","019cf99d-e445-78ae-88d0-91fe39b758eb","","1154","
                <div class=""stimulus-container"">
                    <img src=""images/causal_sequence/museum_causal/museum_causal_3.png"" class=""exp-image"">
                    <div class=""question-area"">
                        <p style=""font-size: 20px; font-weight: bold; margin: 0;"">Is there a person in this image?</p>
                    </div>
                </div>","0","main_experiment_trial","3","museum_causal","causal_sequence","randomized","","","","",""
"","","","","","html-keyboard-response","157","760318","0.0-157.0","CA8C5FE2128547EB9FEDD9E18EE6A8DE","019cf9bd-a61b-7c13-9ce6-3b6bd34c5562","019cf99d-e445-78ae-88d0-91fe39b758eb","","null","
                <div class=""stimulus-container"">
                    <img src=""images/causal_sequence/museum_causal/museum_causal_8.png"" class=""exp-image"">
                    <div class=""question-area""></div> 
                </div>","null","","","","","","","","","",""
"","","","","","html-button-response","158","760998","0.0-158.0","CA8C5FE2128547EB9FEDD9E18EE6A8DE","019cf9bd-a61b-7c13-9ce6-3b6bd34c5562","019cf99d-e445-78ae-88d0-91fe39b758eb","","679","
                <div class=""stimulus-container"">
                    <img src=""images/causal_sequence/museum_causal/museum_causal_8.png"" class=""exp-image"">
                    <div class=""question-area"">
                        <p style=""font-size: 20px; font-weight: bold; margin: 0;"">Is there a person in this image?</p>
                    </div>
                </div>","0","main_experiment_trial","8","museum_causal","causal_sequence","randomized","","","","",""
"","","","","","html-keyboard-response","159","762009","0.0-159.0","CA8C5FE2128547EB9FEDD9E18EE6A8DE","019cf9bd-a61b-7c13-9ce6-3b6bd34c5562","019cf99d-e445-78ae-88d0-91fe39b758eb","","null","
                <div class=""stimulus-container"">
                    <img src=""images/causal_sequence/museum_causal/museum_causal_ten.png"" class=""exp-image"">
                    <div class=""question-area""></div> 
                </div>","null","","","","","","","","","",""
"","","","","","html-button-response","160","762473","0.0-160.0","CA8C5FE2128547EB9FEDD9E18EE6A8DE","019cf9bd-a61b-7c13-9ce6-3b6bd34c5562","019cf99d-e445-78ae-88d0-91fe39b758eb","","463","
                <div class=""stimulus-container"">
                    <img src=""images/causal_sequence/museum_causal/museum_causal_ten.png"" class=""exp-image"">
                    <div class=""question-area"">
                        <p style=""font-size: 20px; font-weight: bold; margin: 0;"">Is there a person in this image?</p>
                    </div>
                </div>","0","main_experiment_trial","ten","museum_causal","causal_sequence","randomized","","","","",""
"","","","","","html-keyboard-response","161","763474","0.0-161.0","CA8C5FE2128547EB9FEDD9E18EE6A8DE","019cf9bd-a61b-7c13-9ce6-3b6bd34c5562","019cf99d-e445-78ae-88d0-91fe39b758eb","","null","
                <div class=""stimulus-container"">
                    <img src=""images/causal_sequence/museum_causal/museum_causal_4.png"" class=""exp-image"">
                    <div class=""question-area""></div> 
                </div>","null","","","","","","","","","",""
"","","","","","html-button-response","162","763964","0.0-162.0","CA8C5FE2128547EB9FEDD9E18EE6A8DE","019cf9bd-a61b-7c13-9ce6-3b6bd34c5562","019cf99d-e445-78ae-88d0-91fe39b758eb","","490","
                <div class=""stimulus-container"">
                    <img src=""images/causal_sequence/museum_causal/museum_causal_4.png"" class=""exp-image"">
                    <div class=""question-area"">
                        <p style=""font-size: 20px; font-weight: bold; margin: 0;"">Is there a person in this image?</p>
                    </div>
                </div>","1","main_experiment_trial","4","museum_causal","causal_sequence","randomized","","","","",""
"","","","","","html-keyboard-response","163","768974","0.0-163.0","CA8C5FE2128547EB9FEDD9E18EE6A8DE","019cf9bd-a61b-7c13-9ce6-3b6bd34c5562","019cf99d-e445-78ae-88d0-91fe39b758eb","","null","<div style=""background-color: white; width: 100vw; height: 100vh;""></div>","null","","","","","","","","","",""
"","","","","","html-keyboard-response","164","769981","0.0-164.0","CA8C5FE2128547EB9FEDD9E18EE6A8DE","019cf9bd-a61b-7c13-9ce6-3b6bd34c5562","019cf99d-e445-78ae-88d0-91fe39b758eb","","null","
                <div class=""stimulus-container"">
                    <img src=""images/causal_sequence/coin_causal/coin_causal_1.png"" class=""exp-image"">
                    <div class=""question-area""></div> 
                </div>","null","","","","","","","","","",""
"","","","","","html-button-response","165","771205","0.0-165.0","CA8C5FE2128547EB9FEDD9E18EE6A8DE","019cf9bd-a61b-7c13-9ce6-3b6bd34c5562","019cf99d-e445-78ae-88d0-91fe39b758eb","","1223","
                <div class=""stimulus-container"">
                    <img src=""images/causal_sequence/coin_causal/coin_causal_1.png"" class=""exp-image"">
                    <div class=""question-area"">
                        <p style=""font-size: 20px; font-weight: bold; margin: 0;"">Is there a person in this image?</p>
                    </div>
                </div>","0","main_experiment_trial","1","coin_causal","causal_sequence","randomized","","","","",""
"","","","","","html-keyboard-response","166","772219","0.0-166.0","CA8C5FE2128547EB9FEDD9E18EE6A8DE","019cf9bd-a61b-7c13-9ce6-3b6bd34c5562","019cf99d-e445-78ae-88d0-91fe39b758eb","","null","
                <div class=""stimulus-container"">
                    <img src=""images/causal_sequence/coin_causal/coin_causal_9.png"" class=""exp-image"">
                    <div class=""question-area""></div> 
                </div>","null","","","","","","","","","",""
"","","","","","html-button-response","167","773049","0.0-167.0","CA8C5FE2128547EB9FEDD9E18EE6A8DE","019cf9bd-a61b-7c13-9ce6-3b6bd34c5562","019cf99d-e445-78ae-88d0-91fe39b758eb","","830","
                <div class=""stimulus-container"">
                    <img src=""images/causal_sequence/coin_causal/coin_causal_9.png"" class=""exp-image"">
                    <div class=""question-area"">
                        <p style=""font-size: 20px; font-weight: bold; margin: 0;"">Is there a person in this image?</p>
                    </div>
                </div>","0","main_experiment_trial","9","coin_causal","causal_sequence","randomized","","","","",""
"","","","","","html-keyboard-response","168","774057","0.0-168.0","CA8C5FE2128547EB9FEDD9E18EE6A8DE","019cf9bd-a61b-7c13-9ce6-3b6bd34c5562","019cf99d-e445-78ae-88d0-91fe39b758eb","","null","
                <div class=""stimulus-container"">
                    <img src=""images/causal_sequence/coin_causal/coin_causal_2.png"" class=""exp-image"">
                    <div class=""question-area""></div> 
                </div>","null","","","","","","","","","",""
"","","","","","html-button-response","169","774992","0.0-169.0","CA8C5FE2128547EB9FEDD9E18EE6A8DE","019cf9bd-a61b-7c13-9ce6-3b6bd34c5562","019cf99d-e445-78ae-88d0-91fe39b758eb","","935","
                <div class=""stimulus-container"">
                    <img src=""images/causal_sequence/coin_causal/coin_causal_2.png"" class=""exp-image"">
                    <div class=""question-area"">
                        <p style=""font-size: 20px; font-weight: bold; margin: 0;"">Is there a person in this image?</p>
                    </div>
                </div>","0","main_experiment_trial","2","coin_causal","causal_sequence","randomized","","","","",""
"","","","","","html-keyboard-response","170","776007","0.0-170.0","CA8C5FE2128547EB9FEDD9E18EE6A8DE","019cf9bd-a61b-7c13-9ce6-3b6bd34c5562","019cf99d-e445-78ae-88d0-91fe39b758eb","","null","
                <div class=""stimulus-container"">
                    <img src=""images/causal_sequence/coin_causal/coin_causal_5.png"" class=""exp-image"">
                    <div class=""question-area""></div> 
                </div>","null","","","","","","","","","",""
"","","","","","html-button-response","171","776765","0.0-171.0","CA8C5FE2128547EB9FEDD9E18EE6A8DE","019cf9bd-a61b-7c13-9ce6-3b6bd34c5562","019cf99d-e445-78ae-88d0-91fe39b758eb","","757","
                <div class=""stimulus-container"">
                    <img src=""images/causal_sequence/coin_causal/coin_causal_5.png"" class=""exp-image"">
                    <div class=""question-area"">
                        <p style=""font-size: 20px; font-weight: bold; margin: 0;"">Is there a person in this image?</p>
                    </div>
                </div>","0","main_experiment_trial","5","coin_causal","causal_sequence","randomized","","","","",""
"","","","","","html-keyboard-response","172","777780","0.0-172.0","CA8C5FE2128547EB9FEDD9E18EE6A8DE","019cf9bd-a61b-7c13-9ce6-3b6bd34c5562","019cf99d-e445-78ae-88d0-91fe39b758eb","","null","
                <div class=""stimulus-container"">
                    <img src=""images/causal_sequence/coin_causal/coin_causal_8.png"" class=""exp-image"">
                    <div class=""question-area""></div> 
                </div>","null","","","","","","","","","",""
"","","","","","html-button-response","173","778241","0.0-173.0","CA8C5FE2128547EB9FEDD9E18EE6A8DE","019cf9bd-a61b-7c13-9ce6-3b6bd34c5562","019cf99d-e445-78ae-88d0-91fe39b758eb","","460","
                <div class=""stimulus-container"">
                    <img src=""images/causal_sequence/coin_causal/coin_causal_8.png"" class=""exp-image"">
                    <div class=""question-area"">
                        <p style=""font-size: 20px; font-weight: bold; margin: 0;"">Is there a person in this image?</p>
                    </div>
                </div>","0","main_experiment_trial","8","coin_causal","causal_sequence","randomized","","","","",""
"","","","","","html-keyboard-response","174","779246","0.0-174.0","CA8C5FE2128547EB9FEDD9E18EE6A8DE","019cf9bd-a61b-7c13-9ce6-3b6bd34c5562","019cf99d-e445-78ae-88d0-91fe39b758eb","","null","
                <div class=""stimulus-container"">
                    <img src=""images/causal_sequence/coin_causal/coin_causal_7.png"" class=""exp-image"">
                    <div class=""question-area""></div> 
                </div>","null","","","","","","","","","",""
"","","","","","html-button-response","175","779789","0.0-175.0","CA8C5FE2128547EB9FEDD9E18EE6A8DE","019cf9bd-a61b-7c13-9ce6-3b6bd34c5562","019cf99d-e445-78ae-88d0-91fe39b758eb","","543","
                <div class=""stimulus-container"">
                    <img src=""images/causal_sequence/coin_causal/coin_causal_7.png"" class=""exp-image"">
                    <div class=""question-area"">
                        <p style=""font-size: 20px; font-weight: bold; margin: 0;"">Is there a person in this image?</p>
                    </div>
                </div>","1","main_experiment_trial","7","coin_causal","causal_sequence","randomized","","","","",""
"","","","","","html-keyboard-response","176","780790","0.0-176.0","CA8C5FE2128547EB9FEDD9E18EE6A8DE","019cf9bd-a61b-7c13-9ce6-3b6bd34c5562","019cf99d-e445-78ae-88d0-91fe39b758eb","","null","
                <div class=""stimulus-container"">
                    <img src=""images/causal_sequence/coin_causal/coin_causal_3.png"" class=""exp-image"">
                    <div class=""question-area""></div> 
                </div>","null","","","","","","","","","",""
"","","","","","html-button-response","177","781172","0.0-177.0","CA8C5FE2128547EB9FEDD9E18EE6A8DE","019cf9bd-a61b-7c13-9ce6-3b6bd34c5562","019cf99d-e445-78ae-88d0-91fe39b758eb","","382","
                <div class=""stimulus-container"">
                    <img src=""images/causal_sequence/coin_causal/coin_causal_3.png"" class=""exp-image"">
                    <div class=""question-area"">
