"success","timeout","failed_images","failed_audio","failed_video","trial_type","trial_index","time_elapsed","internal_node_id","subject_id","study_id","session_id","view_history","rt","stimulus","response","task","image_index","folder","sequence_type","valuable_image_index","reward_type","correct_choice","chosen_image_index","target_X"
"true","false","[]","[]","[]","preload","0","13879","0.0-0.0","EF8ADA1DD96D45ECB81A2E6825203E68","019cf7c3-bb37-74ae-8abb-44c4d1e9a337","019cf7bd-52b9-7f96-9138-a5960b400b31","","","","","","","","","","","","",""
"","","","","","instructions","1","18757","0.0-1.0","EF8ADA1DD96D45ECB81A2E6825203E68","019cf7c3-bb37-74ae-8abb-44c4d1e9a337","019cf7bd-52b9-7f96-9138-a5960b400b31","[{""page_index"":0,""viewing_time"":4875}]","4876","","","","","","","","","","",""
"","","","","","instructions","2","85493","0.0-2.0","EF8ADA1DD96D45ECB81A2E6825203E68","019cf7c3-bb37-74ae-8abb-44c4d1e9a337","019cf7bd-52b9-7f96-9138-a5960b400b31","[{""page_index"":0,""viewing_time"":66733}]","66735","","","","","","","","","","",""
"true","","","","","fullscreen","3","88309","0.0-3.0","EF8ADA1DD96D45ECB81A2E6825203E68","019cf7c3-bb37-74ae-8abb-44c4d1e9a337","019cf7bd-52b9-7f96-9138-a5960b400b31","","1746","","","","","","","","","","",""
"","","","","","instructions","4","95584","0.0-4.0","EF8ADA1DD96D45ECB81A2E6825203E68","019cf7c3-bb37-74ae-8abb-44c4d1e9a337","019cf7bd-52b9-7f96-9138-a5960b400b31","[{""page_index"":0,""viewing_time"":7275}]","7275","","","","","","","","","","",""
"","","","","","instructions","5","107176","0.0-5.0","EF8ADA1DD96D45ECB81A2E6825203E68","019cf7c3-bb37-74ae-8abb-44c4d1e9a337","019cf7bd-52b9-7f96-9138-a5960b400b31","[{""page_index"":0,""viewing_time"":11590}]","11591","","","","","","","","","","",""
"","","","","","html-keyboard-response","6","111191","0.0-6.0","EF8ADA1DD96D45ECB81A2E6825203E68","019cf7c3-bb37-74ae-8abb-44c4d1e9a337","019cf7bd-52b9-7f96-9138-a5960b400b31","","null","
                <div class=""stimulus-container"">
                    <img src=""images/instructions/movie_1.png"" class=""exp-image"">
                    <div class=""question-area""></div> 
                </div>","null","","","","","","","","",""
"","","","","","html-button-response","7","113818","0.0-7.0","EF8ADA1DD96D45ECB81A2E6825203E68","019cf7c3-bb37-74ae-8abb-44c4d1e9a337","019cf7bd-52b9-7f96-9138-a5960b400b31","","2624","
                <div class=""stimulus-container"">
                    <img src=""images/instructions/movie_1.png"" class=""exp-image"">
                    <div class=""question-area"">
                        <p style=""font-size: 20px; font-weight: bold; margin: 0;"">Was there a person in this image?</p>
                    </div>
                </div>","0","example_question","1","","","","","","",""
"","","","","","html-keyboard-response","8","117824","0.0-8.0","EF8ADA1DD96D45ECB81A2E6825203E68","019cf7c3-bb37-74ae-8abb-44c4d1e9a337","019cf7bd-52b9-7f96-9138-a5960b400b31","","null","
                <div class=""stimulus-container"">
                    <img src=""images/instructions/movie_2.png"" class=""exp-image"">
                    <div class=""question-area""></div> 
                </div>","null","","","","","","","","",""
"","","","","","html-button-response","9","118812","0.0-9.0","EF8ADA1DD96D45ECB81A2E6825203E68","019cf7c3-bb37-74ae-8abb-44c4d1e9a337","019cf7bd-52b9-7f96-9138-a5960b400b31","","987","
                <div class=""stimulus-container"">
                    <img src=""images/instructions/movie_2.png"" class=""exp-image"">
                    <div class=""question-area"">
                        <p style=""font-size: 20px; font-weight: bold; margin: 0;"">Was there a person in this image?</p>
                    </div>
                </div>","0","example_question","2","","","","","","",""
"","","","","","html-keyboard-response","10","122824","0.0-10.0","EF8ADA1DD96D45ECB81A2E6825203E68","019cf7c3-bb37-74ae-8abb-44c4d1e9a337","019cf7bd-52b9-7f96-9138-a5960b400b31","","null","
                <div class=""stimulus-container"">
                    <img src=""images/instructions/movie_3.png"" class=""exp-image"">
                    <div class=""question-area""></div> 
                </div>","null","","","","","","","","",""
"","","","","","html-button-response","11","123599","0.0-11.0","EF8ADA1DD96D45ECB81A2E6825203E68","019cf7c3-bb37-74ae-8abb-44c4d1e9a337","019cf7bd-52b9-7f96-9138-a5960b400b31","","774","
                <div class=""stimulus-container"">
                    <img src=""images/instructions/movie_3.png"" class=""exp-image"">
                    <div class=""question-area"">
                        <p style=""font-size: 20px; font-weight: bold; margin: 0;"">Was there a person in this image?</p>
                    </div>
                </div>","0","example_question","3","","","","","","",""
"","","","","","html-keyboard-response","12","127608","0.0-12.0","EF8ADA1DD96D45ECB81A2E6825203E68","019cf7c3-bb37-74ae-8abb-44c4d1e9a337","019cf7bd-52b9-7f96-9138-a5960b400b31","","null","
                <div class=""stimulus-container"">
                    <img src=""images/instructions/movie_4.png"" class=""exp-image"">
                    <div class=""question-area""></div> 
                </div>","null","","","","","","","","",""
"","","","","","html-button-response","13","128386","0.0-13.0","EF8ADA1DD96D45ECB81A2E6825203E68","019cf7c3-bb37-74ae-8abb-44c4d1e9a337","019cf7bd-52b9-7f96-9138-a5960b400b31","","776","
                <div class=""stimulus-container"">
                    <img src=""images/instructions/movie_4.png"" class=""exp-image"">
                    <div class=""question-area"">
                        <p style=""font-size: 20px; font-weight: bold; margin: 0;"">Was there a person in this image?</p>
                    </div>
                </div>","0","example_question","4","","","","","","",""
"","","","","","instructions","14","130740","0.0-14.0","EF8ADA1DD96D45ECB81A2E6825203E68","019cf7c3-bb37-74ae-8abb-44c4d1e9a337","019cf7bd-52b9-7f96-9138-a5960b400b31","[{""page_index"":0,""viewing_time"":2350}]","2351","","","","","","","","","","",""
"","","","","","instructions","15","138339","0.0-15.0","EF8ADA1DD96D45ECB81A2E6825203E68","019cf7c3-bb37-74ae-8abb-44c4d1e9a337","019cf7bd-52b9-7f96-9138-a5960b400b31","[{""page_index"":0,""viewing_time"":7598}]","7599","","","","","","","","","","",""
"","","","","","html-keyboard-response","16","139342","0.0-16.0","EF8ADA1DD96D45ECB81A2E6825203E68","019cf7c3-bb37-74ae-8abb-44c4d1e9a337","019cf7bd-52b9-7f96-9138-a5960b400b31","","null","<div style=""background-color: white; width: 100vw; height: 100vh;""></div>","null","","","","","","","","",""
"","","","","","html-keyboard-response","17","144343","0.0-17.0","EF8ADA1DD96D45ECB81A2E6825203E68","019cf7c3-bb37-74ae-8abb-44c4d1e9a337","019cf7bd-52b9-7f96-9138-a5960b400b31","","null","
                <div class=""stimulus-container"">
                    <img src=""images/schematic_sequence/restaurant_scheme/restaurant_scheme_1.png"" class=""exp-image"">
                    <div class=""question-area""></div> 
                </div>","null","","","","","","","","",""
"","","","","","html-button-response","18","145268","0.0-18.0","EF8ADA1DD96D45ECB81A2E6825203E68","019cf7c3-bb37-74ae-8abb-44c4d1e9a337","019cf7bd-52b9-7f96-9138-a5960b400b31","","924","
                <div class=""stimulus-container"">
                    <img src=""images/schematic_sequence/restaurant_scheme/restaurant_scheme_1.png"" class=""exp-image"">
                    <div class=""question-area"">
                        <p style=""font-size: 20px; font-weight: bold; margin: 0;"">Is there a person in this image?</p>
                    </div>
                </div>","0","main_experiment_trial","1","restaurant_scheme","schematic_sequence","","","","",""
"","","","","","html-keyboard-response","19","150274","0.0-19.0","EF8ADA1DD96D45ECB81A2E6825203E68","019cf7c3-bb37-74ae-8abb-44c4d1e9a337","019cf7bd-52b9-7f96-9138-a5960b400b31","","null","
                <div class=""stimulus-container"">
                    <img src=""images/schematic_sequence/restaurant_scheme/restaurant_scheme_2.png"" class=""exp-image"">
                    <div class=""question-area""></div> 
                </div>","null","","","","","","","","",""
"","","","","","html-button-response","20","150844","0.0-20.0","EF8ADA1DD96D45ECB81A2E6825203E68","019cf7c3-bb37-74ae-8abb-44c4d1e9a337","019cf7bd-52b9-7f96-9138-a5960b400b31","","568","
                <div class=""stimulus-container"">
                    <img src=""images/schematic_sequence/restaurant_scheme/restaurant_scheme_2.png"" class=""exp-image"">
                    <div class=""question-area"">
                        <p style=""font-size: 20px; font-weight: bold; margin: 0;"">Is there a person in this image?</p>
                    </div>
                </div>","1","main_experiment_trial","2","restaurant_scheme","schematic_sequence","","","","",""
"","","","","","html-keyboard-response","21","155860","0.0-21.0","EF8ADA1DD96D45ECB81A2E6825203E68","019cf7c3-bb37-74ae-8abb-44c4d1e9a337","019cf7bd-52b9-7f96-9138-a5960b400b31","","null","
                <div class=""stimulus-container"">
                    <img src=""images/schematic_sequence/restaurant_scheme/restaurant_scheme_3.png"" class=""exp-image"">
                    <div class=""question-area""></div> 
                </div>","null","","","","","","","","",""
"","","","","","html-button-response","22","156267","0.0-22.0","EF8ADA1DD96D45ECB81A2E6825203E68","019cf7c3-bb37-74ae-8abb-44c4d1e9a337","019cf7bd-52b9-7f96-9138-a5960b400b31","","406","
                <div class=""stimulus-container"">
                    <img src=""images/schematic_sequence/restaurant_scheme/restaurant_scheme_3.png"" class=""exp-image"">
                    <div class=""question-area"">
                        <p style=""font-size: 20px; font-weight: bold; margin: 0;"">Is there a person in this image?</p>
                    </div>
                </div>","1","main_experiment_trial","3","restaurant_scheme","schematic_sequence","","","","",""
"","","","","","html-keyboard-response","23","161274","0.0-23.0","EF8ADA1DD96D45ECB81A2E6825203E68","019cf7c3-bb37-74ae-8abb-44c4d1e9a337","019cf7bd-52b9-7f96-9138-a5960b400b31","","null","
                <div class=""stimulus-container"">
                    <img src=""images/schematic_sequence/restaurant_scheme/restaurant_scheme_4.png"" class=""exp-image"">
                    <div class=""question-area""></div> 
                </div>","null","","","","","","","","",""
"","","","","","html-button-response","24","161738","0.0-24.0","EF8ADA1DD96D45ECB81A2E6825203E68","019cf7c3-bb37-74ae-8abb-44c4d1e9a337","019cf7bd-52b9-7f96-9138-a5960b400b31","","463","
                <div class=""stimulus-container"">
                    <img src=""images/schematic_sequence/restaurant_scheme/restaurant_scheme_4.png"" class=""exp-image"">
                    <div class=""question-area"">
                        <p style=""font-size: 20px; font-weight: bold; margin: 0;"">Is there a person in this image?</p>
                    </div>
                </div>","0","main_experiment_trial","4","restaurant_scheme","schematic_sequence","","","","",""
"","","","","","html-keyboard-response","25","166742","0.0-25.0","EF8ADA1DD96D45ECB81A2E6825203E68","019cf7c3-bb37-74ae-8abb-44c4d1e9a337","019cf7bd-52b9-7f96-9138-a5960b400b31","","null","
                <div class=""stimulus-container"">
                    <img src=""images/schematic_sequence/restaurant_scheme/restaurant_scheme_5.png"" class=""exp-image"">
                    <div class=""question-area""></div> 
                </div>","null","","","","","","","","",""
"","","","","","html-button-response","26","167212","0.0-26.0","EF8ADA1DD96D45ECB81A2E6825203E68","019cf7c3-bb37-74ae-8abb-44c4d1e9a337","019cf7bd-52b9-7f96-9138-a5960b400b31","","469","
                <div class=""stimulus-container"">
                    <img src=""images/schematic_sequence/restaurant_scheme/restaurant_scheme_5.png"" class=""exp-image"">
                    <div class=""question-area"">
                        <p style=""font-size: 20px; font-weight: bold; margin: 0;"">Is there a person in this image?</p>
                    </div>
                </div>","0","main_experiment_trial","5","restaurant_scheme","schematic_sequence","","","","",""
"","","","","","html-keyboard-response","27","172226","0.0-27.0","EF8ADA1DD96D45ECB81A2E6825203E68","019cf7c3-bb37-74ae-8abb-44c4d1e9a337","019cf7bd-52b9-7f96-9138-a5960b400b31","","null","
                <div class=""stimulus-container"">
                    <img src=""images/schematic_sequence/restaurant_scheme/restaurant_scheme_6.png"" class=""exp-image"">
                    <div class=""question-area""></div> 
                </div>","null","","","","","","","","",""
"","","","","","html-button-response","28","172712","0.0-28.0","EF8ADA1DD96D45ECB81A2E6825203E68","019cf7c3-bb37-74ae-8abb-44c4d1e9a337","019cf7bd-52b9-7f96-9138-a5960b400b31","","484","
                <div class=""stimulus-container"">
                    <img src=""images/schematic_sequence/restaurant_scheme/restaurant_scheme_6.png"" class=""exp-image"">
                    <div class=""question-area"">
                        <p style=""font-size: 20px; font-weight: bold; margin: 0;"">Is there a person in this image?</p>
                    </div>
                </div>","1","main_experiment_trial","6","restaurant_scheme","schematic_sequence","","","","",""
"","","","","","html-keyboard-response","29","177726","0.0-29.0","EF8ADA1DD96D45ECB81A2E6825203E68","019cf7c3-bb37-74ae-8abb-44c4d1e9a337","019cf7bd-52b9-7f96-9138-a5960b400b31","","null","
                <div class=""stimulus-container"">
                    <img src=""images/schematic_sequence/restaurant_scheme/restaurant_scheme_7.png"" class=""exp-image"">
                    <div class=""question-area""></div> 
                </div>","null","","","","","","","","",""
"","","","","","html-button-response","30","178240","0.0-30.0","EF8ADA1DD96D45ECB81A2E6825203E68","019cf7c3-bb37-74ae-8abb-44c4d1e9a337","019cf7bd-52b9-7f96-9138-a5960b400b31","","512","
                <div class=""stimulus-container"">
                    <img src=""images/schematic_sequence/restaurant_scheme/restaurant_scheme_7.png"" class=""exp-image"">
                    <div class=""question-area"">
                        <p style=""font-size: 20px; font-weight: bold; margin: 0;"">Is there a person in this image?</p>
                    </div>
                </div>","1","main_experiment_trial","7","restaurant_scheme","schematic_sequence","","","","",""
"","","","","","html-keyboard-response","31","183243","0.0-31.0","EF8ADA1DD96D45ECB81A2E6825203E68","019cf7c3-bb37-74ae-8abb-44c4d1e9a337","019cf7bd-52b9-7f96-9138-a5960b400b31","","null","
                <div class=""stimulus-container"">
                    <img src=""images/schematic_sequence/restaurant_scheme/restaurant_scheme_8.png"" class=""exp-image"">
                    <div class=""question-area""></div> 
                </div>","null","","","","","","","","",""
"","","","","","html-button-response","32","183759","0.0-32.0","EF8ADA1DD96D45ECB81A2E6825203E68","019cf7c3-bb37-74ae-8abb-44c4d1e9a337","019cf7bd-52b9-7f96-9138-a5960b400b31","","515","
                <div class=""stimulus-container"">
                    <img src=""images/schematic_sequence/restaurant_scheme/restaurant_scheme_8.png"" class=""exp-image"">
                    <div class=""question-area"">
                        <p style=""font-size: 20px; font-weight: bold; margin: 0;"">Is there a person in this image?</p>
                    </div>
                </div>","0","main_experiment_trial","8","restaurant_scheme","schematic_sequence","","","","",""
"","","","","","html-keyboard-response","33","188761","0.0-33.0","EF8ADA1DD96D45ECB81A2E6825203E68","019cf7c3-bb37-74ae-8abb-44c4d1e9a337","019cf7bd-52b9-7f96-9138-a5960b400b31","","null","
                <div class=""stimulus-container"">
                    <img src=""images/schematic_sequence/restaurant_scheme/restaurant_scheme_9.png"" class=""exp-image"">
                    <div class=""question-area""></div> 
                </div>","null","","","","","","","","",""
"","","","","","html-button-response","34","189243","0.0-34.0","EF8ADA1DD96D45ECB81A2E6825203E68","019cf7c3-bb37-74ae-8abb-44c4d1e9a337","019cf7bd-52b9-7f96-9138-a5960b400b31","","481","
                <div class=""stimulus-container"">
                    <img src=""images/schematic_sequence/restaurant_scheme/restaurant_scheme_9.png"" class=""exp-image"">
                    <div class=""question-area"">
                        <p style=""font-size: 20px; font-weight: bold; margin: 0;"">Is there a person in this image?</p>
                    </div>
                </div>","0","main_experiment_trial","9","restaurant_scheme","schematic_sequence","","","","",""
"","","","","","html-keyboard-response","35","194245","0.0-35.0","EF8ADA1DD96D45ECB81A2E6825203E68","019cf7c3-bb37-74ae-8abb-44c4d1e9a337","019cf7bd-52b9-7f96-9138-a5960b400b31","","null","
                <div class=""stimulus-container"">
                    <img src=""images/schematic_sequence/restaurant_scheme/restaurant_scheme_ten.png"" class=""exp-image"">
                    <div class=""question-area""></div> 
                </div>","null","","","","","","","","",""
"","","","","","html-button-response","36","194683","0.0-36.0","EF8ADA1DD96D45ECB81A2E6825203E68","019cf7c3-bb37-74ae-8abb-44c4d1e9a337","019cf7bd-52b9-7f96-9138-a5960b400b31","","438","
                <div class=""stimulus-container"">
                    <img src=""images/schematic_sequence/restaurant_scheme/restaurant_scheme_ten.png"" class=""exp-image"">
                    <div class=""question-area"">
                        <p style=""font-size: 20px; font-weight: bold; margin: 0;"">Is there a person in this image?</p>
                    </div>
                </div>","0","main_experiment_trial","ten","restaurant_scheme","schematic_sequence","","","","",""
"","","","","","html-keyboard-response","37","195694","0.0-37.0","EF8ADA1DD96D45ECB81A2E6825203E68","019cf7c3-bb37-74ae-8abb-44c4d1e9a337","019cf7bd-52b9-7f96-9138-a5960b400b31","","null","<div style=""background-color: white; width: 100vw; height: 100vh;""></div>","null","","","","","","","","",""
"","","","","","html-keyboard-response","38","200710","0.0-38.0","EF8ADA1DD96D45ECB81A2E6825203E68","019cf7c3-bb37-74ae-8abb-44c4d1e9a337","019cf7bd-52b9-7f96-9138-a5960b400b31","","null","
                <div class=""stimulus-container"">
                    <img src=""images/semantic_sequence/housework_semantic/housework_semantic_1.png"" class=""exp-image"">
                    <div class=""question-area""></div> 
                </div>","null","","","","","","","","",""
"","","","","","html-button-response","39","201212","0.0-39.0","EF8ADA1DD96D45ECB81A2E6825203E68","019cf7c3-bb37-74ae-8abb-44c4d1e9a337","019cf7bd-52b9-7f96-9138-a5960b400b31","","501","
                <div class=""stimulus-container"">
                    <img src=""images/semantic_sequence/housework_semantic/housework_semantic_1.png"" class=""exp-image"">
                    <div class=""question-area"">
                        <p style=""font-size: 20px; font-weight: bold; margin: 0;"">Is there a person in this image?</p>
                    </div>
                </div>","0","main_experiment_trial","1","housework_semantic","semantic_sequence","","","","",""
"","","","","","html-keyboard-response","40","206227","0.0-40.0","EF8ADA1DD96D45ECB81A2E6825203E68","019cf7c3-bb37-74ae-8abb-44c4d1e9a337","019cf7bd-52b9-7f96-9138-a5960b400b31","","null","
                <div class=""stimulus-container"">
                    <img src=""images/semantic_sequence/housework_semantic/housework_semantic_2.png"" class=""exp-image"">
                    <div class=""question-area""></div> 
                </div>","null","","","","","","","","",""
"","","","","","html-button-response","41","207033","0.0-41.0","EF8ADA1DD96D45ECB81A2E6825203E68","019cf7c3-bb37-74ae-8abb-44c4d1e9a337","019cf7bd-52b9-7f96-9138-a5960b400b31","","804","
                <div class=""stimulus-container"">
                    <img src=""images/semantic_sequence/housework_semantic/housework_semantic_2.png"" class=""exp-image"">
                    <div class=""question-area"">
                        <p style=""font-size: 20px; font-weight: bold; margin: 0;"">Is there a person in this image?</p>
                    </div>
                </div>","0","main_experiment_trial","2","housework_semantic","semantic_sequence","","","","",""
"","","","","","html-keyboard-response","42","212045","0.0-42.0","EF8ADA1DD96D45ECB81A2E6825203E68","019cf7c3-bb37-74ae-8abb-44c4d1e9a337","019cf7bd-52b9-7f96-9138-a5960b400b31","","null","
                <div class=""stimulus-container"">
                    <img src=""images/semantic_sequence/housework_semantic/housework_semantic_3.png"" class=""exp-image"">
                    <div class=""question-area""></div> 
                </div>","null","","","","","","","","",""
"","","","","","html-button-response","43","212499","0.0-43.0","EF8ADA1DD96D45ECB81A2E6825203E68","019cf7c3-bb37-74ae-8abb-44c4d1e9a337","019cf7bd-52b9-7f96-9138-a5960b400b31","","453","
                <div class=""stimulus-container"">
                    <img src=""images/semantic_sequence/housework_semantic/housework_semantic_3.png"" class=""exp-image"">
                    <div class=""question-area"">
                        <p style=""font-size: 20px; font-weight: bold; margin: 0;"">Is there a person in this image?</p>
                    </div>
                </div>","0","main_experiment_trial","3","housework_semantic","semantic_sequence","","","","",""
"","","","","","html-keyboard-response","44","217510","0.0-44.0","EF8ADA1DD96D45ECB81A2E6825203E68","019cf7c3-bb37-74ae-8abb-44c4d1e9a337","019cf7bd-52b9-7f96-9138-a5960b400b31","","null","
                <div class=""stimulus-container"">
                    <img src=""images/semantic_sequence/housework_semantic/housework_semantic_4.png"" class=""exp-image"">
                    <div class=""question-area""></div> 
                </div>","null","","","","","","","","",""
"","","","","","html-button-response","45","219148","0.0-45.0","EF8ADA1DD96D45ECB81A2E6825203E68","019cf7c3-bb37-74ae-8abb-44c4d1e9a337","019cf7bd-52b9-7f96-9138-a5960b400b31","","1637","
                <div class=""stimulus-container"">
                    <img src=""images/semantic_sequence/housework_semantic/housework_semantic_4.png"" class=""exp-image"">
                    <div class=""question-area"">
                        <p style=""font-size: 20px; font-weight: bold; margin: 0;"">Is there a person in this image?</p>
                    </div>
                </div>","0","main_experiment_trial","4","housework_semantic","semantic_sequence","","","","",""
"","","","","","html-keyboard-response","46","224161","0.0-46.0","EF8ADA1DD96D45ECB81A2E6825203E68","019cf7c3-bb37-74ae-8abb-44c4d1e9a337","019cf7bd-52b9-7f96-9138-a5960b400b31","","null","
                <div class=""stimulus-container"">
                    <img src=""images/semantic_sequence/housework_semantic/housework_semantic_5.png"" class=""exp-image"">
                    <div class=""question-area""></div> 
                </div>","null","","","","","","","","",""
"","","","","","html-button-response","47","225657","0.0-47.0","EF8ADA1DD96D45ECB81A2E6825203E68","019cf7c3-bb37-74ae-8abb-44c4d1e9a337","019cf7bd-52b9-7f96-9138-a5960b400b31","","1495","
                <div class=""stimulus-container"">
                    <img src=""images/semantic_sequence/housework_semantic/housework_semantic_5.png"" class=""exp-image"">
                    <div class=""question-area"">
                        <p style=""font-size: 20px; font-weight: bold; margin: 0;"">Is there a person in this image?</p>
                    </div>
                </div>","0","main_experiment_trial","5","housework_semantic","semantic_sequence","","","","",""
"","","","","","html-keyboard-response","48","230660","0.0-48.0","EF8ADA1DD96D45ECB81A2E6825203E68","019cf7c3-bb37-74ae-8abb-44c4d1e9a337","019cf7bd-52b9-7f96-9138-a5960b400b31","","null","
                <div class=""stimulus-container"">
                    <img src=""images/semantic_sequence/housework_semantic/housework_semantic_6.png"" class=""exp-image"">
                    <div class=""question-area""></div> 
                </div>","null","","","","","","","","",""
"","","","","","html-button-response","49","231824","0.0-49.0","EF8ADA1DD96D45ECB81A2E6825203E68","019cf7c3-bb37-74ae-8abb-44c4d1e9a337","019cf7bd-52b9-7f96-9138-a5960b400b31","","1163","
                <div class=""stimulus-container"">
                    <img src=""images/semantic_sequence/housework_semantic/housework_semantic_6.png"" class=""exp-image"">
                    <div class=""question-area"">
                        <p style=""font-size: 20px; font-weight: bold; margin: 0;"">Is there a person in this image?</p>
                    </div>
                </div>","0","main_experiment_trial","6","housework_semantic","semantic_sequence","","","","",""
"","","","","","html-keyboard-response","50","236827","0.0-50.0","EF8ADA1DD96D45ECB81A2E6825203E68","019cf7c3-bb37-74ae-8abb-44c4d1e9a337","019cf7bd-52b9-7f96-9138-a5960b400b31","","null","
                <div class=""stimulus-container"">
                    <img src=""images/semantic_sequence/housework_semantic/housework_semantic_7.png"" class=""exp-image"">
                    <div class=""question-area""></div> 
                </div>","null","","","","","","","","",""
"","","","","","html-button-response","51","238218","0.0-51.0","EF8ADA1DD96D45ECB81A2E6825203E68","019cf7c3-bb37-74ae-8abb-44c4d1e9a337","019cf7bd-52b9-7f96-9138-a5960b400b31","","1390","
                <div class=""stimulus-container"">
                    <img src=""images/semantic_sequence/housework_semantic/housework_semantic_7.png"" class=""exp-image"">
                    <div class=""question-area"">
                        <p style=""font-size: 20px; font-weight: bold; margin: 0;"">Is there a person in this image?</p>
                    </div>
                </div>","0","main_experiment_trial","7","housework_semantic","semantic_sequence","","","","",""
"","","","","","html-keyboard-response","52","243227","0.0-52.0","EF8ADA1DD96D45ECB81A2E6825203E68","019cf7c3-bb37-74ae-8abb-44c4d1e9a337","019cf7bd-52b9-7f96-9138-a5960b400b31","","null","
                <div class=""stimulus-container"">
                    <img src=""images/semantic_sequence/housework_semantic/housework_semantic_8.png"" class=""exp-image"">
                    <div class=""question-area""></div> 
                </div>","null","","","","","","","","",""
"","","","","","html-button-response","53","244099","0.0-53.0","EF8ADA1DD96D45ECB81A2E6825203E68","019cf7c3-bb37-74ae-8abb-44c4d1e9a337","019cf7bd-52b9-7f96-9138-a5960b400b31","","871","
                <div class=""stimulus-container"">
                    <img src=""images/semantic_sequence/housework_semantic/housework_semantic_8.png"" class=""exp-image"">
                    <div class=""question-area"">
                        <p style=""font-size: 20px; font-weight: bold; margin: 0;"">Is there a person in this image?</p>
                    </div>
                </div>","0","main_experiment_trial","8","housework_semantic","semantic_sequence","","","","",""
"","","","","","html-keyboard-response","54","249111","0.0-54.0","EF8ADA1DD96D45ECB81A2E6825203E68","019cf7c3-bb37-74ae-8abb-44c4d1e9a337","019cf7bd-52b9-7f96-9138-a5960b400b31","","null","
                <div class=""stimulus-container"">
                    <img src=""images/semantic_sequence/housework_semantic/housework_semantic_9.png"" class=""exp-image"">
                    <div class=""question-area""></div> 
                </div>","null","","","","","","","","",""
"","","","","","html-button-response","55","249703","0.0-55.0","EF8ADA1DD96D45ECB81A2E6825203E68","019cf7c3-bb37-74ae-8abb-44c4d1e9a337","019cf7bd-52b9-7f96-9138-a5960b400b31","","591","
                <div class=""stimulus-container"">
                    <img src=""images/semantic_sequence/housework_semantic/housework_semantic_9.png"" class=""exp-image"">
                    <div class=""question-area"">
                        <p style=""font-size: 20px; font-weight: bold; margin: 0;"">Is there a person in this image?</p>
                    </div>
                </div>","0","main_experiment_trial","9","housework_semantic","semantic_sequence","","","","",""
"","","","","","html-keyboard-response","56","254712","0.0-56.0","EF8ADA1DD96D45ECB81A2E6825203E68","019cf7c3-bb37-74ae-8abb-44c4d1e9a337","019cf7bd-52b9-7f96-9138-a5960b400b31","","null","
                <div class=""stimulus-container"">
                    <img src=""images/semantic_sequence/housework_semantic/housework_semantic_ten.png"" class=""exp-image"">
                    <div class=""question-area""></div> 
                </div>","null","","","","","","","","",""
"","","","","","html-button-response","57","255395","0.0-57.0","EF8ADA1DD96D45ECB81A2E6825203E68","019cf7c3-bb37-74ae-8abb-44c4d1e9a337","019cf7bd-52b9-7f96-9138-a5960b400b31","","681","
                <div class=""stimulus-container"">
                    <img src=""images/semantic_sequence/housework_semantic/housework_semantic_ten.png"" class=""exp-image"">
                    <div class=""question-area"">
                        <p style=""font-size: 20px; font-weight: bold; margin: 0;"">Is there a person in this image?</p>
                    </div>
                </div>","0","main_experiment_trial","ten","housework_semantic","semantic_sequence","","","","",""
"","","","","","html-keyboard-response","58","256396","0.0-58.0","EF8ADA1DD96D45ECB81A2E6825203E68","019cf7c3-bb37-74ae-8abb-44c4d1e9a337","019cf7bd-52b9-7f96-9138-a5960b400b31","","null","<div style=""background-color: white; width: 100vw; height: 100vh;""></div>","null","","","","","","","","",""
"","","","","","html-keyboard-response","59","261412","0.0-59.0","EF8ADA1DD96D45ECB81A2E6825203E68","019cf7c3-bb37-74ae-8abb-44c4d1e9a337","019cf7bd-52b9-7f96-9138-a5960b400b31","","null","
                <div class=""stimulus-container"">
                    <img src=""images/semantic_sequence/kitchen_operations_semantic/kitchen_operations_semantic_1.png"" class=""exp-image"">
                    <div class=""question-area""></div> 
                </div>","null","","","","","","","","",""
"","","","","","html-button-response","60","262018","0.0-60.0","EF8ADA1DD96D45ECB81A2E6825203E68","019cf7c3-bb37-74ae-8abb-44c4d1e9a337","019cf7bd-52b9-7f96-9138-a5960b400b31","","605","
                <div class=""stimulus-container"">
                    <img src=""images/semantic_sequence/kitchen_operations_semantic/kitchen_operations_semantic_1.png"" class=""exp-image"">
                    <div class=""question-area"">
                        <p style=""font-size: 20px; font-weight: bold; margin: 0;"">Is there a person in this image?</p>
                    </div>
                </div>","0","main_experiment_trial","1","kitchen_operations_semantic","semantic_sequence","","","","",""
"","","","","","html-keyboard-response","61","267028","0.0-61.0","EF8ADA1DD96D45ECB81A2E6825203E68","019cf7c3-bb37-74ae-8abb-44c4d1e9a337","019cf7bd-52b9-7f96-9138-a5960b400b31","","null","
                <div class=""stimulus-container"">
                    <img src=""images/semantic_sequence/kitchen_operations_semantic/kitchen_operations_semantic_2.png"" class=""exp-image"">
                    <div class=""question-area""></div> 
                </div>","null","","","","","","","","",""
"","","","","","html-button-response","62","267489","0.0-62.0","EF8ADA1DD96D45ECB81A2E6825203E68","019cf7c3-bb37-74ae-8abb-44c4d1e9a337","019cf7bd-52b9-7f96-9138-a5960b400b31","","460","
                <div class=""stimulus-container"">
                    <img src=""images/semantic_sequence/kitchen_operations_semantic/kitchen_operations_semantic_2.png"" class=""exp-image"">
                    <div class=""question-area"">
                        <p style=""font-size: 20px; font-weight: bold; margin: 0;"">Is there a person in this image?</p>
                    </div>
                </div>","0","main_experiment_trial","2","kitchen_operations_semantic","semantic_sequence","","","","",""
"","","","","","html-keyboard-response","63","272495","0.0-63.0","EF8ADA1DD96D45ECB81A2E6825203E68","019cf7c3-bb37-74ae-8abb-44c4d1e9a337","019cf7bd-52b9-7f96-9138-a5960b400b31","","null","
                <div class=""stimulus-container"">
                    <img src=""images/semantic_sequence/kitchen_operations_semantic/kitchen_operations_semantic_3.png"" class=""exp-image"">
                    <div class=""question-area""></div> 
                </div>","null","","","","","","","","",""
"","","","","","html-button-response","64","273031","0.0-64.0","EF8ADA1DD96D45ECB81A2E6825203E68","019cf7c3-bb37-74ae-8abb-44c4d1e9a337","019cf7bd-52b9-7f96-9138-a5960b400b31","","534","
                <div class=""stimulus-container"">
                    <img src=""images/semantic_sequence/kitchen_operations_semantic/kitchen_operations_semantic_3.png"" class=""exp-image"">
                    <div class=""question-area"">
                        <p style=""font-size: 20px; font-weight: bold; margin: 0;"">Is there a person in this image?</p>
                    </div>
                </div>","0","main_experiment_trial","3","kitchen_operations_semantic","semantic_sequence","","","","",""
"","","","","","html-keyboard-response","65","278033","0.0-65.0","EF8ADA1DD96D45ECB81A2E6825203E68","019cf7c3-bb37-74ae-8abb-44c4d1e9a337","019cf7bd-52b9-7f96-9138-a5960b400b31","","null","
                <div class=""stimulus-container"">
                    <img src=""images/semantic_sequence/kitchen_operations_semantic/kitchen_operations_semantic_4.png"" class=""exp-image"">
                    <div class=""question-area""></div> 
                </div>","null","","","","","","","","",""
"","","","","","html-button-response","66","278603","0.0-66.0","EF8ADA1DD96D45ECB81A2E6825203E68","019cf7c3-bb37-74ae-8abb-44c4d1e9a337","019cf7bd-52b9-7f96-9138-a5960b400b31","","569","
                <div class=""stimulus-container"">
                    <img src=""images/semantic_sequence/kitchen_operations_semantic/kitchen_operations_semantic_4.png"" class=""exp-image"">
                    <div class=""question-area"">
                        <p style=""font-size: 20px; font-weight: bold; margin: 0;"">Is there a person in this image?</p>
                    </div>
                </div>","0","main_experiment_trial","4","kitchen_operations_semantic","semantic_sequence","","","","",""
"","","","","","html-keyboard-response","67","283612","0.0-67.0","EF8ADA1DD96D45ECB81A2E6825203E68","019cf7c3-bb37-74ae-8abb-44c4d1e9a337","019cf7bd-52b9-7f96-9138-a5960b400b31","","null","
                <div class=""stimulus-container"">
                    <img src=""images/semantic_sequence/kitchen_operations_semantic/kitchen_operations_semantic_5.png"" class=""exp-image"">
                    <div class=""question-area""></div> 
                </div>","null","","","","","","","","",""
"","","","","","html-button-response","68","284256","0.0-68.0","EF8ADA1DD96D45ECB81A2E6825203E68","019cf7c3-bb37-74ae-8abb-44c4d1e9a337","019cf7bd-52b9-7f96-9138-a5960b400b31","","643","
                <div class=""stimulus-container"">
                    <img src=""images/semantic_sequence/kitchen_operations_semantic/kitchen_operations_semantic_5.png"" class=""exp-image"">
                    <div class=""question-area"">
                        <p style=""font-size: 20px; font-weight: bold; margin: 0;"">Is there a person in this image?</p>
                    </div>
                </div>","0","main_experiment_trial","5","kitchen_operations_semantic","semantic_sequence","","","","",""
"","","","","","html-keyboard-response","69","289263","0.0-69.0","EF8ADA1DD96D45ECB81A2E6825203E68","019cf7c3-bb37-74ae-8abb-44c4d1e9a337","019cf7bd-52b9-7f96-9138-a5960b400b31","","null","
                <div class=""stimulus-container"">
                    <img src=""images/semantic_sequence/kitchen_operations_semantic/kitchen_operations_semantic_6.png"" class=""exp-image"">
                    <div class=""question-area""></div> 
                </div>","null","","","","","","","","",""
"","","","","","html-button-response","70","289776","0.0-70.0","EF8ADA1DD96D45ECB81A2E6825203E68","019cf7c3-bb37-74ae-8abb-44c4d1e9a337","019cf7bd-52b9-7f96-9138-a5960b400b31","","512","
                <div class=""stimulus-container"">
                    <img src=""images/semantic_sequence/kitchen_operations_semantic/kitchen_operations_semantic_6.png"" class=""exp-image"">
                    <div class=""question-area"">
                        <p style=""font-size: 20px; font-weight: bold; margin: 0;"">Is there a person in this image?</p>
                    </div>
                </div>","0","main_experiment_trial","6","kitchen_operations_semantic","semantic_sequence","","","","",""
"","","","","","html-keyboard-response","71","294779","0.0-71.0","EF8ADA1DD96D45ECB81A2E6825203E68","019cf7c3-bb37-74ae-8abb-44c4d1e9a337","019cf7bd-52b9-7f96-9138-a5960b400b31","","null","
                <div class=""stimulus-container"">
                    <img src=""images/semantic_sequence/kitchen_operations_semantic/kitchen_operations_semantic_7.png"" class=""exp-image"">
                    <div class=""question-area""></div> 
                </div>","null","","","","","","","","",""
"","","","","","html-button-response","72","295267","0.0-72.0","EF8ADA1DD96D45ECB81A2E6825203E68","019cf7c3-bb37-74ae-8abb-44c4d1e9a337","019cf7bd-52b9-7f96-9138-a5960b400b31","","486","
                <div class=""stimulus-container"">
                    <img src=""images/semantic_sequence/kitchen_operations_semantic/kitchen_operations_semantic_7.png"" class=""exp-image"">
                    <div class=""question-area"">
                        <p style=""font-size: 20px; font-weight: bold; margin: 0;"">Is there a person in this image?</p>
                    </div>
                </div>","0","main_experiment_trial","7","kitchen_operations_semantic","semantic_sequence","","","","",""
"","","","","","html-keyboard-response","73","300280","0.0-73.0","EF8ADA1DD96D45ECB81A2E6825203E68","019cf7c3-bb37-74ae-8abb-44c4d1e9a337","019cf7bd-52b9-7f96-9138-a5960b400b31","","null","
                <div class=""stimulus-container"">
                    <img src=""images/semantic_sequence/kitchen_operations_semantic/kitchen_operations_semantic_8.png"" class=""exp-image"">
                    <div class=""question-area""></div> 
                </div>","null","","","","","","","","",""
"","","","","","html-button-response","74","300881","0.0-74.0","EF8ADA1DD96D45ECB81A2E6825203E68","019cf7c3-bb37-74ae-8abb-44c4d1e9a337","019cf7bd-52b9-7f96-9138-a5960b400b31","","599","
                <div class=""stimulus-container"">
                    <img src=""images/semantic_sequence/kitchen_operations_semantic/kitchen_operations_semantic_8.png"" class=""exp-image"">
                    <div class=""question-area"">
                        <p style=""font-size: 20px; font-weight: bold; margin: 0;"">Is there a person in this image?</p>
                    </div>
                </div>","0","main_experiment_trial","8","kitchen_operations_semantic","semantic_sequence","","","","",""
"","","","","","html-keyboard-response","75","305896","0.0-75.0","EF8ADA1DD96D45ECB81A2E6825203E68","019cf7c3-bb37-74ae-8abb-44c4d1e9a337","019cf7bd-52b9-7f96-9138-a5960b400b31","","null","
                <div class=""stimulus-container"">
                    <img src=""images/semantic_sequence/kitchen_operations_semantic/kitchen_operations_semantic_9.png"" class=""exp-image"">
                    <div class=""question-area""></div> 
                </div>","null","","","","","","","","",""
"","","","","","html-button-response","76","306803","0.0-76.0","EF8ADA1DD96D45ECB81A2E6825203E68","019cf7c3-bb37-74ae-8abb-44c4d1e9a337","019cf7bd-52b9-7f96-9138-a5960b400b31","","906","
                <div class=""stimulus-container"">
                    <img src=""images/semantic_sequence/kitchen_operations_semantic/kitchen_operations_semantic_9.png"" class=""exp-image"">
                    <div class=""question-area"">
                        <p style=""font-size: 20px; font-weight: bold; margin: 0;"">Is there a person in this image?</p>
                    </div>
                </div>","0","main_experiment_trial","9","kitchen_operations_semantic","semantic_sequence","","","","",""
"","","","","","html-keyboard-response","77","311812","0.0-77.0","EF8ADA1DD96D45ECB81A2E6825203E68","019cf7c3-bb37-74ae-8abb-44c4d1e9a337","019cf7bd-52b9-7f96-9138-a5960b400b31","","null","
                <div class=""stimulus-container"">
                    <img src=""images/semantic_sequence/kitchen_operations_semantic/kitchen_operations_semantic_ten.png"" class=""exp-image"">
                    <div class=""question-area""></div> 
                </div>","null","","","","","","","","",""
"","","","","","html-button-response","78","312462","0.0-78.0","EF8ADA1DD96D45ECB81A2E6825203E68","019cf7c3-bb37-74ae-8abb-44c4d1e9a337","019cf7bd-52b9-7f96-9138-a5960b400b31","","648","
                <div class=""stimulus-container"">
                    <img src=""images/semantic_sequence/kitchen_operations_semantic/kitchen_operations_semantic_ten.png"" class=""exp-image"">
                    <div class=""question-area"">
                        <p style=""font-size: 20px; font-weight: bold; margin: 0;"">Is there a person in this image?</p>
                    </div>
                </div>","0","main_experiment_trial","ten","kitchen_operations_semantic","semantic_sequence","","","","",""
"","","","","","html-keyboard-response","79","313465","0.0-79.0","EF8ADA1DD96D45ECB81A2E6825203E68","019cf7c3-bb37-74ae-8abb-44c4d1e9a337","019cf7bd-52b9-7f96-9138-a5960b400b31","","null","<div style=""background-color: white; width: 100vw; height: 100vh;""></div>","null","","","","","","","","",""
"","","","","","html-keyboard-response","80","318479","0.0-80.0","EF8ADA1DD96D45ECB81A2E6825203E68","019cf7c3-bb37-74ae-8abb-44c4d1e9a337","019cf7bd-52b9-7f96-9138-a5960b400b31","","null","
                <div class=""stimulus-container"">
                    <img src=""images/schematic_sequence/flight_scheme/flight_scheme_1.png"" class=""exp-image"">
                    <div class=""question-area""></div> 
                </div>","null","","","","","","","","",""
"","","","","","html-button-response","81","319133","0.0-81.0","EF8ADA1DD96D45ECB81A2E6825203E68","019cf7c3-bb37-74ae-8abb-44c4d1e9a337","019cf7bd-52b9-7f96-9138-a5960b400b31","","652","
                <div class=""stimulus-container"">
                    <img src=""images/schematic_sequence/flight_scheme/flight_scheme_1.png"" class=""exp-image"">
                    <div class=""question-area"">
                        <p style=""font-size: 20px; font-weight: bold; margin: 0;"">Is there a person in this image?</p>
                    </div>
                </div>","0","main_experiment_trial","1","flight_scheme","schematic_sequence","","","","",""
"","","","","","html-keyboard-response","82","324147","0.0-82.0","EF8ADA1DD96D45ECB81A2E6825203E68","019cf7c3-bb37-74ae-8abb-44c4d1e9a337","019cf7bd-52b9-7f96-9138-a5960b400b31","","null","
                <div class=""stimulus-container"">
                    <img src=""images/schematic_sequence/flight_scheme/flight_scheme_2.png"" class=""exp-image"">
                    <div class=""question-area""></div> 
                </div>","null","","","","","","","","",""
"","","","","","html-button-response","83","324690","0.0-83.0","EF8ADA1DD96D45ECB81A2E6825203E68","019cf7c3-bb37-74ae-8abb-44c4d1e9a337","019cf7bd-52b9-7f96-9138-a5960b400b31","","541","
                <div class=""stimulus-container"">
                    <img src=""images/schematic_sequence/flight_scheme/flight_scheme_2.png"" class=""exp-image"">
                    <div class=""question-area"">
                        <p style=""font-size: 20px; font-weight: bold; margin: 0;"">Is there a person in this image?</p>
                    </div>
                </div>","1","main_experiment_trial","2","flight_scheme","schematic_sequence","","","","",""
"","","","","","html-keyboard-response","84","329698","0.0-84.0","EF8ADA1DD96D45ECB81A2E6825203E68","019cf7c3-bb37-74ae-8abb-44c4d1e9a337","019cf7bd-52b9-7f96-9138-a5960b400b31","","null","
                <div class=""stimulus-container"">
                    <img src=""images/schematic_sequence/flight_scheme/flight_scheme_3.png"" class=""exp-image"">
                    <div class=""question-area""></div> 
                </div>","null","","","","","","","","",""
"","","","","","html-button-response","85","330352","0.0-85.0","EF8ADA1DD96D45ECB81A2E6825203E68","019cf7c3-bb37-74ae-8abb-44c4d1e9a337","019cf7bd-52b9-7f96-9138-a5960b400b31","","653","
                <div class=""stimulus-container"">
                    <img src=""images/schematic_sequence/flight_scheme/flight_scheme_3.png"" class=""exp-image"">
                    <div class=""question-area"">
                        <p style=""font-size: 20px; font-weight: bold; margin: 0;"">Is there a person in this image?</p>
                    </div>
                </div>","0","main_experiment_trial","3","flight_scheme","schematic_sequence","","","","",""
"","","","","","html-keyboard-response","86","335364","0.0-86.0","EF8ADA1DD96D45ECB81A2E6825203E68","019cf7c3-bb37-74ae-8abb-44c4d1e9a337","019cf7bd-52b9-7f96-9138-a5960b400b31","","null","
                <div class=""stimulus-container"">
                    <img src=""images/schematic_sequence/flight_scheme/flight_scheme_4.png"" class=""exp-image"">
                    <div class=""question-area""></div> 
                </div>","null","","","","","","","","",""
"","","","","","html-button-response","87","336004","0.0-87.0","EF8ADA1DD96D45ECB81A2E6825203E68","019cf7c3-bb37-74ae-8abb-44c4d1e9a337","019cf7bd-52b9-7f96-9138-a5960b400b31","","639","
                <div class=""stimulus-container"">
                    <img src=""images/schematic_sequence/flight_scheme/flight_scheme_4.png"" class=""exp-image"">
                    <div class=""question-area"">
                        <p style=""font-size: 20px; font-weight: bold; margin: 0;"">Is there a person in this image?</p>
                    </div>
                </div>","0","main_experiment_trial","4","flight_scheme","schematic_sequence","","","","",""
"","","","","","html-keyboard-response","88","341014","0.0-88.0","EF8ADA1DD96D45ECB81A2E6825203E68","019cf7c3-bb37-74ae-8abb-44c4d1e9a337","019cf7bd-52b9-7f96-9138-a5960b400b31","","null","
                <div class=""stimulus-container"">
                    <img src=""images/schematic_sequence/flight_scheme/flight_scheme_5.png"" class=""exp-image"">
                    <div class=""question-area""></div> 
                </div>","null","","","","","","","","",""
"","","","","","html-button-response","89","341821","0.0-89.0","EF8ADA1DD96D45ECB81A2E6825203E68","019cf7c3-bb37-74ae-8abb-44c4d1e9a337","019cf7bd-52b9-7f96-9138-a5960b400b31","","806","
                <div class=""stimulus-container"">
                    <img src=""images/schematic_sequence/flight_scheme/flight_scheme_5.png"" class=""exp-image"">
                    <div class=""question-area"">
                        <p style=""font-size: 20px; font-weight: bold; margin: 0;"">Is there a person in this image?</p>
                    </div>
                </div>","0","main_experiment_trial","5","flight_scheme","schematic_sequence","","","","",""
"","","","","","html-keyboard-response","90","346830","0.0-90.0","EF8ADA1DD96D45ECB81A2E6825203E68","019cf7c3-bb37-74ae-8abb-44c4d1e9a337","019cf7bd-52b9-7f96-9138-a5960b400b31","","null","
                <div class=""stimulus-container"">
                    <img src=""images/schematic_sequence/flight_scheme/flight_scheme_6.png"" class=""exp-image"">
                    <div class=""question-area""></div> 
                </div>","null","","","","","","","","",""
"","","","","","html-button-response","91","347595","0.0-91.0","EF8ADA1DD96D45ECB81A2E6825203E68","019cf7c3-bb37-74ae-8abb-44c4d1e9a337","019cf7bd-52b9-7f96-9138-a5960b400b31","","763","
                <div class=""stimulus-container"">
                    <img src=""images/schematic_sequence/flight_scheme/flight_scheme_6.png"" class=""exp-image"">
                    <div class=""question-area"">
                        <p style=""font-size: 20px; font-weight: bold; margin: 0;"">Is there a person in this image?</p>
                    </div>
                </div>","1","main_experiment_trial","6","flight_scheme","schematic_sequence","","","","",""
"","","","","","html-keyboard-response","92","352598","0.0-92.0","EF8ADA1DD96D45ECB81A2E6825203E68","019cf7c3-bb37-74ae-8abb-44c4d1e9a337","019cf7bd-52b9-7f96-9138-a5960b400b31","","null","
                <div class=""stimulus-container"">
                    <img src=""images/schematic_sequence/flight_scheme/flight_scheme_7.png"" class=""exp-image"">
                    <div class=""question-area""></div> 
                </div>","null","","","","","","","","",""
"","","","","","html-button-response","93","354485","0.0-93.0","EF8ADA1DD96D45ECB81A2E6825203E68","019cf7c3-bb37-74ae-8abb-44c4d1e9a337","019cf7bd-52b9-7f96-9138-a5960b400b31","","1885","
                <div class=""stimulus-container"">
                    <img src=""images/schematic_sequence/flight_scheme/flight_scheme_7.png"" class=""exp-image"">
                    <div class=""question-area"">
                        <p style=""font-size: 20px; font-weight: bold; margin: 0;"">Is there a person in this image?</p>
                    </div>
                </div>","1","main_experiment_trial","7","flight_scheme","schematic_sequence","","","","",""
"","","","","","html-keyboard-response","94","359497","0.0-94.0","EF8ADA1DD96D45ECB81A2E6825203E68","019cf7c3-bb37-74ae-8abb-44c4d1e9a337","019cf7bd-52b9-7f96-9138-a5960b400b31","","null","
                <div class=""stimulus-container"">
                    <img src=""images/schematic_sequence/flight_scheme/flight_scheme_8.png"" class=""exp-image"">
                    <div class=""question-area""></div> 
                </div>","null","","","","","","","","",""
"","","","","","html-button-response","95","360241","0.0-95.0","EF8ADA1DD96D45ECB81A2E6825203E68","019cf7c3-bb37-74ae-8abb-44c4d1e9a337","019cf7bd-52b9-7f96-9138-a5960b400b31","","743","
                <div class=""stimulus-container"">
                    <img src=""images/schematic_sequence/flight_scheme/flight_scheme_8.png"" class=""exp-image"">
                    <div class=""question-area"">
                        <p style=""font-size: 20px; font-weight: bold; margin: 0;"">Is there a person in this image?</p>
                    </div>
                </div>","1","main_experiment_trial","8","flight_scheme","schematic_sequence","","","","",""
"","","","","","html-keyboard-response","96","365249","0.0-96.0","EF8ADA1DD96D45ECB81A2E6825203E68","019cf7c3-bb37-74ae-8abb-44c4d1e9a337","019cf7bd-52b9-7f96-9138-a5960b400b31","","null","
                <div class=""stimulus-container"">
                    <img src=""images/schematic_sequence/flight_scheme/flight_scheme_9.png"" class=""exp-image"">
                    <div class=""question-area""></div> 
                </div>","null","","","","","","","","",""
"","","","","","html-button-response","97","366056","0.0-97.0","EF8ADA1DD96D45ECB81A2E6825203E68","019cf7c3-bb37-74ae-8abb-44c4d1e9a337","019cf7bd-52b9-7f96-9138-a5960b400b31","","806","
                <div class=""stimulus-container"">
                    <img src=""images/schematic_sequence/flight_scheme/flight_scheme_9.png"" class=""exp-image"">
                    <div class=""question-area"">
                        <p style=""font-size: 20px; font-weight: bold; margin: 0;"">Is there a person in this image?</p>
                    </div>
                </div>","0","main_experiment_trial","9","flight_scheme","schematic_sequence","","","","",""
"","","","","","html-keyboard-response","98","371065","0.0-98.0","EF8ADA1DD96D45ECB81A2E6825203E68","019cf7c3-bb37-74ae-8abb-44c4d1e9a337","019cf7bd-52b9-7f96-9138-a5960b400b31","","null","
                <div class=""stimulus-container"">
                    <img src=""images/schematic_sequence/flight_scheme/flight_scheme_ten.png"" class=""exp-image"">
                    <div class=""question-area""></div> 
                </div>","null","","","","","","","","",""
"","","","","","html-button-response","99","371507","0.0-99.0","EF8ADA1DD96D45ECB81A2E6825203E68","019cf7c3-bb37-74ae-8abb-44c4d1e9a337","019cf7bd-52b9-7f96-9138-a5960b400b31","","441","
                <div class=""stimulus-container"">
                    <img src=""images/schematic_sequence/flight_scheme/flight_scheme_ten.png"" class=""exp-image"">
                    <div class=""question-area"">
                        <p style=""font-size: 20px; font-weight: bold; margin: 0;"">Is there a person in this image?</p>
                    </div>
                </div>","0","main_experiment_trial","ten","flight_scheme","schematic_sequence","","","","",""
"","","","","","html-keyboard-response","100","372516","0.0-100.0","EF8ADA1DD96D45ECB81A2E6825203E68","019cf7c3-bb37-74ae-8abb-44c4d1e9a337","019cf7bd-52b9-7f96-9138-a5960b400b31","","null","<div style=""background-color: white; width: 100vw; height: 100vh;""></div>","null","","","","","","","","",""
"","","","","","html-keyboard-response","101","377532","0.0-101.0","EF8ADA1DD96D45ECB81A2E6825203E68","019cf7c3-bb37-74ae-8abb-44c4d1e9a337","019cf7bd-52b9-7f96-9138-a5960b400b31","","null","
                <div class=""stimulus-container"">
                    <img src=""images/semantic_sequence/cat_care_semantic/cat_care_semantic_1.png"" class=""exp-image"">
                    <div class=""question-area""></div> 
                </div>","null","","","","","","","","",""
"","","","","","html-button-response","102","378093","0.0-102.0","EF8ADA1DD96D45ECB81A2E6825203E68","019cf7c3-bb37-74ae-8abb-44c4d1e9a337","019cf7bd-52b9-7f96-9138-a5960b400b31","","561","
                <div class=""stimulus-container"">
                    <img src=""images/semantic_sequence/cat_care_semantic/cat_care_semantic_1.png"" class=""exp-image"">
                    <div class=""question-area"">
                        <p style=""font-size: 20px; font-weight: bold; margin: 0;"">Is there a person in this image?</p>
                    </div>
                </div>","0","main_experiment_trial","1","cat_care_semantic","semantic_sequence","","","","",""
"","","","","","html-keyboard-response","103","383098","0.0-103.0","EF8ADA1DD96D45ECB81A2E6825203E68","019cf7c3-bb37-74ae-8abb-44c4d1e9a337","019cf7bd-52b9-7f96-9138-a5960b400b31","","null","
                <div class=""stimulus-container"">
                    <img src=""images/semantic_sequence/cat_care_semantic/cat_care_semantic_2.png"" class=""exp-image"">
                    <div class=""question-area""></div> 
                </div>","null","","","","","","","","",""
"","","","","","html-button-response","104","384126","0.0-104.0","EF8ADA1DD96D45ECB81A2E6825203E68","019cf7c3-bb37-74ae-8abb-44c4d1e9a337","019cf7bd-52b9-7f96-9138-a5960b400b31","","1027","
                <div class=""stimulus-container"">
                    <img src=""images/semantic_sequence/cat_care_semantic/cat_care_semantic_2.png"" class=""exp-image"">
                    <div class=""question-area"">
                        <p style=""font-size: 20px; font-weight: bold; margin: 0;"">Is there a person in this image?</p>
                    </div>
                </div>","0","main_experiment_trial","2","cat_care_semantic","semantic_sequence","","","","",""
"","","","","","html-keyboard-response","105","389133","0.0-105.0","EF8ADA1DD96D45ECB81A2E6825203E68","019cf7c3-bb37-74ae-8abb-44c4d1e9a337","019cf7bd-52b9-7f96-9138-a5960b400b31","","null","
                <div class=""stimulus-container"">
                    <img src=""images/semantic_sequence/cat_care_semantic/cat_care_semantic_3.png"" class=""exp-image"">
                    <div class=""question-area""></div> 
                </div>","null","","","","","","","","",""
"","","","","","html-button-response","106","392101","0.0-106.0","EF8ADA1DD96D45ECB81A2E6825203E68","019cf7c3-bb37-74ae-8abb-44c4d1e9a337","019cf7bd-52b9-7f96-9138-a5960b400b31","","2967","
                <div class=""stimulus-container"">
                    <img src=""images/semantic_sequence/cat_care_semantic/cat_care_semantic_3.png"" class=""exp-image"">
                    <div class=""question-area"">
                        <p style=""font-size: 20px; font-weight: bold; margin: 0;"">Is there a person in this image?</p>
                    </div>
                </div>","0","main_experiment_trial","3","cat_care_semantic","semantic_sequence","","","","",""
"","","","","","html-keyboard-response","107","397116","0.0-107.0","EF8ADA1DD96D45ECB81A2E6825203E68","019cf7c3-bb37-74ae-8abb-44c4d1e9a337","019cf7bd-52b9-7f96-9138-a5960b400b31","","null","
                <div class=""stimulus-container"">
                    <img src=""images/semantic_sequence/cat_care_semantic/cat_care_semantic_4.png"" class=""exp-image"">
                    <div class=""question-area""></div> 
                </div>","null","","","","","","","","",""
"","","","","","html-button-response","108","397889","0.0-108.0","EF8ADA1DD96D45ECB81A2E6825203E68","019cf7c3-bb37-74ae-8abb-44c4d1e9a337","019cf7bd-52b9-7f96-9138-a5960b400b31","","771","
                <div class=""stimulus-container"">
                    <img src=""images/semantic_sequence/cat_care_semantic/cat_care_semantic_4.png"" class=""exp-image"">
                    <div class=""question-area"">
                        <p style=""font-size: 20px; font-weight: bold; margin: 0;"">Is there a person in this image?</p>
                    </div>
                </div>","0","main_experiment_trial","4","cat_care_semantic","semantic_sequence","","","","",""
"","","","","","html-keyboard-response","109","402899","0.0-109.0","EF8ADA1DD96D45ECB81A2E6825203E68","019cf7c3-bb37-74ae-8abb-44c4d1e9a337","019cf7bd-52b9-7f96-9138-a5960b400b31","","null","
                <div class=""stimulus-container"">
                    <img src=""images/semantic_sequence/cat_care_semantic/cat_care_semantic_5.png"" class=""exp-image"">
                    <div class=""question-area""></div> 
                </div>","null","","","","","","","","",""
"","","","","","html-button-response","110","404786","0.0-110.0","EF8ADA1DD96D45ECB81A2E6825203E68","019cf7c3-bb37-74ae-8abb-44c4d1e9a337","019cf7bd-52b9-7f96-9138-a5960b400b31","","1884","
                <div class=""stimulus-container"">
                    <img src=""images/semantic_sequence/cat_care_semantic/cat_care_semantic_5.png"" class=""exp-image"">
                    <div class=""question-area"">
                        <p style=""font-size: 20px; font-weight: bold; margin: 0;"">Is there a person in this image?</p>
                    </div>
                </div>","0","main_experiment_trial","5","cat_care_semantic","semantic_sequence","","","","",""
"","","","","","html-keyboard-response","111","409800","0.0-111.0","EF8ADA1DD96D45ECB81A2E6825203E68","019cf7c3-bb37-74ae-8abb-44c4d1e9a337","019cf7bd-52b9-7f96-9138-a5960b400b31","","null","
                <div class=""stimulus-container"">
                    <img src=""images/semantic_sequence/cat_care_semantic/cat_care_semantic_6.png"" class=""exp-image"">
                    <div class=""question-area""></div> 
                </div>","null","","","","","","","","",""
"","","","","","html-button-response","112","411608","0.0-112.0","EF8ADA1DD96D45ECB81A2E6825203E68","019cf7c3-bb37-74ae-8abb-44c4d1e9a337","019cf7bd-52b9-7f96-9138-a5960b400b31","","1807","
                <div class=""stimulus-container"">
                    <img src=""images/semantic_sequence/cat_care_semantic/cat_care_semantic_6.png"" class=""exp-image"">
                    <div class=""question-area"">
                        <p style=""font-size: 20px; font-weight: bold; margin: 0;"">Is there a person in this image?</p>
                    </div>
                </div>","0","main_experiment_trial","6","cat_care_semantic","semantic_sequence","","","","",""
"","","","","","html-keyboard-response","113","416617","0.0-113.0","EF8ADA1DD96D45ECB81A2E6825203E68","019cf7c3-bb37-74ae-8abb-44c4d1e9a337","019cf7bd-52b9-7f96-9138-a5960b400b31","","null","
                <div class=""stimulus-container"">
                    <img src=""images/semantic_sequence/cat_care_semantic/cat_care_semantic_7.png"" class=""exp-image"">
                    <div class=""question-area""></div> 
                </div>","null","","","","","","","","",""
"","","","","","html-button-response","114","417859","0.0-114.0","EF8ADA1DD96D45ECB81A2E6825203E68","019cf7c3-bb37-74ae-8abb-44c4d1e9a337","019cf7bd-52b9-7f96-9138-a5960b400b31","","1241","
                <div class=""stimulus-container"">
                    <img src=""images/semantic_sequence/cat_care_semantic/cat_care_semantic_7.png"" class=""exp-image"">
                    <div class=""question-area"">
                        <p style=""font-size: 20px; font-weight: bold; margin: 0;"">Is there a person in this image?</p>
                    </div>
                </div>","0","main_experiment_trial","7","cat_care_semantic","semantic_sequence","","","","",""
"","","","","","html-keyboard-response","115","422867","0.0-115.0","EF8ADA1DD96D45ECB81A2E6825203E68","019cf7c3-bb37-74ae-8abb-44c4d1e9a337","019cf7bd-52b9-7f96-9138-a5960b400b31","","null","
                <div class=""stimulus-container"">
                    <img src=""images/semantic_sequence/cat_care_semantic/cat_care_semantic_8.png"" class=""exp-image"">
                    <div class=""question-area""></div> 
                </div>","null","","","","","","","","",""
"","","","","","html-button-response","116","424047","0.0-116.0","EF8ADA1DD96D45ECB81A2E6825203E68","019cf7c3-bb37-74ae-8abb-44c4d1e9a337","019cf7bd-52b9-7f96-9138-a5960b400b31","","1179","
                <div class=""stimulus-container"">
                    <img src=""images/semantic_sequence/cat_care_semantic/cat_care_semantic_8.png"" class=""exp-image"">
                    <div class=""question-area"">
                        <p style=""font-size: 20px; font-weight: bold; margin: 0;"">Is there a person in this image?</p>
                    </div>
                </div>","0","main_experiment_trial","8","cat_care_semantic","semantic_sequence","","","","",""
"","","","","","html-keyboard-response","117","429050","0.0-117.0","EF8ADA1DD96D45ECB81A2E6825203E68","019cf7c3-bb37-74ae-8abb-44c4d1e9a337","019cf7bd-52b9-7f96-9138-a5960b400b31","","null","
                <div class=""stimulus-container"">
                    <img src=""images/semantic_sequence/cat_care_semantic/cat_care_semantic_9.png"" class=""exp-image"">
                    <div class=""question-area""></div> 
                </div>","null","","","","","","","","",""
"","","","","","html-button-response","118","429812","0.0-118.0","EF8ADA1DD96D45ECB81A2E6825203E68","019cf7c3-bb37-74ae-8abb-44c4d1e9a337","019cf7bd-52b9-7f96-9138-a5960b400b31","","761","
                <div class=""stimulus-container"">
                    <img src=""images/semantic_sequence/cat_care_semantic/cat_care_semantic_9.png"" class=""exp-image"">
                    <div class=""question-area"">
                        <p style=""font-size: 20px; font-weight: bold; margin: 0;"">Is there a person in this image?</p>
                    </div>
                </div>","0","main_experiment_trial","9","cat_care_semantic","semantic_sequence","","","","",""
"","","","","","html-keyboard-response","119","434817","0.0-119.0","EF8ADA1DD96D45ECB81A2E6825203E68","019cf7c3-bb37-74ae-8abb-44c4d1e9a337","019cf7bd-52b9-7f96-9138-a5960b400b31","","null","
                <div class=""stimulus-container"">
                    <img src=""images/semantic_sequence/cat_care_semantic/cat_care_semantic_ten.png"" class=""exp-image"">
                    <div class=""question-area""></div> 
                </div>","null","","","","","","","","",""
"","","","","","html-button-response","120","435360","0.0-120.0","EF8ADA1DD96D45ECB81A2E6825203E68","019cf7c3-bb37-74ae-8abb-44c4d1e9a337","019cf7bd-52b9-7f96-9138-a5960b400b31","","541","
                <div class=""stimulus-container"">
                    <img src=""images/semantic_sequence/cat_care_semantic/cat_care_semantic_ten.png"" class=""exp-image"">
                    <div class=""question-area"">
                        <p style=""font-size: 20px; font-weight: bold; margin: 0;"">Is there a person in this image?</p>
                    </div>
                </div>","1","main_experiment_trial","ten","cat_care_semantic","semantic_sequence","","","","",""
"","","","","","html-keyboard-response","121","436368","0.0-121.0","EF8ADA1DD96D45ECB81A2E6825203E68","019cf7c3-bb37-74ae-8abb-44c4d1e9a337","019cf7bd-52b9-7f96-9138-a5960b400b31","","null","<div style=""background-color: white; width: 100vw; height: 100vh;""></div>","null","","","","","","","","",""
"","","","","","html-keyboard-response","122","441384","0.0-122.0","EF8ADA1DD96D45ECB81A2E6825203E68","019cf7c3-bb37-74ae-8abb-44c4d1e9a337","019cf7bd-52b9-7f96-9138-a5960b400b31","","null","
                <div class=""stimulus-container"">
                    <img src=""images/semantic_sequence/self_care_activities_semantic/self_care_activities_semantic_1.png"" class=""exp-image"">
                    <div class=""question-area""></div> 
                </div>","null","","","","","","","","",""
"","","","","","html-button-response","123","442173","0.0-123.0","EF8ADA1DD96D45ECB81A2E6825203E68","019cf7c3-bb37-74ae-8abb-44c4d1e9a337","019cf7bd-52b9-7f96-9138-a5960b400b31","","788","
                <div class=""stimulus-container"">
                    <img src=""images/semantic_sequence/self_care_activities_semantic/self_care_activities_semantic_1.png"" class=""exp-image"">
                    <div class=""question-area"">
                        <p style=""font-size: 20px; font-weight: bold; margin: 0;"">Is there a person in this image?</p>
                    </div>
                </div>","0","main_experiment_trial","1","self_care_activities_semantic","semantic_sequence","","","","",""
"","","","","","html-keyboard-response","124","447185","0.0-124.0","EF8ADA1DD96D45ECB81A2E6825203E68","019cf7c3-bb37-74ae-8abb-44c4d1e9a337","019cf7bd-52b9-7f96-9138-a5960b400b31","","null","
                <div class=""stimulus-container"">
                    <img src=""images/semantic_sequence/self_care_activities_semantic/self_care_activities_semantic_2.png"" class=""exp-image"">
                    <div class=""question-area""></div> 
                </div>","null","","","","","","","","",""
"","","","","","html-button-response","125","447748","0.0-125.0","EF8ADA1DD96D45ECB81A2E6825203E68","019cf7c3-bb37-74ae-8abb-44c4d1e9a337","019cf7bd-52b9-7f96-9138-a5960b400b31","","562","
                <div class=""stimulus-container"">
                    <img src=""images/semantic_sequence/self_care_activities_semantic/self_care_activities_semantic_2.png"" class=""exp-image"">
                    <div class=""question-area"">
                        <p style=""font-size: 20px; font-weight: bold; margin: 0;"">Is there a person in this image?</p>
                    </div>
                </div>","0","main_experiment_trial","2","self_care_activities_semantic","semantic_sequence","","","","",""
"","","","","","html-keyboard-response","126","452751","0.0-126.0","EF8ADA1DD96D45ECB81A2E6825203E68","019cf7c3-bb37-74ae-8abb-44c4d1e9a337","019cf7bd-52b9-7f96-9138-a5960b400b31","","null","
                <div class=""stimulus-container"">
                    <img src=""images/semantic_sequence/self_care_activities_semantic/self_care_activities_semantic_3.png"" class=""exp-image"">
                    <div class=""question-area""></div> 
                </div>","null","","","","","","","","",""
"","","","","","html-button-response","127","453289","0.0-127.0","EF8ADA1DD96D45ECB81A2E6825203E68","019cf7c3-bb37-74ae-8abb-44c4d1e9a337","019cf7bd-52b9-7f96-9138-a5960b400b31","","536","
                <div class=""stimulus-container"">
                    <img src=""images/semantic_sequence/self_care_activities_semantic/self_care_activities_semantic_3.png"" class=""exp-image"">
                    <div class=""question-area"">
                        <p style=""font-size: 20px; font-weight: bold; margin: 0;"">Is there a person in this image?</p>
                    </div>
                </div>","0","main_experiment_trial","3","self_care_activities_semantic","semantic_sequence","","","","",""
"","","","","","html-keyboard-response","128","458301","0.0-128.0","EF8ADA1DD96D45ECB81A2E6825203E68","019cf7c3-bb37-74ae-8abb-44c4d1e9a337","019cf7bd-52b9-7f96-9138-a5960b400b31","","null","
                <div class=""stimulus-container"">
                    <img src=""images/semantic_sequence/self_care_activities_semantic/self_care_activities_semantic_4.png"" class=""exp-image"">
                    <div class=""question-area""></div> 
                </div>","null","","","","","","","","",""
"","","","","","html-button-response","129","459216","0.0-129.0","EF8ADA1DD96D45ECB81A2E6825203E68","019cf7c3-bb37-74ae-8abb-44c4d1e9a337","019cf7bd-52b9-7f96-9138-a5960b400b31","","914","
                <div class=""stimulus-container"">
                    <img src=""images/semantic_sequence/self_care_activities_semantic/self_care_activities_semantic_4.png"" class=""exp-image"">
                    <div class=""question-area"">
                        <p style=""font-size: 20px; font-weight: bold; margin: 0;"">Is there a person in this image?</p>
                    </div>
                </div>","0","main_experiment_trial","4","self_care_activities_semantic","semantic_sequence","","","","",""
"","","","","","html-keyboard-response","130","464218","0.0-130.0","EF8ADA1DD96D45ECB81A2E6825203E68","019cf7c3-bb37-74ae-8abb-44c4d1e9a337","019cf7bd-52b9-7f96-9138-a5960b400b31","","null","
                <div class=""stimulus-container"">
                    <img src=""images/semantic_sequence/self_care_activities_semantic/self_care_activities_semantic_5.png"" class=""exp-image"">
                    <div class=""question-area""></div> 
                </div>","null","","","","","","","","",""
"","","","","","html-button-response","131","465248","0.0-131.0","EF8ADA1DD96D45ECB81A2E6825203E68","019cf7c3-bb37-74ae-8abb-44c4d1e9a337","019cf7bd-52b9-7f96-9138-a5960b400b31","","1029","
                <div class=""stimulus-container"">
                    <img src=""images/semantic_sequence/self_care_activities_semantic/self_care_activities_semantic_5.png"" class=""exp-image"">
                    <div class=""question-area"">
                        <p style=""font-size: 20px; font-weight: bold; margin: 0;"">Is there a person in this image?</p>
                    </div>
                </div>","0","main_experiment_trial","5","self_care_activities_semantic","semantic_sequence","","","","",""
"","","","","","html-keyboard-response","132","470253","0.0-132.0","EF8ADA1DD96D45ECB81A2E6825203E68","019cf7c3-bb37-74ae-8abb-44c4d1e9a337","019cf7bd-52b9-7f96-9138-a5960b400b31","","null","
                <div class=""stimulus-container"">
                    <img src=""images/semantic_sequence/self_care_activities_semantic/self_care_activities_semantic_6.png"" class=""exp-image"">
                    <div class=""question-area""></div> 
                </div>","null","","","","","","","","",""
"","","","","","html-button-response","133","471006","0.0-133.0","EF8ADA1DD96D45ECB81A2E6825203E68","019cf7c3-bb37-74ae-8abb-44c4d1e9a337","019cf7bd-52b9-7f96-9138-a5960b400b31","","752","
                <div class=""stimulus-container"">
                    <img src=""images/semantic_sequence/self_care_activities_semantic/self_care_activities_semantic_6.png"" class=""exp-image"">
                    <div class=""question-area"">
                        <p style=""font-size: 20px; font-weight: bold; margin: 0;"">Is there a person in this image?</p>
                    </div>
                </div>","1","main_experiment_trial","6","self_care_activities_semantic","semantic_sequence","","","","",""
"","","","","","html-keyboard-response","134","476016","0.0-134.0","EF8ADA1DD96D45ECB81A2E6825203E68","019cf7c3-bb37-74ae-8abb-44c4d1e9a337","019cf7bd-52b9-7f96-9138-a5960b400b31","","null","
                <div class=""stimulus-container"">
                    <img src=""images/semantic_sequence/self_care_activities_semantic/self_care_activities_semantic_7.png"" class=""exp-image"">
                    <div class=""question-area""></div> 
                </div>","null","","","","","","","","",""
"","","","","","html-button-response","135","476630","0.0-135.0","EF8ADA1DD96D45ECB81A2E6825203E68","019cf7c3-bb37-74ae-8abb-44c4d1e9a337","019cf7bd-52b9-7f96-9138-a5960b400b31","","613","
                <div class=""stimulus-container"">
                    <img src=""images/semantic_sequence/self_care_activities_semantic/self_care_activities_semantic_7.png"" class=""exp-image"">
                    <div class=""question-area"">
                        <p style=""font-size: 20px; font-weight: bold; margin: 0;"">Is there a person in this image?</p>
                    </div>
                </div>","0","main_experiment_trial","7","self_care_activities_semantic","semantic_sequence","","","","",""
"","","","","","html-keyboard-response","136","481636","0.0-136.0","EF8ADA1DD96D45ECB81A2E6825203E68","019cf7c3-bb37-74ae-8abb-44c4d1e9a337","019cf7bd-52b9-7f96-9138-a5960b400b31","","null","
                <div class=""stimulus-container"">
                    <img src=""images/semantic_sequence/self_care_activities_semantic/self_care_activities_semantic_8.png"" class=""exp-image"">
                    <div class=""question-area""></div> 
                </div>","null","","","","","","","","",""
"","","","","","html-button-response","137","483294","0.0-137.0","EF8ADA1DD96D45ECB81A2E6825203E68","019cf7c3-bb37-74ae-8abb-44c4d1e9a337","019cf7bd-52b9-7f96-9138-a5960b400b31","","1657","
                <div class=""stimulus-container"">
                    <img src=""images/semantic_sequence/self_care_activities_semantic/self_care_activities_semantic_8.png"" class=""exp-image"">
                    <div class=""question-area"">
                        <p style=""font-size: 20px; font-weight: bold; margin: 0;"">Is there a person in this image?</p>
                    </div>
                </div>","0","main_experiment_trial","8","self_care_activities_semantic","semantic_sequence","","","","",""
"","","","","","html-keyboard-response","138","488302","0.0-138.0","EF8ADA1DD96D45ECB81A2E6825203E68","019cf7c3-bb37-74ae-8abb-44c4d1e9a337","019cf7bd-52b9-7f96-9138-a5960b400b31","","null","
                <div class=""stimulus-container"">
                    <img src=""images/semantic_sequence/self_care_activities_semantic/self_care_activities_semantic_9.png"" class=""exp-image"">
                    <div class=""question-area""></div> 
                </div>","null","","","","","","","","",""
"","","","","","html-button-response","139","488887","0.0-139.0","EF8ADA1DD96D45ECB81A2E6825203E68","019cf7c3-bb37-74ae-8abb-44c4d1e9a337","019cf7bd-52b9-7f96-9138-a5960b400b31","","584","
                <div class=""stimulus-container"">
                    <img src=""images/semantic_sequence/self_care_activities_semantic/self_care_activities_semantic_9.png"" class=""exp-image"">
                    <div class=""question-area"">
                        <p style=""font-size: 20px; font-weight: bold; margin: 0;"">Is there a person in this image?</p>
                    </div>
                </div>","0","main_experiment_trial","9","self_care_activities_semantic","semantic_sequence","","","","",""
"","","","","","html-keyboard-response","140","493902","0.0-140.0","EF8ADA1DD96D45ECB81A2E6825203E68","019cf7c3-bb37-74ae-8abb-44c4d1e9a337","019cf7bd-52b9-7f96-9138-a5960b400b31","","null","
                <div class=""stimulus-container"">
                    <img src=""images/semantic_sequence/self_care_activities_semantic/self_care_activities_semantic_ten.png"" class=""exp-image"">
                    <div class=""question-area""></div> 
                </div>","null","","","","","","","","",""
"","","","","","html-button-response","141","494644","0.0-141.0","EF8ADA1DD96D45ECB81A2E6825203E68","019cf7c3-bb37-74ae-8abb-44c4d1e9a337","019cf7bd-52b9-7f96-9138-a5960b400b31","","740","
                <div class=""stimulus-container"">
                    <img src=""images/semantic_sequence/self_care_activities_semantic/self_care_activities_semantic_ten.png"" class=""exp-image"">
                    <div class=""question-area"">
                        <p style=""font-size: 20px; font-weight: bold; margin: 0;"">Is there a person in this image?</p>
                    </div>
                </div>","0","main_experiment_trial","ten","self_care_activities_semantic","semantic_sequence","","","","",""
"","","","","","html-keyboard-response","142","495652","0.0-142.0","EF8ADA1DD96D45ECB81A2E6825203E68","019cf7c3-bb37-74ae-8abb-44c4d1e9a337","019cf7bd-52b9-7f96-9138-a5960b400b31","","null","<div style=""background-color: white; width: 100vw; height: 100vh;""></div>","null","","","","","","","","",""
"","","","","","html-keyboard-response","143","500654","0.0-143.0","EF8ADA1DD96D45ECB81A2E6825203E68","019cf7c3-bb37-74ae-8abb-44c4d1e9a337","019cf7bd-52b9-7f96-9138-a5960b400b31","","null","
                <div class=""stimulus-container"">
                    <img src=""images/schematic_sequence/hotel_scheme/hotel_scheme_1.png"" class=""exp-image"">
                    <div class=""question-area""></div> 
                </div>","null","","","","","","","","",""
"","","","","","html-button-response","144","501230","0.0-144.0","EF8ADA1DD96D45ECB81A2E6825203E68","019cf7c3-bb37-74ae-8abb-44c4d1e9a337","019cf7bd-52b9-7f96-9138-a5960b400b31","","575","
                <div class=""stimulus-container"">
                    <img src=""images/schematic_sequence/hotel_scheme/hotel_scheme_1.png"" class=""exp-image"">
                    <div class=""question-area"">
                        <p style=""font-size: 20px; font-weight: bold; margin: 0;"">Is there a person in this image?</p>
                    </div>
                </div>","1","main_experiment_trial","1","hotel_scheme","schematic_sequence","","","","",""
"","","","","","html-keyboard-response","145","506236","0.0-145.0","EF8ADA1DD96D45ECB81A2E6825203E68","019cf7c3-bb37-74ae-8abb-44c4d1e9a337","019cf7bd-52b9-7f96-9138-a5960b400b31","","null","
                <div class=""stimulus-container"">
                    <img src=""images/schematic_sequence/hotel_scheme/hotel_scheme_2.png"" class=""exp-image"">
                    <div class=""question-area""></div> 
                </div>","null","","","","","","","","",""
"","","","","","html-button-response","146","506816","0.0-146.0","EF8ADA1DD96D45ECB81A2E6825203E68","019cf7c3-bb37-74ae-8abb-44c4d1e9a337","019cf7bd-52b9-7f96-9138-a5960b400b31","","578","
                <div class=""stimulus-container"">
                    <img src=""images/schematic_sequence/hotel_scheme/hotel_scheme_2.png"" class=""exp-image"">
                    <div class=""question-area"">
                        <p style=""font-size: 20px; font-weight: bold; margin: 0;"">Is there a person in this image?</p>
                    </div>
                </div>","0","main_experiment_trial","2","hotel_scheme","schematic_sequence","","","","",""
"","","","","","html-keyboard-response","147","511818","0.0-147.0","EF8ADA1DD96D45ECB81A2E6825203E68","019cf7c3-bb37-74ae-8abb-44c4d1e9a337","019cf7bd-52b9-7f96-9138-a5960b400b31","","null","
                <div class=""stimulus-container"">
                    <img src=""images/schematic_sequence/hotel_scheme/hotel_scheme_3.png"" class=""exp-image"">
                    <div class=""question-area""></div> 
                </div>","null","","","","","","","","",""
"","","","","","html-button-response","148","512439","0.0-148.0","EF8ADA1DD96D45ECB81A2E6825203E68","019cf7c3-bb37-74ae-8abb-44c4d1e9a337","019cf7bd-52b9-7f96-9138-a5960b400b31","","620","
                <div class=""stimulus-container"">
                    <img src=""images/schematic_sequence/hotel_scheme/hotel_scheme_3.png"" class=""exp-image"">
                    <div class=""question-area"">
                        <p style=""font-size: 20px; font-weight: bold; margin: 0;"">Is there a person in this image?</p>
                    </div>
                </div>","0","main_experiment_trial","3","hotel_scheme","schematic_sequence","","","","",""
"","","","","","html-keyboard-response","149","517445","0.0-149.0","EF8ADA1DD96D45ECB81A2E6825203E68","019cf7c3-bb37-74ae-8abb-44c4d1e9a337","019cf7bd-52b9-7f96-9138-a5960b400b31","","null","
                <div class=""stimulus-container"">
                    <img src=""images/schematic_sequence/hotel_scheme/hotel_scheme_4.png"" class=""exp-image"">
                    <div class=""question-area""></div> 
                </div>","null","","","","","","","","",""
"","","","","","html-button-response","150","518015","0.0-150.0","EF8ADA1DD96D45ECB81A2E6825203E68","019cf7c3-bb37-74ae-8abb-44c4d1e9a337","019cf7bd-52b9-7f96-9138-a5960b400b31","","570","
                <div class=""stimulus-container"">
                    <img src=""images/schematic_sequence/hotel_scheme/hotel_scheme_4.png"" class=""exp-image"">
                    <div class=""question-area"">
                        <p style=""font-size: 20px; font-weight: bold; margin: 0;"">Is there a person in this image?</p>
                    </div>
                </div>","1","main_experiment_trial","4","hotel_scheme","schematic_sequence","","","","",""
"","","","","","html-keyboard-response","151","523020","0.0-151.0","EF8ADA1DD96D45ECB81A2E6825203E68","019cf7c3-bb37-74ae-8abb-44c4d1e9a337","019cf7bd-52b9-7f96-9138-a5960b400b31","","null","
                <div class=""stimulus-container"">
                    <img src=""images/schematic_sequence/hotel_scheme/hotel_scheme_5.png"" class=""exp-image"">
                    <div class=""question-area""></div> 
                </div>","null","","","","","","","","",""
"","","","","","html-button-response","152","523573","0.0-152.0","EF8ADA1DD96D45ECB81A2E6825203E68","019cf7c3-bb37-74ae-8abb-44c4d1e9a337","019cf7bd-52b9-7f96-9138-a5960b400b31","","552","
                <div class=""stimulus-container"">
                    <img src=""images/schematic_sequence/hotel_scheme/hotel_scheme_5.png"" class=""exp-image"">
                    <div class=""question-area"">
                        <p style=""font-size: 20px; font-weight: bold; margin: 0;"">Is there a person in this image?</p>
                    </div>
                </div>","0","main_experiment_trial","5","hotel_scheme","schematic_sequence","","","","",""
"","","","","","html-keyboard-response","153","528587","0.0-153.0","EF8ADA1DD96D45ECB81A2E6825203E68","019cf7c3-bb37-74ae-8abb-44c4d1e9a337","019cf7bd-52b9-7f96-9138-a5960b400b31","","null","
                <div class=""stimulus-container"">
                    <img src=""images/schematic_sequence/hotel_scheme/hotel_scheme_6.png"" class=""exp-image"">
                    <div class=""question-area""></div> 
                </div>","null","","","","","","","","",""
"","","","","","html-button-response","154","530425","0.0-154.0","EF8ADA1DD96D45ECB81A2E6825203E68","019cf7c3-bb37-74ae-8abb-44c4d1e9a337","019cf7bd-52b9-7f96-9138-a5960b400b31","","1837","
                <div class=""stimulus-container"">
                    <img src=""images/schematic_sequence/hotel_scheme/hotel_scheme_6.png"" class=""exp-image"">
                    <div class=""question-area"">
                        <p style=""font-size: 20px; font-weight: bold; margin: 0;"">Is there a person in this image?</p>
                    </div>
                </div>","0","main_experiment_trial","6","hotel_scheme","schematic_sequence","","","","",""
"","","","","","html-keyboard-response","155","535437","0.0-155.0","EF8ADA1DD96D45ECB81A2E6825203E68","019cf7c3-bb37-74ae-8abb-44c4d1e9a337","019cf7bd-52b9-7f96-9138-a5960b400b31","","null","
                <div class=""stimulus-container"">
                    <img src=""images/schematic_sequence/hotel_scheme/hotel_scheme_7.png"" class=""exp-image"">
                    <div class=""question-area""></div> 
                </div>","null","","","","","","","","",""
"","","","","","html-button-response","156","536352","0.0-156.0","EF8ADA1DD96D45ECB81A2E6825203E68","019cf7c3-bb37-74ae-8abb-44c4d1e9a337","019cf7bd-52b9-7f96-9138-a5960b400b31","","914","
                <div class=""stimulus-container"">
                    <img src=""images/schematic_sequence/hotel_scheme/hotel_scheme_7.png"" class=""exp-image"">
                    <div class=""question-area"">
                        <p style=""font-size: 20px; font-weight: bold; margin: 0;"">Is there a person in this image?</p>
                    </div>
                </div>","0","main_experiment_trial","7","hotel_scheme","schematic_sequence","","","","",""
"","","","","","html-keyboard-response","157","541354","0.0-157.0","EF8ADA1DD96D45ECB81A2E6825203E68","019cf7c3-bb37-74ae-8abb-44c4d1e9a337","019cf7bd-52b9-7f96-9138-a5960b400b31","","null","
                <div class=""stimulus-container"">
                    <img src=""images/schematic_sequence/hotel_scheme/hotel_scheme_8.png"" class=""exp-image"">
                    <div class=""question-area""></div> 
                </div>","null","","","","","","","","",""
"","","","","","html-button-response","158","542509","0.0-158.0","EF8ADA1DD96D45ECB81A2E6825203E68","019cf7c3-bb37-74ae-8abb-44c4d1e9a337","019cf7bd-52b9-7f96-9138-a5960b400b31","","1153","
                <div class=""stimulus-container"">
                    <img src=""images/schematic_sequence/hotel_scheme/hotel_scheme_8.png"" class=""exp-image"">
                    <div class=""question-area"">
                        <p style=""font-size: 20px; font-weight: bold; margin: 0;"">Is there a person in this image?</p>
                    </div>
                </div>","0","main_experiment_trial","8","hotel_scheme","schematic_sequence","","","","",""
"","","","","","html-keyboard-response","159","547521","0.0-159.0","EF8ADA1DD96D45ECB81A2E6825203E68","019cf7c3-bb37-74ae-8abb-44c4d1e9a337","019cf7bd-52b9-7f96-9138-a5960b400b31","","null","
                <div class=""stimulus-container"">
                    <img src=""images/schematic_sequence/hotel_scheme/hotel_scheme_9.png"" class=""exp-image"">
                    <div class=""question-area""></div> 
                </div>","null","","","","","","","","",""
"","","","","","html-button-response","160","548249","0.0-160.0","EF8ADA1DD96D45ECB81A2E6825203E68","019cf7c3-bb37-74ae-8abb-44c4d1e9a337","019cf7bd-52b9-7f96-9138-a5960b400b31","","727","
                <div class=""stimulus-container"">
                    <img src=""images/schematic_sequence/hotel_scheme/hotel_scheme_9.png"" class=""exp-image"">
                    <div class=""question-area"">
                        <p style=""font-size: 20px; font-weight: bold; margin: 0;"">Is there a person in this image?</p>
                    </div>
                </div>","0","main_experiment_trial","9","hotel_scheme","schematic_sequence","","","","",""
"","","","","","html-keyboard-response","161","553254","0.0-161.0","EF8ADA1DD96D45ECB81A2E6825203E68","019cf7c3-bb37-74ae-8abb-44c4d1e9a337","019cf7bd-52b9-7f96-9138-a5960b400b31","","null","
                <div class=""stimulus-container"">
                    <img src=""images/schematic_sequence/hotel_scheme/hotel_scheme_ten.png"" class=""exp-image"">
                    <div class=""question-area""></div> 
                </div>","null","","","","","","","","",""
"","","","","","html-button-response","162","553852","0.0-162.0","EF8ADA1DD96D45ECB81A2E6825203E68","019cf7c3-bb37-74ae-8abb-44c4d1e9a337","019cf7bd-52b9-7f96-9138-a5960b400b31","","597","
                <div class=""stimulus-container"">
                    <img src=""images/schematic_sequence/hotel_scheme/hotel_scheme_ten.png"" class=""exp-image"">
                    <div class=""question-area"">
                        <p style=""font-size: 20px; font-weight: bold; margin: 0;"">Is there a person in this image?</p>
                    </div>
                </div>","0","main_experiment_trial","ten","hotel_scheme","schematic_sequence","","","","",""
"","","","","","html-keyboard-response","163","554854","0.0-163.0","EF8ADA1DD96D45ECB81A2E6825203E68","019cf7c3-bb37-74ae-8abb-44c4d1e9a337","019cf7bd-52b9-7f96-9138-a5960b400b31","","null","<div style=""background-color: white; width: 100vw; height: 100vh;""></div>","null","","","","","","","","",""
"","","","","","html-keyboard-response","164","559856","0.0-164.0","EF8ADA1DD96D45ECB81A2E6825203E68","019cf7c3-bb37-74ae-8abb-44c4d1e9a337","019cf7bd-52b9-7f96-9138-a5960b400b31","","null","
                <div class=""stimulus-container"">
                    <img src=""images/schematic_sequence/supermarket_scheme/supermarket_scheme_1.png"" class=""exp-image"">
                    <div class=""question-area""></div> 
                </div>","null","","","","","","","","",""
"","","","","","html-button-response","165","560704","0.0-165.0","EF8ADA1DD96D45ECB81A2E6825203E68","019cf7c3-bb37-74ae-8abb-44c4d1e9a337","019cf7bd-52b9-7f96-9138-a5960b400b31","","847","
                <div class=""stimulus-container"">
                    <img src=""images/schematic_sequence/supermarket_scheme/supermarket_scheme_1.png"" class=""exp-image"">
                    <div class=""question-area"">
                        <p style=""font-size: 20px; font-weight: bold; margin: 0;"">Is there a person in this image?</p>
                    </div>
                </div>","1","main_experiment_trial","1","supermarket_scheme","schematic_sequence","","","","",""
"","","","","","html-keyboard-response","166","565706","0.0-166.0","EF8ADA1DD96D45ECB81A2E6825203E68","019cf7c3-bb37-74ae-8abb-44c4d1e9a337","019cf7bd-52b9-7f96-9138-a5960b400b31","","null","
                <div class=""stimulus-container"">
                    <img src=""images/schematic_sequence/supermarket_scheme/supermarket_scheme_2.png"" class=""exp-image"">
                    <div class=""question-area""></div> 
                </div>","null","","","","","","","","",""
"","","","","","html-button-response","167","566451","0.0-167.0","EF8ADA1DD96D45ECB81A2E6825203E68","019cf7c3-bb37-74ae-8abb-44c4d1e9a337","019cf7bd-52b9-7f96-9138-a5960b400b31","","744","
                <div class=""stimulus-container"">
                    <img src=""images/schematic_sequence/supermarket_scheme/supermarket_scheme_2.png"" class=""exp-image"">
                    <div class=""question-area"">
                        <p style=""font-size: 20px; font-weight: bold; margin: 0;"">Is there a person in this image?</p>
                    </div>
                </div>","1","main_experiment_trial","2","supermarket_scheme","schematic_sequence","","","","",""
"","","","","","html-keyboard-response","168","571455","0.0-168.0","EF8ADA1DD96D45ECB81A2E6825203E68","019cf7c3-bb37-74ae-8abb-44c4d1e9a337","019cf7bd-52b9-7f96-9138-a5960b400b31","","null","
                <div class=""stimulus-container"">
                    <img src=""images/schematic_sequence/supermarket_scheme/supermarket_scheme_3.png"" class=""exp-image"">
                    <div class=""question-area""></div> 
                </div>","null","","","","","","","","",""
"","","","","","html-button-response","169","572950","0.0-169.0","EF8ADA1DD96D45ECB81A2E6825203E68","019cf7c3-bb37-74ae-8abb-44c4d1e9a337","019cf7bd-52b9-7f96-9138-a5960b400b31","","1494","
                <div class=""stimulus-container"">
                    <img src=""images/schematic_sequence/supermarket_scheme/supermarket_scheme_3.png"" class=""exp-image"">
                    <div class=""question-area"">
                        <p style=""font-size: 20px; font-weight: bold; margin: 0;"">Is there a person in this image?</p>
                    </div>
                </div>","1","main_experiment_trial","3","supermarket_scheme","schematic_sequence","","","","",""
"","","","","","html-keyboard-response","170","577956","0.0-170.0","EF8ADA1DD96D45ECB81A2E6825203E68","019cf7c3-bb37-74ae-8abb-44c4d1e9a337","019cf7bd-52b9-7f96-9138-a5960b400b31","","null","
                <div class=""stimulus-container"">
                    <img src=""images/schematic_sequence/supermarket_scheme/supermarket_scheme_4.png"" class=""exp-image"">
                    <div class=""question-area""></div> 
                </div>","null","","","","","","","","",""
"","","","","","html-button-response","171","578841","0.0-171.0","EF8ADA1DD96D45ECB81A2E6825203E68","019cf7c3-bb37-74ae-8abb-44c4d1e9a337","019cf7bd-52b9-7f96-9138-a5960b400b31","","884","
                <div class=""stimulus-container"">
                    <img src=""images/schematic_sequence/supermarket_scheme/supermarket_scheme_4.png"" class=""exp-image"">
                    <div class=""question-area"">
                        <p style=""font-size: 20px; font-weight: bold; margin: 0;"">Is there a person in this image?</p>
                    </div>
                </div>","0","main_experiment_trial","4","supermarket_scheme","schematic_sequence","","","","",""
"","","","","","html-keyboard-response","172","583856","0.0-172.0","EF8ADA1DD96D45ECB81A2E6825203E68","019cf7c3-bb37-74ae-8abb-44c4d1e9a337","019cf7bd-52b9-7f96-9138-a5960b400b31","","null","
                <div class=""stimulus-container"">
                    <img src=""images/schematic_sequence/supermarket_scheme/supermarket_scheme_5.png"" class=""exp-image"">
                    <div class=""question-area""></div> 
                </div>","null","","","","","","","","",""
"","","","","","html-button-response","173","586786","0.0-173.0","EF8ADA1DD96D45ECB81A2E6825203E68","019cf7c3-bb37-74ae-8abb-44c4d1e9a337","019cf7bd-52b9-7f96-9138-a5960b400b31","","2929","
                <div class=""stimulus-container"">
                    <img src=""images/schematic_sequence/supermarket_scheme/supermarket_scheme_5.png"" class=""exp-image"">
                    <div class=""question-area"">
                        <p style=""font-size: 20px; font-weight: bold; margin: 0;"">Is there a person in this image?</p>
                    </div>
                </div>","1","main_experiment_trial","5","supermarket_scheme","schematic_sequence","","","","",""
"","","","","","html-keyboard-response","174","591789","0.0-174.0","EF8ADA1DD96D45ECB81A2E6825203E68","019cf7c3-bb37-74ae-8abb-44c4d1e9a337","019cf7bd-52b9-7f96-9138-a5960b400b31","","null","
                <div class=""stimulus-container"">
                    <img src=""images/schematic_sequence/supermarket_scheme/supermarket_scheme_6.png"" class=""exp-image"">
                    <div class=""question-area""></div> 
                </div>","null","","","","","","","","",""
"","","","","","html-button-response","175","593458","0.0-175.0","EF8ADA1DD96D45ECB81A2E6825203E68","019cf7c3-bb37-74ae-8abb-44c4d1e9a337","019cf7bd-52b9-7f96-9138-a5960b400b31","","1668","
                <div class=""stimulus-container"">
                    <img src=""images/schematic_sequence/supermarket_scheme/supermarket_scheme_6.png"" class=""exp-image"">
                    <div class=""question-area"">
                        <p style=""font-size: 20px; font-weight: bold; margin: 0;"">Is there a person in this image?</p>
                    </div>
                </div>","0","main_experiment_trial","6","supermarket_scheme","schematic_sequence","","","","",""
"","","","","","html-keyboard-response","176","598472","0.0-176.0","EF8ADA1DD96D45ECB81A2E6825203E68","019cf7c3-bb37-74ae-8abb-44c4d1e9a337","019cf7bd-52b9-7f96-9138-a5960b400b31","","null","
                <div class=""stimulus-container"">
                    <img src=""images/schematic_sequence/supermarket_scheme/supermarket_scheme_7.png"" class=""exp-image"">
                    <div class=""question-area""></div> 
                </div>","null","","","","","","","","",""
"","","","","","html-button-response","177","599039","0.0-177.0","EF8ADA1DD96D45ECB81A2E6825203E68","019cf7c3-bb37-74ae-8abb-44c4d1e9a337","019cf7bd-52b9-7f96-9138-a5960b400b31","","565","
                <div class=""stimulus-container"">
                    <img src=""images/schematic_sequence/supermarket_scheme/supermarket_scheme_7.png"" class=""exp-image"">
                    <div class=""question-area"">
                        <p style=""font-size: 20px; font-weight: bold; margin: 0;"">Is there a person in this image?</p>
                    </div>
                </div>","0","main_experiment_trial","7","supermarket_scheme","schematic_sequence","","","","",""
"","","","","","html-keyboard-response","178","604054","0.0-178.0","EF8ADA1DD96D45ECB81A2E6825203E68","019cf7c3-bb37-74ae-8abb-44c4d1e9a337","019cf7bd-52b9-7f96-9138-a5960b400b31","","null","
                <div class=""stimulus-container"">
                    <img src=""images/schematic_sequence/supermarket_scheme/supermarket_scheme_8.png"" class=""exp-image"">
                    <div class=""question-area""></div> 
                </div>","null","","","","","","","","",""
"","","","","","html-button-response","179","604544","0.0-179.0","EF8ADA1DD96D45ECB81A2E6825203E68","019cf7c3-bb37-74ae-8abb-44c4d1e9a337","019cf7bd-52b9-7f96-9138-a5960b400b31","","489","
                <div class=""stimulus-container"">
                    <img src=""images/schematic_sequence/supermarket_scheme/supermarket_scheme_8.png"" class=""exp-image"">
                    <div class=""question-area"">
                        <p style=""font-size: 20px; font-weight: bold; margin: 0;"">Is there a person in this image?</p>
                    </div>
                </div>","0","main_experiment_trial","8","supermarket_scheme","schematic_sequence","","","","",""
"","","","","","html-keyboard-response","180","609556","0.0-180.0","EF8ADA1DD96D45ECB81A2E6825203E68","019cf7c3-bb37-74ae-8abb-44c4d1e9a337","019cf7bd-52b9-7f96-9138-a5960b400b31","","null","
                <div class=""stimulus-container"">
                    <img src=""images/schematic_sequence/supermarket_scheme/supermarket_scheme_9.png"" class=""exp-image"">
                    <div class=""question-area""></div> 
                </div>","null","","","","","","","","",""
