"success","timeout","failed_images","failed_audio","failed_video","trial_type","trial_index","time_elapsed","internal_node_id","subject_id","study_id","session_id","view_history","rt","stimulus","response","task","image_index","folder","sequence_type","valuable_image_index","reward_type","chosen_image_index","correct_choice"
"true","false","[]","[]","[]","preload","0","2861","0.0-0.0","08885A028E6C4113ADB0D655E7F86E46","019cef99-b625-753a-bf94-221992c779db","019cef87-c56d-7b55-9135-c5814367ec25","","","","","","","","","","","",""
"","","","","","instructions","1","5120","0.0-1.0","08885A028E6C4113ADB0D655E7F86E46","019cef99-b625-753a-bf94-221992c779db","019cef87-c56d-7b55-9135-c5814367ec25","[{""page_index"":0,""viewing_time"":2258}]","2258","","","","","","","","","",""
"","","","","","instructions","2","7536","0.0-2.0","08885A028E6C4113ADB0D655E7F86E46","019cef99-b625-753a-bf94-221992c779db","019cef87-c56d-7b55-9135-c5814367ec25","[{""page_index"":0,""viewing_time"":2415}]","2415","","","","","","","","","",""
"true","","","","","fullscreen","3","11771","0.0-3.0","08885A028E6C4113ADB0D655E7F86E46","019cef99-b625-753a-bf94-221992c779db","019cef87-c56d-7b55-9135-c5814367ec25","","3232","","","","","","","","","",""
"","","","","","instructions","4","15171","0.0-4.0","08885A028E6C4113ADB0D655E7F86E46","019cef99-b625-753a-bf94-221992c779db","019cef87-c56d-7b55-9135-c5814367ec25","[{""page_index"":0,""viewing_time"":3399}]","3399","","","","","","","","","",""
"","","","","","instructions","5","16719","0.0-5.0","08885A028E6C4113ADB0D655E7F86E46","019cef99-b625-753a-bf94-221992c779db","019cef87-c56d-7b55-9135-c5814367ec25","[{""page_index"":0,""viewing_time"":1548}]","1548","","","","","","","","","",""
"","","","","","html-keyboard-response","6","20723","0.0-6.0","08885A028E6C4113ADB0D655E7F86E46","019cef99-b625-753a-bf94-221992c779db","019cef87-c56d-7b55-9135-c5814367ec25","","null","
                <div class=""stimulus-container"">
                    <img src=""images/instructions/movie_1.png"" class=""exp-image"">
                    <div class=""question-area""></div> 
                </div>","null","","","","","","","",""
"","","","","","html-button-response","7","23303","0.0-7.0","08885A028E6C4113ADB0D655E7F86E46","019cef99-b625-753a-bf94-221992c779db","019cef87-c56d-7b55-9135-c5814367ec25","","2578","
                <div class=""stimulus-container"">
                    <img src=""images/instructions/movie_1.png"" class=""exp-image"">
                    <div class=""question-area"">
                        <p style=""font-size: 20px; font-weight: bold; margin: 0;"">Was there a person in this image?</p>
                    </div>
                </div>","0","example_question","1","","","","","",""
"","","","","","html-keyboard-response","8","27306","0.0-8.0","08885A028E6C4113ADB0D655E7F86E46","019cef99-b625-753a-bf94-221992c779db","019cef87-c56d-7b55-9135-c5814367ec25","","null","
                <div class=""stimulus-container"">
                    <img src=""images/instructions/movie_2.png"" class=""exp-image"">
                    <div class=""question-area""></div> 
                </div>","null","","","","","","","",""
"","","","","","html-button-response","9","28853","0.0-9.0","08885A028E6C4113ADB0D655E7F86E46","019cef99-b625-753a-bf94-221992c779db","019cef87-c56d-7b55-9135-c5814367ec25","","1545","
                <div class=""stimulus-container"">
                    <img src=""images/instructions/movie_2.png"" class=""exp-image"">
                    <div class=""question-area"">
                        <p style=""font-size: 20px; font-weight: bold; margin: 0;"">Was there a person in this image?</p>
                    </div>
                </div>","0","example_question","2","","","","","",""
"","","","","","html-keyboard-response","10","32857","0.0-10.0","08885A028E6C4113ADB0D655E7F86E46","019cef99-b625-753a-bf94-221992c779db","019cef87-c56d-7b55-9135-c5814367ec25","","null","
                <div class=""stimulus-container"">
                    <img src=""images/instructions/movie_3.png"" class=""exp-image"">
                    <div class=""question-area""></div> 
                </div>","null","","","","","","","",""
"","","","","","html-button-response","11","34169","0.0-11.0","08885A028E6C4113ADB0D655E7F86E46","019cef99-b625-753a-bf94-221992c779db","019cef87-c56d-7b55-9135-c5814367ec25","","1311","
                <div class=""stimulus-container"">
                    <img src=""images/instructions/movie_3.png"" class=""exp-image"">
                    <div class=""question-area"">
                        <p style=""font-size: 20px; font-weight: bold; margin: 0;"">Was there a person in this image?</p>
                    </div>
                </div>","0","example_question","3","","","","","",""
"","","","","","html-keyboard-response","12","38171","0.0-12.0","08885A028E6C4113ADB0D655E7F86E46","019cef99-b625-753a-bf94-221992c779db","019cef87-c56d-7b55-9135-c5814367ec25","","null","
                <div class=""stimulus-container"">
                    <img src=""images/instructions/movie_4.png"" class=""exp-image"">
                    <div class=""question-area""></div> 
                </div>","null","","","","","","","",""
"","","","","","html-button-response","13","38987","0.0-13.0","08885A028E6C4113ADB0D655E7F86E46","019cef99-b625-753a-bf94-221992c779db","019cef87-c56d-7b55-9135-c5814367ec25","","815","
                <div class=""stimulus-container"">
                    <img src=""images/instructions/movie_4.png"" class=""exp-image"">
                    <div class=""question-area"">
                        <p style=""font-size: 20px; font-weight: bold; margin: 0;"">Was there a person in this image?</p>
                    </div>
                </div>","0","example_question","4","","","","","",""
"","","","","","instructions","14","40203","0.0-14.0","08885A028E6C4113ADB0D655E7F86E46","019cef99-b625-753a-bf94-221992c779db","019cef87-c56d-7b55-9135-c5814367ec25","[{""page_index"":0,""viewing_time"":1215}]","1216","","","","","","","","","",""
"","","","","","instructions","15","41486","0.0-15.0","08885A028E6C4113ADB0D655E7F86E46","019cef99-b625-753a-bf94-221992c779db","019cef87-c56d-7b55-9135-c5814367ec25","[{""page_index"":0,""viewing_time"":1282}]","1283","","","","","","","","","",""
"","","","","","html-keyboard-response","16","42488","0.0-16.0","08885A028E6C4113ADB0D655E7F86E46","019cef99-b625-753a-bf94-221992c779db","019cef87-c56d-7b55-9135-c5814367ec25","","null","<div style=""background-color: white; width: 100vw; height: 100vh;""></div>","null","","","","","","","",""
"","","","","","html-keyboard-response","17","47490","0.0-17.0","08885A028E6C4113ADB0D655E7F86E46","019cef99-b625-753a-bf94-221992c779db","019cef87-c56d-7b55-9135-c5814367ec25","","null","
                <div class=""stimulus-container"">
                    <img src=""images/schematic_sequence/flight_scheme/flight_scheme_1.png"" class=""exp-image"">
                    <div class=""question-area""></div> 
                </div>","null","","","","","","","",""
"","","","","","html-button-response","18","49703","0.0-18.0","08885A028E6C4113ADB0D655E7F86E46","019cef99-b625-753a-bf94-221992c779db","019cef87-c56d-7b55-9135-c5814367ec25","","2212","
                <div class=""stimulus-container"">
                    <img src=""images/schematic_sequence/flight_scheme/flight_scheme_1.png"" class=""exp-image"">
                    <div class=""question-area"">
                        <p style=""font-size: 20px; font-weight: bold; margin: 0;"">Is there a person in this image?</p>
                    </div>
                </div>","1","main_experiment_trial","1","flight_scheme","schematic_sequence","","","",""
"","","","","","html-keyboard-response","19","54706","0.0-19.0","08885A028E6C4113ADB0D655E7F86E46","019cef99-b625-753a-bf94-221992c779db","019cef87-c56d-7b55-9135-c5814367ec25","","null","
                <div class=""stimulus-container"">
                    <img src=""images/schematic_sequence/flight_scheme/flight_scheme_2.png"" class=""exp-image"">
                    <div class=""question-area""></div> 
                </div>","null","","","","","","","",""
"","","","","","html-button-response","20","55403","0.0-20.0","08885A028E6C4113ADB0D655E7F86E46","019cef99-b625-753a-bf94-221992c779db","019cef87-c56d-7b55-9135-c5814367ec25","","697","
                <div class=""stimulus-container"">
                    <img src=""images/schematic_sequence/flight_scheme/flight_scheme_2.png"" class=""exp-image"">
                    <div class=""question-area"">
                        <p style=""font-size: 20px; font-weight: bold; margin: 0;"">Is there a person in this image?</p>
                    </div>
                </div>","1","main_experiment_trial","2","flight_scheme","schematic_sequence","","","",""
"","","","","","html-keyboard-response","21","60405","0.0-21.0","08885A028E6C4113ADB0D655E7F86E46","019cef99-b625-753a-bf94-221992c779db","019cef87-c56d-7b55-9135-c5814367ec25","","null","
                <div class=""stimulus-container"">
                    <img src=""images/schematic_sequence/flight_scheme/flight_scheme_3.png"" class=""exp-image"">
                    <div class=""question-area""></div> 
                </div>","null","","","","","","","",""
"","","","","","html-button-response","22","61786","0.0-22.0","08885A028E6C4113ADB0D655E7F86E46","019cef99-b625-753a-bf94-221992c779db","019cef87-c56d-7b55-9135-c5814367ec25","","1380","
                <div class=""stimulus-container"">
                    <img src=""images/schematic_sequence/flight_scheme/flight_scheme_3.png"" class=""exp-image"">
                    <div class=""question-area"">
                        <p style=""font-size: 20px; font-weight: bold; margin: 0;"">Is there a person in this image?</p>
                    </div>
                </div>","0","main_experiment_trial","3","flight_scheme","schematic_sequence","","","",""
"","","","","","html-keyboard-response","23","66789","0.0-23.0","08885A028E6C4113ADB0D655E7F86E46","019cef99-b625-753a-bf94-221992c779db","019cef87-c56d-7b55-9135-c5814367ec25","","null","
                <div class=""stimulus-container"">
                    <img src=""images/schematic_sequence/flight_scheme/flight_scheme_4.png"" class=""exp-image"">
                    <div class=""question-area""></div> 
                </div>","null","","","","","","","",""
"","","","","","html-button-response","24","67503","0.0-24.0","08885A028E6C4113ADB0D655E7F86E46","019cef99-b625-753a-bf94-221992c779db","019cef87-c56d-7b55-9135-c5814367ec25","","712","
                <div class=""stimulus-container"">
                    <img src=""images/schematic_sequence/flight_scheme/flight_scheme_4.png"" class=""exp-image"">
                    <div class=""question-area"">
                        <p style=""font-size: 20px; font-weight: bold; margin: 0;"">Is there a person in this image?</p>
                    </div>
                </div>","0","main_experiment_trial","4","flight_scheme","schematic_sequence","","","",""
"","","","","","html-keyboard-response","25","72506","0.0-25.0","08885A028E6C4113ADB0D655E7F86E46","019cef99-b625-753a-bf94-221992c779db","019cef87-c56d-7b55-9135-c5814367ec25","","null","
                <div class=""stimulus-container"">
                    <img src=""images/schematic_sequence/flight_scheme/flight_scheme_5.png"" class=""exp-image"">
                    <div class=""question-area""></div> 
                </div>","null","","","","","","","",""
"","","","","","html-button-response","26","72920","0.0-26.0","08885A028E6C4113ADB0D655E7F86E46","019cef99-b625-753a-bf94-221992c779db","019cef87-c56d-7b55-9135-c5814367ec25","","413","
                <div class=""stimulus-container"">
                    <img src=""images/schematic_sequence/flight_scheme/flight_scheme_5.png"" class=""exp-image"">
                    <div class=""question-area"">
                        <p style=""font-size: 20px; font-weight: bold; margin: 0;"">Is there a person in this image?</p>
                    </div>
                </div>","0","main_experiment_trial","5","flight_scheme","schematic_sequence","","","",""
"","","","","","html-keyboard-response","27","77921","0.0-27.0","08885A028E6C4113ADB0D655E7F86E46","019cef99-b625-753a-bf94-221992c779db","019cef87-c56d-7b55-9135-c5814367ec25","","null","
                <div class=""stimulus-container"">
                    <img src=""images/schematic_sequence/flight_scheme/flight_scheme_6.png"" class=""exp-image"">
                    <div class=""question-area""></div> 
                </div>","null","","","","","","","",""
"","","","","","html-button-response","28","78637","0.0-28.0","08885A028E6C4113ADB0D655E7F86E46","019cef99-b625-753a-bf94-221992c779db","019cef87-c56d-7b55-9135-c5814367ec25","","714","
                <div class=""stimulus-container"">
                    <img src=""images/schematic_sequence/flight_scheme/flight_scheme_6.png"" class=""exp-image"">
                    <div class=""question-area"">
                        <p style=""font-size: 20px; font-weight: bold; margin: 0;"">Is there a person in this image?</p>
                    </div>
                </div>","1","main_experiment_trial","6","flight_scheme","schematic_sequence","","","",""
"","","","","","html-keyboard-response","29","83639","0.0-29.0","08885A028E6C4113ADB0D655E7F86E46","019cef99-b625-753a-bf94-221992c779db","019cef87-c56d-7b55-9135-c5814367ec25","","null","
                <div class=""stimulus-container"">
                    <img src=""images/schematic_sequence/flight_scheme/flight_scheme_7.png"" class=""exp-image"">
                    <div class=""question-area""></div> 
                </div>","null","","","","","","","",""
"","","","","","html-button-response","30","84270","0.0-30.0","08885A028E6C4113ADB0D655E7F86E46","019cef99-b625-753a-bf94-221992c779db","019cef87-c56d-7b55-9135-c5814367ec25","","630","
                <div class=""stimulus-container"">
                    <img src=""images/schematic_sequence/flight_scheme/flight_scheme_7.png"" class=""exp-image"">
                    <div class=""question-area"">
                        <p style=""font-size: 20px; font-weight: bold; margin: 0;"">Is there a person in this image?</p>
                    </div>
                </div>","1","main_experiment_trial","7","flight_scheme","schematic_sequence","","","",""
"","","","","","html-keyboard-response","31","89273","0.0-31.0","08885A028E6C4113ADB0D655E7F86E46","019cef99-b625-753a-bf94-221992c779db","019cef87-c56d-7b55-9135-c5814367ec25","","null","
                <div class=""stimulus-container"">
                    <img src=""images/schematic_sequence/flight_scheme/flight_scheme_8.png"" class=""exp-image"">
                    <div class=""question-area""></div> 
                </div>","null","","","","","","","",""
"","","","","","html-button-response","32","89736","0.0-32.0","08885A028E6C4113ADB0D655E7F86E46","019cef99-b625-753a-bf94-221992c779db","019cef87-c56d-7b55-9135-c5814367ec25","","463","
                <div class=""stimulus-container"">
                    <img src=""images/schematic_sequence/flight_scheme/flight_scheme_8.png"" class=""exp-image"">
                    <div class=""question-area"">
                        <p style=""font-size: 20px; font-weight: bold; margin: 0;"">Is there a person in this image?</p>
                    </div>
                </div>","1","main_experiment_trial","8","flight_scheme","schematic_sequence","","","",""
"","","","","","html-keyboard-response","33","94739","0.0-33.0","08885A028E6C4113ADB0D655E7F86E46","019cef99-b625-753a-bf94-221992c779db","019cef87-c56d-7b55-9135-c5814367ec25","","null","
                <div class=""stimulus-container"">
                    <img src=""images/schematic_sequence/flight_scheme/flight_scheme_9.png"" class=""exp-image"">
                    <div class=""question-area""></div> 
                </div>","null","","","","","","","",""
"","","","","","html-button-response","34","95386","0.0-34.0","08885A028E6C4113ADB0D655E7F86E46","019cef99-b625-753a-bf94-221992c779db","019cef87-c56d-7b55-9135-c5814367ec25","","647","
                <div class=""stimulus-container"">
                    <img src=""images/schematic_sequence/flight_scheme/flight_scheme_9.png"" class=""exp-image"">
                    <div class=""question-area"">
                        <p style=""font-size: 20px; font-weight: bold; margin: 0;"">Is there a person in this image?</p>
                    </div>
                </div>","1","main_experiment_trial","9","flight_scheme","schematic_sequence","","","",""
"","","","","","html-keyboard-response","35","100390","0.0-35.0","08885A028E6C4113ADB0D655E7F86E46","019cef99-b625-753a-bf94-221992c779db","019cef87-c56d-7b55-9135-c5814367ec25","","null","
                <div class=""stimulus-container"">
                    <img src=""images/schematic_sequence/flight_scheme/flight_scheme_ten.png"" class=""exp-image"">
                    <div class=""question-area""></div> 
                </div>","null","","","","","","","",""
"","","","","","html-button-response","36","101920","0.0-36.0","08885A028E6C4113ADB0D655E7F86E46","019cef99-b625-753a-bf94-221992c779db","019cef87-c56d-7b55-9135-c5814367ec25","","1529","
                <div class=""stimulus-container"">
                    <img src=""images/schematic_sequence/flight_scheme/flight_scheme_ten.png"" class=""exp-image"">
                    <div class=""question-area"">
                        <p style=""font-size: 20px; font-weight: bold; margin: 0;"">Is there a person in this image?</p>
                    </div>
                </div>","0","main_experiment_trial","ten","flight_scheme","schematic_sequence","","","",""
"","","","","","html-keyboard-response","37","102922","0.0-37.0","08885A028E6C4113ADB0D655E7F86E46","019cef99-b625-753a-bf94-221992c779db","019cef87-c56d-7b55-9135-c5814367ec25","","null","<div style=""background-color: white; width: 100vw; height: 100vh;""></div>","null","","","","","","","",""
"","","","","","html-keyboard-response","38","107925","0.0-38.0","08885A028E6C4113ADB0D655E7F86E46","019cef99-b625-753a-bf94-221992c779db","019cef87-c56d-7b55-9135-c5814367ec25","","null","
                <div class=""stimulus-container"">
                    <img src=""images/schematic_sequence/restaurant_scheme/restaurant_scheme_1.png"" class=""exp-image"">
                    <div class=""question-area""></div> 
                </div>","null","","","","","","","",""
"","","","","","html-button-response","39","108371","0.0-39.0","08885A028E6C4113ADB0D655E7F86E46","019cef99-b625-753a-bf94-221992c779db","019cef87-c56d-7b55-9135-c5814367ec25","","445","
                <div class=""stimulus-container"">
                    <img src=""images/schematic_sequence/restaurant_scheme/restaurant_scheme_1.png"" class=""exp-image"">
                    <div class=""question-area"">
                        <p style=""font-size: 20px; font-weight: bold; margin: 0;"">Is there a person in this image?</p>
                    </div>
                </div>","0","main_experiment_trial","1","restaurant_scheme","schematic_sequence","","","",""
"","","","","","html-keyboard-response","40","113372","0.0-40.0","08885A028E6C4113ADB0D655E7F86E46","019cef99-b625-753a-bf94-221992c779db","019cef87-c56d-7b55-9135-c5814367ec25","","null","
                <div class=""stimulus-container"">
                    <img src=""images/schematic_sequence/restaurant_scheme/restaurant_scheme_2.png"" class=""exp-image"">
                    <div class=""question-area""></div> 
                </div>","null","","","","","","","",""
"","","","","","html-button-response","41","114855","0.0-41.0","08885A028E6C4113ADB0D655E7F86E46","019cef99-b625-753a-bf94-221992c779db","019cef87-c56d-7b55-9135-c5814367ec25","","1482","
                <div class=""stimulus-container"">
                    <img src=""images/schematic_sequence/restaurant_scheme/restaurant_scheme_2.png"" class=""exp-image"">
                    <div class=""question-area"">
                        <p style=""font-size: 20px; font-weight: bold; margin: 0;"">Is there a person in this image?</p>
                    </div>
                </div>","1","main_experiment_trial","2","restaurant_scheme","schematic_sequence","","","",""
"","","","","","html-keyboard-response","42","119858","0.0-42.0","08885A028E6C4113ADB0D655E7F86E46","019cef99-b625-753a-bf94-221992c779db","019cef87-c56d-7b55-9135-c5814367ec25","","null","
                <div class=""stimulus-container"">
                    <img src=""images/schematic_sequence/restaurant_scheme/restaurant_scheme_3.png"" class=""exp-image"">
                    <div class=""question-area""></div> 
                </div>","null","","","","","","","",""
"","","","","","html-button-response","43","120703","0.0-43.0","08885A028E6C4113ADB0D655E7F86E46","019cef99-b625-753a-bf94-221992c779db","019cef87-c56d-7b55-9135-c5814367ec25","","844","
                <div class=""stimulus-container"">
                    <img src=""images/schematic_sequence/restaurant_scheme/restaurant_scheme_3.png"" class=""exp-image"">
                    <div class=""question-area"">
                        <p style=""font-size: 20px; font-weight: bold; margin: 0;"">Is there a person in this image?</p>
                    </div>
                </div>","1","main_experiment_trial","3","restaurant_scheme","schematic_sequence","","","",""
"","","","","","html-keyboard-response","44","125706","0.0-44.0","08885A028E6C4113ADB0D655E7F86E46","019cef99-b625-753a-bf94-221992c779db","019cef87-c56d-7b55-9135-c5814367ec25","","null","
                <div class=""stimulus-container"">
                    <img src=""images/schematic_sequence/restaurant_scheme/restaurant_scheme_4.png"" class=""exp-image"">
                    <div class=""question-area""></div> 
                </div>","null","","","","","","","",""
"","","","","","html-button-response","45","126220","0.0-45.0","08885A028E6C4113ADB0D655E7F86E46","019cef99-b625-753a-bf94-221992c779db","019cef87-c56d-7b55-9135-c5814367ec25","","513","
                <div class=""stimulus-container"">
                    <img src=""images/schematic_sequence/restaurant_scheme/restaurant_scheme_4.png"" class=""exp-image"">
                    <div class=""question-area"">
                        <p style=""font-size: 20px; font-weight: bold; margin: 0;"">Is there a person in this image?</p>
                    </div>
                </div>","0","main_experiment_trial","4","restaurant_scheme","schematic_sequence","","","",""
"","","","","","html-keyboard-response","46","131223","0.0-46.0","08885A028E6C4113ADB0D655E7F86E46","019cef99-b625-753a-bf94-221992c779db","019cef87-c56d-7b55-9135-c5814367ec25","","null","
                <div class=""stimulus-container"">
                    <img src=""images/schematic_sequence/restaurant_scheme/restaurant_scheme_5.png"" class=""exp-image"">
                    <div class=""question-area""></div> 
                </div>","null","","","","","","","",""
"","","","","","html-button-response","47","131753","0.0-47.0","08885A028E6C4113ADB0D655E7F86E46","019cef99-b625-753a-bf94-221992c779db","019cef87-c56d-7b55-9135-c5814367ec25","","529","
                <div class=""stimulus-container"">
                    <img src=""images/schematic_sequence/restaurant_scheme/restaurant_scheme_5.png"" class=""exp-image"">
                    <div class=""question-area"">
                        <p style=""font-size: 20px; font-weight: bold; margin: 0;"">Is there a person in this image?</p>
                    </div>
                </div>","0","main_experiment_trial","5","restaurant_scheme","schematic_sequence","","","",""
"","","","","","html-keyboard-response","48","136756","0.0-48.0","08885A028E6C4113ADB0D655E7F86E46","019cef99-b625-753a-bf94-221992c779db","019cef87-c56d-7b55-9135-c5814367ec25","","null","
                <div class=""stimulus-container"">
                    <img src=""images/schematic_sequence/restaurant_scheme/restaurant_scheme_6.png"" class=""exp-image"">
                    <div class=""question-area""></div> 
                </div>","null","","","","","","","",""
"","","","","","html-button-response","49","137170","0.0-49.0","08885A028E6C4113ADB0D655E7F86E46","019cef99-b625-753a-bf94-221992c779db","019cef87-c56d-7b55-9135-c5814367ec25","","412","
                <div class=""stimulus-container"">
                    <img src=""images/schematic_sequence/restaurant_scheme/restaurant_scheme_6.png"" class=""exp-image"">
                    <div class=""question-area"">
                        <p style=""font-size: 20px; font-weight: bold; margin: 0;"">Is there a person in this image?</p>
                    </div>
                </div>","1","main_experiment_trial","6","restaurant_scheme","schematic_sequence","","","",""
"","","","","","html-keyboard-response","50","142173","0.0-50.0","08885A028E6C4113ADB0D655E7F86E46","019cef99-b625-753a-bf94-221992c779db","019cef87-c56d-7b55-9135-c5814367ec25","","null","
                <div class=""stimulus-container"">
                    <img src=""images/schematic_sequence/restaurant_scheme/restaurant_scheme_7.png"" class=""exp-image"">
                    <div class=""question-area""></div> 
                </div>","null","","","","","","","",""
"","","","","","html-button-response","51","142638","0.0-51.0","08885A028E6C4113ADB0D655E7F86E46","019cef99-b625-753a-bf94-221992c779db","019cef87-c56d-7b55-9135-c5814367ec25","","464","
                <div class=""stimulus-container"">
                    <img src=""images/schematic_sequence/restaurant_scheme/restaurant_scheme_7.png"" class=""exp-image"">
                    <div class=""question-area"">
                        <p style=""font-size: 20px; font-weight: bold; margin: 0;"">Is there a person in this image?</p>
                    </div>
                </div>","1","main_experiment_trial","7","restaurant_scheme","schematic_sequence","","","",""
"","","","","","html-keyboard-response","52","147639","0.0-52.0","08885A028E6C4113ADB0D655E7F86E46","019cef99-b625-753a-bf94-221992c779db","019cef87-c56d-7b55-9135-c5814367ec25","","null","
                <div class=""stimulus-container"">
                    <img src=""images/schematic_sequence/restaurant_scheme/restaurant_scheme_8.png"" class=""exp-image"">
                    <div class=""question-area""></div> 
                </div>","null","","","","","","","",""
"","","","","","html-button-response","53","148337","0.0-53.0","08885A028E6C4113ADB0D655E7F86E46","019cef99-b625-753a-bf94-221992c779db","019cef87-c56d-7b55-9135-c5814367ec25","","696","
                <div class=""stimulus-container"">
                    <img src=""images/schematic_sequence/restaurant_scheme/restaurant_scheme_8.png"" class=""exp-image"">
                    <div class=""question-area"">
                        <p style=""font-size: 20px; font-weight: bold; margin: 0;"">Is there a person in this image?</p>
                    </div>
                </div>","1","main_experiment_trial","8","restaurant_scheme","schematic_sequence","","","",""
"","","","","","html-keyboard-response","54","153339","0.0-54.0","08885A028E6C4113ADB0D655E7F86E46","019cef99-b625-753a-bf94-221992c779db","019cef87-c56d-7b55-9135-c5814367ec25","","null","
                <div class=""stimulus-container"">
                    <img src=""images/schematic_sequence/restaurant_scheme/restaurant_scheme_9.png"" class=""exp-image"">
                    <div class=""question-area""></div> 
                </div>","null","","","","","","","",""
"","","","","","html-button-response","55","153820","0.0-55.0","08885A028E6C4113ADB0D655E7F86E46","019cef99-b625-753a-bf94-221992c779db","019cef87-c56d-7b55-9135-c5814367ec25","","480","
                <div class=""stimulus-container"">
                    <img src=""images/schematic_sequence/restaurant_scheme/restaurant_scheme_9.png"" class=""exp-image"">
                    <div class=""question-area"">
                        <p style=""font-size: 20px; font-weight: bold; margin: 0;"">Is there a person in this image?</p>
                    </div>
                </div>","0","main_experiment_trial","9","restaurant_scheme","schematic_sequence","","","",""
"","","","","","html-keyboard-response","56","158823","0.0-56.0","08885A028E6C4113ADB0D655E7F86E46","019cef99-b625-753a-bf94-221992c779db","019cef87-c56d-7b55-9135-c5814367ec25","","null","
                <div class=""stimulus-container"">
                    <img src=""images/schematic_sequence/restaurant_scheme/restaurant_scheme_ten.png"" class=""exp-image"">
                    <div class=""question-area""></div> 
                </div>","null","","","","","","","",""
"","","","","","html-button-response","57","159437","0.0-57.0","08885A028E6C4113ADB0D655E7F86E46","019cef99-b625-753a-bf94-221992c779db","019cef87-c56d-7b55-9135-c5814367ec25","","613","
                <div class=""stimulus-container"">
                    <img src=""images/schematic_sequence/restaurant_scheme/restaurant_scheme_ten.png"" class=""exp-image"">
                    <div class=""question-area"">
                        <p style=""font-size: 20px; font-weight: bold; margin: 0;"">Is there a person in this image?</p>
                    </div>
                </div>","0","main_experiment_trial","ten","restaurant_scheme","schematic_sequence","","","",""
"","","","","","html-keyboard-response","58","160439","0.0-58.0","08885A028E6C4113ADB0D655E7F86E46","019cef99-b625-753a-bf94-221992c779db","019cef87-c56d-7b55-9135-c5814367ec25","","null","<div style=""background-color: white; width: 100vw; height: 100vh;""></div>","null","","","","","","","",""
"","","","","","html-keyboard-response","59","165441","0.0-59.0","08885A028E6C4113ADB0D655E7F86E46","019cef99-b625-753a-bf94-221992c779db","019cef87-c56d-7b55-9135-c5814367ec25","","null","
                <div class=""stimulus-container"">
                    <img src=""images/causal_sequence/saving_a_cat_causal/saving_a_cat_causal_1.png"" class=""exp-image"">
                    <div class=""question-area""></div> 
                </div>","null","","","","","","","",""
"","","","","","html-button-response","60","166021","0.0-60.0","08885A028E6C4113ADB0D655E7F86E46","019cef99-b625-753a-bf94-221992c779db","019cef87-c56d-7b55-9135-c5814367ec25","","578","
                <div class=""stimulus-container"">
                    <img src=""images/causal_sequence/saving_a_cat_causal/saving_a_cat_causal_1.png"" class=""exp-image"">
                    <div class=""question-area"">
                        <p style=""font-size: 20px; font-weight: bold; margin: 0;"">Is there a person in this image?</p>
                    </div>
                </div>","0","main_experiment_trial","1","saving_a_cat_causal","causal_sequence","","","",""
"","","","","","html-keyboard-response","61","171023","0.0-61.0","08885A028E6C4113ADB0D655E7F86E46","019cef99-b625-753a-bf94-221992c779db","019cef87-c56d-7b55-9135-c5814367ec25","","null","
                <div class=""stimulus-container"">
                    <img src=""images/causal_sequence/saving_a_cat_causal/saving_a_cat_causal_2.png"" class=""exp-image"">
                    <div class=""question-area""></div> 
                </div>","null","","","","","","","",""
"","","","","","html-button-response","62","172972","0.0-62.0","08885A028E6C4113ADB0D655E7F86E46","019cef99-b625-753a-bf94-221992c779db","019cef87-c56d-7b55-9135-c5814367ec25","","1948","
                <div class=""stimulus-container"">
                    <img src=""images/causal_sequence/saving_a_cat_causal/saving_a_cat_causal_2.png"" class=""exp-image"">
                    <div class=""question-area"">
                        <p style=""font-size: 20px; font-weight: bold; margin: 0;"">Is there a person in this image?</p>
                    </div>
                </div>","1","main_experiment_trial","2","saving_a_cat_causal","causal_sequence","","","",""
"","","","","","html-keyboard-response","63","177975","0.0-63.0","08885A028E6C4113ADB0D655E7F86E46","019cef99-b625-753a-bf94-221992c779db","019cef87-c56d-7b55-9135-c5814367ec25","","null","
                <div class=""stimulus-container"">
                    <img src=""images/causal_sequence/saving_a_cat_causal/saving_a_cat_causal_3.png"" class=""exp-image"">
                    <div class=""question-area""></div> 
                </div>","null","","","","","","","",""
"","","","","","html-button-response","64","178437","0.0-64.0","08885A028E6C4113ADB0D655E7F86E46","019cef99-b625-753a-bf94-221992c779db","019cef87-c56d-7b55-9135-c5814367ec25","","460","
                <div class=""stimulus-container"">
                    <img src=""images/causal_sequence/saving_a_cat_causal/saving_a_cat_causal_3.png"" class=""exp-image"">
                    <div class=""question-area"">
                        <p style=""font-size: 20px; font-weight: bold; margin: 0;"">Is there a person in this image?</p>
                    </div>
                </div>","1","main_experiment_trial","3","saving_a_cat_causal","causal_sequence","","","",""
"","","","","","html-keyboard-response","65","183440","0.0-65.0","08885A028E6C4113ADB0D655E7F86E46","019cef99-b625-753a-bf94-221992c779db","019cef87-c56d-7b55-9135-c5814367ec25","","null","
                <div class=""stimulus-container"">
                    <img src=""images/causal_sequence/saving_a_cat_causal/saving_a_cat_causal_4.png"" class=""exp-image"">
                    <div class=""question-area""></div> 
                </div>","null","","","","","","","",""
"","","","","","html-button-response","66","184387","0.0-66.0","08885A028E6C4113ADB0D655E7F86E46","019cef99-b625-753a-bf94-221992c779db","019cef87-c56d-7b55-9135-c5814367ec25","","945","
                <div class=""stimulus-container"">
                    <img src=""images/causal_sequence/saving_a_cat_causal/saving_a_cat_causal_4.png"" class=""exp-image"">
                    <div class=""question-area"">
                        <p style=""font-size: 20px; font-weight: bold; margin: 0;"">Is there a person in this image?</p>
                    </div>
                </div>","0","main_experiment_trial","4","saving_a_cat_causal","causal_sequence","","","",""
"","","","","","html-keyboard-response","67","189390","0.0-67.0","08885A028E6C4113ADB0D655E7F86E46","019cef99-b625-753a-bf94-221992c779db","019cef87-c56d-7b55-9135-c5814367ec25","","null","
                <div class=""stimulus-container"">
                    <img src=""images/causal_sequence/saving_a_cat_causal/saving_a_cat_causal_5.png"" class=""exp-image"">
                    <div class=""question-area""></div> 
                </div>","null","","","","","","","",""
"","","","","","html-button-response","68","189954","0.0-68.0","08885A028E6C4113ADB0D655E7F86E46","019cef99-b625-753a-bf94-221992c779db","019cef87-c56d-7b55-9135-c5814367ec25","","563","
                <div class=""stimulus-container"">
                    <img src=""images/causal_sequence/saving_a_cat_causal/saving_a_cat_causal_5.png"" class=""exp-image"">
                    <div class=""question-area"">
                        <p style=""font-size: 20px; font-weight: bold; margin: 0;"">Is there a person in this image?</p>
                    </div>
                </div>","0","main_experiment_trial","5","saving_a_cat_causal","causal_sequence","","","",""
"","","","","","html-keyboard-response","69","194957","0.0-69.0","08885A028E6C4113ADB0D655E7F86E46","019cef99-b625-753a-bf94-221992c779db","019cef87-c56d-7b55-9135-c5814367ec25","","null","
                <div class=""stimulus-container"">
                    <img src=""images/causal_sequence/saving_a_cat_causal/saving_a_cat_causal_6.png"" class=""exp-image"">
                    <div class=""question-area""></div> 
                </div>","null","","","","","","","",""
"","","","","","html-button-response","70","196270","0.0-70.0","08885A028E6C4113ADB0D655E7F86E46","019cef99-b625-753a-bf94-221992c779db","019cef87-c56d-7b55-9135-c5814367ec25","","1312","
                <div class=""stimulus-container"">
                    <img src=""images/causal_sequence/saving_a_cat_causal/saving_a_cat_causal_6.png"" class=""exp-image"">
                    <div class=""question-area"">
                        <p style=""font-size: 20px; font-weight: bold; margin: 0;"">Is there a person in this image?</p>
                    </div>
                </div>","0","main_experiment_trial","6","saving_a_cat_causal","causal_sequence","","","",""
"","","","","","html-keyboard-response","71","201273","0.0-71.0","08885A028E6C4113ADB0D655E7F86E46","019cef99-b625-753a-bf94-221992c779db","019cef87-c56d-7b55-9135-c5814367ec25","","null","
                <div class=""stimulus-container"">
                    <img src=""images/causal_sequence/saving_a_cat_causal/saving_a_cat_causal_7.png"" class=""exp-image"">
                    <div class=""question-area""></div> 
                </div>","null","","","","","","","",""
"","","","","","html-button-response","72","203053","0.0-72.0","08885A028E6C4113ADB0D655E7F86E46","019cef99-b625-753a-bf94-221992c779db","019cef87-c56d-7b55-9135-c5814367ec25","","1779","
                <div class=""stimulus-container"">
                    <img src=""images/causal_sequence/saving_a_cat_causal/saving_a_cat_causal_7.png"" class=""exp-image"">
                    <div class=""question-area"">
                        <p style=""font-size: 20px; font-weight: bold; margin: 0;"">Is there a person in this image?</p>
                    </div>
                </div>","0","main_experiment_trial","7","saving_a_cat_causal","causal_sequence","","","",""
"","","","","","html-keyboard-response","73","208055","0.0-73.0","08885A028E6C4113ADB0D655E7F86E46","019cef99-b625-753a-bf94-221992c779db","019cef87-c56d-7b55-9135-c5814367ec25","","null","
                <div class=""stimulus-container"">
                    <img src=""images/causal_sequence/saving_a_cat_causal/saving_a_cat_causal_8.png"" class=""exp-image"">
                    <div class=""question-area""></div> 
                </div>","null","","","","","","","",""
"","","","","","html-button-response","74","209020","0.0-74.0","08885A028E6C4113ADB0D655E7F86E46","019cef99-b625-753a-bf94-221992c779db","019cef87-c56d-7b55-9135-c5814367ec25","","964","
                <div class=""stimulus-container"">
                    <img src=""images/causal_sequence/saving_a_cat_causal/saving_a_cat_causal_8.png"" class=""exp-image"">
                    <div class=""question-area"">
                        <p style=""font-size: 20px; font-weight: bold; margin: 0;"">Is there a person in this image?</p>
                    </div>
                </div>","0","main_experiment_trial","8","saving_a_cat_causal","causal_sequence","","","",""
"","","","","","html-keyboard-response","75","214023","0.0-75.0","08885A028E6C4113ADB0D655E7F86E46","019cef99-b625-753a-bf94-221992c779db","019cef87-c56d-7b55-9135-c5814367ec25","","null","
                <div class=""stimulus-container"">
                    <img src=""images/causal_sequence/saving_a_cat_causal/saving_a_cat_causal_9.png"" class=""exp-image"">
                    <div class=""question-area""></div> 
                </div>","null","","","","","","","",""
"","","","","","html-button-response","76","215239","0.0-76.0","08885A028E6C4113ADB0D655E7F86E46","019cef99-b625-753a-bf94-221992c779db","019cef87-c56d-7b55-9135-c5814367ec25","","1215","
                <div class=""stimulus-container"">
                    <img src=""images/causal_sequence/saving_a_cat_causal/saving_a_cat_causal_9.png"" class=""exp-image"">
                    <div class=""question-area"">
                        <p style=""font-size: 20px; font-weight: bold; margin: 0;"">Is there a person in this image?</p>
                    </div>
                </div>","0","main_experiment_trial","9","saving_a_cat_causal","causal_sequence","","","",""
"","","","","","html-keyboard-response","77","220242","0.0-77.0","08885A028E6C4113ADB0D655E7F86E46","019cef99-b625-753a-bf94-221992c779db","019cef87-c56d-7b55-9135-c5814367ec25","","null","
                <div class=""stimulus-container"">
                    <img src=""images/causal_sequence/saving_a_cat_causal/saving_a_cat_causal_ten.png"" class=""exp-image"">
                    <div class=""question-area""></div> 
                </div>","null","","","","","","","",""
"","","","","","html-button-response","78","220703","0.0-78.0","08885A028E6C4113ADB0D655E7F86E46","019cef99-b625-753a-bf94-221992c779db","019cef87-c56d-7b55-9135-c5814367ec25","","461","
                <div class=""stimulus-container"">
                    <img src=""images/causal_sequence/saving_a_cat_causal/saving_a_cat_causal_ten.png"" class=""exp-image"">
                    <div class=""question-area"">
                        <p style=""font-size: 20px; font-weight: bold; margin: 0;"">Is there a person in this image?</p>
                    </div>
                </div>","0","main_experiment_trial","ten","saving_a_cat_causal","causal_sequence","","","",""
"","","","","","html-keyboard-response","79","221706","0.0-79.0","08885A028E6C4113ADB0D655E7F86E46","019cef99-b625-753a-bf94-221992c779db","019cef87-c56d-7b55-9135-c5814367ec25","","null","<div style=""background-color: white; width: 100vw; height: 100vh;""></div>","null","","","","","","","",""
"","","","","","html-keyboard-response","80","226708","0.0-80.0","08885A028E6C4113ADB0D655E7F86E46","019cef99-b625-753a-bf94-221992c779db","019cef87-c56d-7b55-9135-c5814367ec25","","null","
                <div class=""stimulus-container"">
                    <img src=""images/causal_sequence/coin_causal/coin_causal_1.png"" class=""exp-image"">
                    <div class=""question-area""></div> 
                </div>","null","","","","","","","",""
"","","","","","html-button-response","81","229711","0.0-81.0","08885A028E6C4113ADB0D655E7F86E46","019cef99-b625-753a-bf94-221992c779db","019cef87-c56d-7b55-9135-c5814367ec25","","null","
                <div class=""stimulus-container"">
                    <img src=""images/causal_sequence/coin_causal/coin_causal_1.png"" class=""exp-image"">
                    <div class=""question-area"">
                        <p style=""font-size: 20px; font-weight: bold; margin: 0;"">Is there a person in this image?</p>
                    </div>
                </div>","null","main_experiment_trial","1","coin_causal","causal_sequence","","","",""
"","","","","","html-keyboard-response","82","234714","0.0-82.0","08885A028E6C4113ADB0D655E7F86E46","019cef99-b625-753a-bf94-221992c779db","019cef87-c56d-7b55-9135-c5814367ec25","","null","
                <div class=""stimulus-container"">
                    <img src=""images/causal_sequence/coin_causal/coin_causal_2.png"" class=""exp-image"">
                    <div class=""question-area""></div> 
                </div>","null","","","","","","","",""
"","","","","","html-button-response","83","234887","0.0-83.0","08885A028E6C4113ADB0D655E7F86E46","019cef99-b625-753a-bf94-221992c779db","019cef87-c56d-7b55-9135-c5814367ec25","","172","
                <div class=""stimulus-container"">
                    <img src=""images/causal_sequence/coin_causal/coin_causal_2.png"" class=""exp-image"">
                    <div class=""question-area"">
                        <p style=""font-size: 20px; font-weight: bold; margin: 0;"">Is there a person in this image?</p>
                    </div>
                </div>","0","main_experiment_trial","2","coin_causal","causal_sequence","","","",""
"","","","","","html-keyboard-response","84","239890","0.0-84.0","08885A028E6C4113ADB0D655E7F86E46","019cef99-b625-753a-bf94-221992c779db","019cef87-c56d-7b55-9135-c5814367ec25","","null","
                <div class=""stimulus-container"">
                    <img src=""images/causal_sequence/coin_causal/coin_causal_3.png"" class=""exp-image"">
                    <div class=""question-area""></div> 
                </div>","null","","","","","","","",""
"","","","","","html-button-response","85","239937","0.0-85.0","08885A028E6C4113ADB0D655E7F86E46","019cef99-b625-753a-bf94-221992c779db","019cef87-c56d-7b55-9135-c5814367ec25","","47","
                <div class=""stimulus-container"">
                    <img src=""images/causal_sequence/coin_causal/coin_causal_3.png"" class=""exp-image"">
                    <div class=""question-area"">
                        <p style=""font-size: 20px; font-weight: bold; margin: 0;"">Is there a person in this image?</p>
                    </div>
                </div>","0","main_experiment_trial","3","coin_causal","causal_sequence","","","",""
"","","","","","html-keyboard-response","86","244939","0.0-86.0","08885A028E6C4113ADB0D655E7F86E46","019cef99-b625-753a-bf94-221992c779db","019cef87-c56d-7b55-9135-c5814367ec25","","null","
                <div class=""stimulus-container"">
                    <img src=""images/causal_sequence/coin_causal/coin_causal_4.png"" class=""exp-image"">
                    <div class=""question-area""></div> 
                </div>","null","","","","","","","",""
"","","","","","html-button-response","87","245672","0.0-87.0","08885A028E6C4113ADB0D655E7F86E46","019cef99-b625-753a-bf94-221992c779db","019cef87-c56d-7b55-9135-c5814367ec25","","732","
                <div class=""stimulus-container"">
                    <img src=""images/causal_sequence/coin_causal/coin_causal_4.png"" class=""exp-image"">
                    <div class=""question-area"">
                        <p style=""font-size: 20px; font-weight: bold; margin: 0;"">Is there a person in this image?</p>
                    </div>
                </div>","0","main_experiment_trial","4","coin_causal","causal_sequence","","","",""
"","","","","","html-keyboard-response","88","250674","0.0-88.0","08885A028E6C4113ADB0D655E7F86E46","019cef99-b625-753a-bf94-221992c779db","019cef87-c56d-7b55-9135-c5814367ec25","","null","
                <div class=""stimulus-container"">
                    <img src=""images/causal_sequence/coin_causal/coin_causal_5.png"" class=""exp-image"">
                    <div class=""question-area""></div> 
                </div>","null","","","","","","","",""
"","","","","","html-button-response","89","251087","0.0-89.0","08885A028E6C4113ADB0D655E7F86E46","019cef99-b625-753a-bf94-221992c779db","019cef87-c56d-7b55-9135-c5814367ec25","","411","
                <div class=""stimulus-container"">
                    <img src=""images/causal_sequence/coin_causal/coin_causal_5.png"" class=""exp-image"">
                    <div class=""question-area"">
                        <p style=""font-size: 20px; font-weight: bold; margin: 0;"">Is there a person in this image?</p>
                    </div>
                </div>","0","main_experiment_trial","5","coin_causal","causal_sequence","","","",""
"","","","","","html-keyboard-response","90","256090","0.0-90.0","08885A028E6C4113ADB0D655E7F86E46","019cef99-b625-753a-bf94-221992c779db","019cef87-c56d-7b55-9135-c5814367ec25","","null","
                <div class=""stimulus-container"">
                    <img src=""images/causal_sequence/coin_causal/coin_causal_6.png"" class=""exp-image"">
                    <div class=""question-area""></div> 
                </div>","null","","","","","","","",""
"","","","","","html-button-response","91","256756","0.0-91.0","08885A028E6C4113ADB0D655E7F86E46","019cef99-b625-753a-bf94-221992c779db","019cef87-c56d-7b55-9135-c5814367ec25","","665","
                <div class=""stimulus-container"">
                    <img src=""images/causal_sequence/coin_causal/coin_causal_6.png"" class=""exp-image"">
                    <div class=""question-area"">
                        <p style=""font-size: 20px; font-weight: bold; margin: 0;"">Is there a person in this image?</p>
                    </div>
                </div>","0","main_experiment_trial","6","coin_causal","causal_sequence","","","",""
"","","","","","html-keyboard-response","92","261758","0.0-92.0","08885A028E6C4113ADB0D655E7F86E46","019cef99-b625-753a-bf94-221992c779db","019cef87-c56d-7b55-9135-c5814367ec25","","null","
                <div class=""stimulus-container"">
                    <img src=""images/causal_sequence/coin_causal/coin_causal_7.png"" class=""exp-image"">
                    <div class=""question-area""></div> 
                </div>","null","","","","","","","",""
"","","","","","html-button-response","93","263170","0.0-93.0","08885A028E6C4113ADB0D655E7F86E46","019cef99-b625-753a-bf94-221992c779db","019cef87-c56d-7b55-9135-c5814367ec25","","1411","
                <div class=""stimulus-container"">
                    <img src=""images/causal_sequence/coin_causal/coin_causal_7.png"" class=""exp-image"">
                    <div class=""question-area"">
                        <p style=""font-size: 20px; font-weight: bold; margin: 0;"">Is there a person in this image?</p>
                    </div>
                </div>","1","main_experiment_trial","7","coin_causal","causal_sequence","","","",""
"","","","","","html-keyboard-response","94","268173","0.0-94.0","08885A028E6C4113ADB0D655E7F86E46","019cef99-b625-753a-bf94-221992c779db","019cef87-c56d-7b55-9135-c5814367ec25","","null","
                <div class=""stimulus-container"">
                    <img src=""images/causal_sequence/coin_causal/coin_causal_8.png"" class=""exp-image"">
                    <div class=""question-area""></div> 
                </div>","null","","","","","","","",""
"","","","","","html-button-response","95","269104","0.0-95.0","08885A028E6C4113ADB0D655E7F86E46","019cef99-b625-753a-bf94-221992c779db","019cef87-c56d-7b55-9135-c5814367ec25","","929","
                <div class=""stimulus-container"">
                    <img src=""images/causal_sequence/coin_causal/coin_causal_8.png"" class=""exp-image"">
                    <div class=""question-area"">
                        <p style=""font-size: 20px; font-weight: bold; margin: 0;"">Is there a person in this image?</p>
                    </div>
                </div>","0","main_experiment_trial","8","coin_causal","causal_sequence","","","",""
"","","","","","html-keyboard-response","96","274106","0.0-96.0","08885A028E6C4113ADB0D655E7F86E46","019cef99-b625-753a-bf94-221992c779db","019cef87-c56d-7b55-9135-c5814367ec25","","null","
                <div class=""stimulus-container"">
                    <img src=""images/causal_sequence/coin_causal/coin_causal_9.png"" class=""exp-image"">
                    <div class=""question-area""></div> 
                </div>","null","","","","","","","",""
"","","","","","html-button-response","97","274571","0.0-97.0","08885A028E6C4113ADB0D655E7F86E46","019cef99-b625-753a-bf94-221992c779db","019cef87-c56d-7b55-9135-c5814367ec25","","464","
                <div class=""stimulus-container"">
                    <img src=""images/causal_sequence/coin_causal/coin_causal_9.png"" class=""exp-image"">
                    <div class=""question-area"">
                        <p style=""font-size: 20px; font-weight: bold; margin: 0;"">Is there a person in this image?</p>
                    </div>
                </div>","0","main_experiment_trial","9","coin_causal","causal_sequence","","","",""
"","","","","","html-keyboard-response","98","279574","0.0-98.0","08885A028E6C4113ADB0D655E7F86E46","019cef99-b625-753a-bf94-221992c779db","019cef87-c56d-7b55-9135-c5814367ec25","","null","
                <div class=""stimulus-container"">
                    <img src=""images/causal_sequence/coin_causal/coin_causal_ten.png"" class=""exp-image"">
                    <div class=""question-area""></div> 
                </div>","null","","","","","","","",""
"","","","","","html-button-response","99","280321","0.0-99.0","08885A028E6C4113ADB0D655E7F86E46","019cef99-b625-753a-bf94-221992c779db","019cef87-c56d-7b55-9135-c5814367ec25","","746","
                <div class=""stimulus-container"">
                    <img src=""images/causal_sequence/coin_causal/coin_causal_ten.png"" class=""exp-image"">
                    <div class=""question-area"">
                        <p style=""font-size: 20px; font-weight: bold; margin: 0;"">Is there a person in this image?</p>
                    </div>
                </div>","0","main_experiment_trial","ten","coin_causal","causal_sequence","","","",""
"","","","","","html-keyboard-response","100","281323","0.0-100.0","08885A028E6C4113ADB0D655E7F86E46","019cef99-b625-753a-bf94-221992c779db","019cef87-c56d-7b55-9135-c5814367ec25","","null","<div style=""background-color: white; width: 100vw; height: 100vh;""></div>","null","","","","","","","",""
"","","","","","html-keyboard-response","101","286326","0.0-101.0","08885A028E6C4113ADB0D655E7F86E46","019cef99-b625-753a-bf94-221992c779db","019cef87-c56d-7b55-9135-c5814367ec25","","null","
                <div class=""stimulus-container"">
                    <img src=""images/schematic_sequence/hotel_scheme/hotel_scheme_1.png"" class=""exp-image"">
                    <div class=""question-area""></div> 
                </div>","null","","","","","","","",""
"","","","","","html-button-response","102","287154","0.0-102.0","08885A028E6C4113ADB0D655E7F86E46","019cef99-b625-753a-bf94-221992c779db","019cef87-c56d-7b55-9135-c5814367ec25","","827","
                <div class=""stimulus-container"">
                    <img src=""images/schematic_sequence/hotel_scheme/hotel_scheme_1.png"" class=""exp-image"">
                    <div class=""question-area"">
                        <p style=""font-size: 20px; font-weight: bold; margin: 0;"">Is there a person in this image?</p>
                    </div>
                </div>","1","main_experiment_trial","1","hotel_scheme","schematic_sequence","","","",""
"","","","","","html-keyboard-response","103","292156","0.0-103.0","08885A028E6C4113ADB0D655E7F86E46","019cef99-b625-753a-bf94-221992c779db","019cef87-c56d-7b55-9135-c5814367ec25","","null","
                <div class=""stimulus-container"">
                    <img src=""images/schematic_sequence/hotel_scheme/hotel_scheme_2.png"" class=""exp-image"">
                    <div class=""question-area""></div> 
                </div>","null","","","","","","","",""
"","","","","","html-button-response","104","292671","0.0-104.0","08885A028E6C4113ADB0D655E7F86E46","019cef99-b625-753a-bf94-221992c779db","019cef87-c56d-7b55-9135-c5814367ec25","","514","
                <div class=""stimulus-container"">
                    <img src=""images/schematic_sequence/hotel_scheme/hotel_scheme_2.png"" class=""exp-image"">
                    <div class=""question-area"">
                        <p style=""font-size: 20px; font-weight: bold; margin: 0;"">Is there a person in this image?</p>
                    </div>
                </div>","0","main_experiment_trial","2","hotel_scheme","schematic_sequence","","","",""
"","","","","","html-keyboard-response","105","297673","0.0-105.0","08885A028E6C4113ADB0D655E7F86E46","019cef99-b625-753a-bf94-221992c779db","019cef87-c56d-7b55-9135-c5814367ec25","","null","
                <div class=""stimulus-container"">
                    <img src=""images/schematic_sequence/hotel_scheme/hotel_scheme_3.png"" class=""exp-image"">
                    <div class=""question-area""></div> 
                </div>","null","","","","","","","",""
"","","","","","html-button-response","106","298154","0.0-106.0","08885A028E6C4113ADB0D655E7F86E46","019cef99-b625-753a-bf94-221992c779db","019cef87-c56d-7b55-9135-c5814367ec25","","479","
                <div class=""stimulus-container"">
                    <img src=""images/schematic_sequence/hotel_scheme/hotel_scheme_3.png"" class=""exp-image"">
                    <div class=""question-area"">
                        <p style=""font-size: 20px; font-weight: bold; margin: 0;"">Is there a person in this image?</p>
                    </div>
                </div>","0","main_experiment_trial","3","hotel_scheme","schematic_sequence","","","",""
"","","","","","html-keyboard-response","107","303156","0.0-107.0","08885A028E6C4113ADB0D655E7F86E46","019cef99-b625-753a-bf94-221992c779db","019cef87-c56d-7b55-9135-c5814367ec25","","null","
                <div class=""stimulus-container"">
                    <img src=""images/schematic_sequence/hotel_scheme/hotel_scheme_4.png"" class=""exp-image"">
                    <div class=""question-area""></div> 
                </div>","null","","","","","","","",""
"","","","","","html-button-response","108","303937","0.0-108.0","08885A028E6C4113ADB0D655E7F86E46","019cef99-b625-753a-bf94-221992c779db","019cef87-c56d-7b55-9135-c5814367ec25","","780","
                <div class=""stimulus-container"">
                    <img src=""images/schematic_sequence/hotel_scheme/hotel_scheme_4.png"" class=""exp-image"">
                    <div class=""question-area"">
                        <p style=""font-size: 20px; font-weight: bold; margin: 0;"">Is there a person in this image?</p>
                    </div>
                </div>","1","main_experiment_trial","4","hotel_scheme","schematic_sequence","","","",""
"","","","","","html-keyboard-response","109","308939","0.0-109.0","08885A028E6C4113ADB0D655E7F86E46","019cef99-b625-753a-bf94-221992c779db","019cef87-c56d-7b55-9135-c5814367ec25","","null","
                <div class=""stimulus-container"">
                    <img src=""images/schematic_sequence/hotel_scheme/hotel_scheme_5.png"" class=""exp-image"">
                    <div class=""question-area""></div> 
                </div>","null","","","","","","","",""
"","","","","","html-button-response","110","309738","0.0-110.0","08885A028E6C4113ADB0D655E7F86E46","019cef99-b625-753a-bf94-221992c779db","019cef87-c56d-7b55-9135-c5814367ec25","","798","
                <div class=""stimulus-container"">
                    <img src=""images/schematic_sequence/hotel_scheme/hotel_scheme_5.png"" class=""exp-image"">
                    <div class=""question-area"">
                        <p style=""font-size: 20px; font-weight: bold; margin: 0;"">Is there a person in this image?</p>
                    </div>
                </div>","0","main_experiment_trial","5","hotel_scheme","schematic_sequence","","","",""
"","","","","","html-keyboard-response","111","314740","0.0-111.0","08885A028E6C4113ADB0D655E7F86E46","019cef99-b625-753a-bf94-221992c779db","019cef87-c56d-7b55-9135-c5814367ec25","","null","
                <div class=""stimulus-container"">
                    <img src=""images/schematic_sequence/hotel_scheme/hotel_scheme_6.png"" class=""exp-image"">
                    <div class=""question-area""></div> 
                </div>","null","","","","","","","",""
"","","","","","html-button-response","112","315504","0.0-112.0","08885A028E6C4113ADB0D655E7F86E46","019cef99-b625-753a-bf94-221992c779db","019cef87-c56d-7b55-9135-c5814367ec25","","763","
                <div class=""stimulus-container"">
                    <img src=""images/schematic_sequence/hotel_scheme/hotel_scheme_6.png"" class=""exp-image"">
                    <div class=""question-area"">
                        <p style=""font-size: 20px; font-weight: bold; margin: 0;"">Is there a person in this image?</p>
                    </div>
                </div>","0","main_experiment_trial","6","hotel_scheme","schematic_sequence","","","",""
"","","","","","html-keyboard-response","113","320506","0.0-113.0","08885A028E6C4113ADB0D655E7F86E46","019cef99-b625-753a-bf94-221992c779db","019cef87-c56d-7b55-9135-c5814367ec25","","null","
                <div class=""stimulus-container"">
                    <img src=""images/schematic_sequence/hotel_scheme/hotel_scheme_7.png"" class=""exp-image"">
                    <div class=""question-area""></div> 
                </div>","null","","","","","","","",""
"","","","","","html-button-response","114","321004","0.0-114.0","08885A028E6C4113ADB0D655E7F86E46","019cef99-b625-753a-bf94-221992c779db","019cef87-c56d-7b55-9135-c5814367ec25","","496","
                <div class=""stimulus-container"">
                    <img src=""images/schematic_sequence/hotel_scheme/hotel_scheme_7.png"" class=""exp-image"">
                    <div class=""question-area"">
                        <p style=""font-size: 20px; font-weight: bold; margin: 0;"">Is there a person in this image?</p>
                    </div>
                </div>","0","main_experiment_trial","7","hotel_scheme","schematic_sequence","","","",""
"","","","","","html-keyboard-response","115","326006","0.0-115.0","08885A028E6C4113ADB0D655E7F86E46","019cef99-b625-753a-bf94-221992c779db","019cef87-c56d-7b55-9135-c5814367ec25","","null","
                <div class=""stimulus-container"">
                    <img src=""images/schematic_sequence/hotel_scheme/hotel_scheme_8.png"" class=""exp-image"">
                    <div class=""question-area""></div> 
                </div>","null","","","","","","","",""
"","","","","","html-button-response","116","326044","0.0-116.0","08885A028E6C4113ADB0D655E7F86E46","019cef99-b625-753a-bf94-221992c779db","019cef87-c56d-7b55-9135-c5814367ec25","","37","
                <div class=""stimulus-container"">
                    <img src=""images/schematic_sequence/hotel_scheme/hotel_scheme_8.png"" class=""exp-image"">
                    <div class=""question-area"">
                        <p style=""font-size: 20px; font-weight: bold; margin: 0;"">Is there a person in this image?</p>
                    </div>
                </div>","0","main_experiment_trial","8","hotel_scheme","schematic_sequence","","","",""
"","","","","","html-keyboard-response","117","331046","0.0-117.0","08885A028E6C4113ADB0D655E7F86E46","019cef99-b625-753a-bf94-221992c779db","019cef87-c56d-7b55-9135-c5814367ec25","","null","
                <div class=""stimulus-container"">
                    <img src=""images/schematic_sequence/hotel_scheme/hotel_scheme_9.png"" class=""exp-image"">
                    <div class=""question-area""></div> 
                </div>","null","","","","","","","",""
"","","","","","html-button-response","118","331821","0.0-118.0","08885A028E6C4113ADB0D655E7F86E46","019cef99-b625-753a-bf94-221992c779db","019cef87-c56d-7b55-9135-c5814367ec25","","774","
                <div class=""stimulus-container"">
                    <img src=""images/schematic_sequence/hotel_scheme/hotel_scheme_9.png"" class=""exp-image"">
                    <div class=""question-area"">
                        <p style=""font-size: 20px; font-weight: bold; margin: 0;"">Is there a person in this image?</p>
                    </div>
                </div>","1","main_experiment_trial","9","hotel_scheme","schematic_sequence","","","",""
"","","","","","html-keyboard-response","119","336824","0.0-119.0","08885A028E6C4113ADB0D655E7F86E46","019cef99-b625-753a-bf94-221992c779db","019cef87-c56d-7b55-9135-c5814367ec25","","null","
                <div class=""stimulus-container"">
                    <img src=""images/schematic_sequence/hotel_scheme/hotel_scheme_ten.png"" class=""exp-image"">
                    <div class=""question-area""></div> 
                </div>","null","","","","","","","",""
"","","","","","html-button-response","120","337354","0.0-120.0","08885A028E6C4113ADB0D655E7F86E46","019cef99-b625-753a-bf94-221992c779db","019cef87-c56d-7b55-9135-c5814367ec25","","530","
                <div class=""stimulus-container"">
                    <img src=""images/schematic_sequence/hotel_scheme/hotel_scheme_ten.png"" class=""exp-image"">
                    <div class=""question-area"">
                        <p style=""font-size: 20px; font-weight: bold; margin: 0;"">Is there a person in this image?</p>
                    </div>
                </div>","0","main_experiment_trial","ten","hotel_scheme","schematic_sequence","","","",""
"","","","","","html-keyboard-response","121","338356","0.0-121.0","08885A028E6C4113ADB0D655E7F86E46","019cef99-b625-753a-bf94-221992c779db","019cef87-c56d-7b55-9135-c5814367ec25","","null","<div style=""background-color: white; width: 100vw; height: 100vh;""></div>","null","","","","","","","",""
"","","","","","html-keyboard-response","122","343359","0.0-122.0","08885A028E6C4113ADB0D655E7F86E46","019cef99-b625-753a-bf94-221992c779db","019cef87-c56d-7b55-9135-c5814367ec25","","null","
                <div class=""stimulus-container"">
                    <img src=""images/schematic_sequence/interview_scheme/interview_scheme_1.png"" class=""exp-image"">
                    <div class=""question-area""></div> 
                </div>","null","","","","","","","",""
"","","","","","html-button-response","123","344154","0.0-123.0","08885A028E6C4113ADB0D655E7F86E46","019cef99-b625-753a-bf94-221992c779db","019cef87-c56d-7b55-9135-c5814367ec25","","794","
                <div class=""stimulus-container"">
                    <img src=""images/schematic_sequence/interview_scheme/interview_scheme_1.png"" class=""exp-image"">
                    <div class=""question-area"">
                        <p style=""font-size: 20px; font-weight: bold; margin: 0;"">Is there a person in this image?</p>
                    </div>
                </div>","1","main_experiment_trial","1","interview_scheme","schematic_sequence","","","",""
"","","","","","html-keyboard-response","124","349156","0.0-124.0","08885A028E6C4113ADB0D655E7F86E46","019cef99-b625-753a-bf94-221992c779db","019cef87-c56d-7b55-9135-c5814367ec25","","null","
                <div class=""stimulus-container"">
                    <img src=""images/schematic_sequence/interview_scheme/interview_scheme_2.png"" class=""exp-image"">
                    <div class=""question-area""></div> 
                </div>","null","","","","","","","",""
"","","","","","html-button-response","125","350122","0.0-125.0","08885A028E6C4113ADB0D655E7F86E46","019cef99-b625-753a-bf94-221992c779db","019cef87-c56d-7b55-9135-c5814367ec25","","965","
                <div class=""stimulus-container"">
                    <img src=""images/schematic_sequence/interview_scheme/interview_scheme_2.png"" class=""exp-image"">
                    <div class=""question-area"">
                        <p style=""font-size: 20px; font-weight: bold; margin: 0;"">Is there a person in this image?</p>
                    </div>
                </div>","1","main_experiment_trial","2","interview_scheme","schematic_sequence","","","",""
"","","","","","html-keyboard-response","126","355125","0.0-126.0","08885A028E6C4113ADB0D655E7F86E46","019cef99-b625-753a-bf94-221992c779db","019cef87-c56d-7b55-9135-c5814367ec25","","null","
                <div class=""stimulus-container"">
                    <img src=""images/schematic_sequence/interview_scheme/interview_scheme_3.png"" class=""exp-image"">
                    <div class=""question-area""></div> 
                </div>","null","","","","","","","",""
"","","","","","html-button-response","127","355589","0.0-127.0","08885A028E6C4113ADB0D655E7F86E46","019cef99-b625-753a-bf94-221992c779db","019cef87-c56d-7b55-9135-c5814367ec25","","463","
                <div class=""stimulus-container"">
                    <img src=""images/schematic_sequence/interview_scheme/interview_scheme_3.png"" class=""exp-image"">
                    <div class=""question-area"">
                        <p style=""font-size: 20px; font-weight: bold; margin: 0;"">Is there a person in this image?</p>
                    </div>
                </div>","1","main_experiment_trial","3","interview_scheme","schematic_sequence","","","",""
"","","","","","html-keyboard-response","128","360591","0.0-128.0","08885A028E6C4113ADB0D655E7F86E46","019cef99-b625-753a-bf94-221992c779db","019cef87-c56d-7b55-9135-c5814367ec25","","null","
                <div class=""stimulus-container"">
                    <img src=""images/schematic_sequence/interview_scheme/interview_scheme_4.png"" class=""exp-image"">
                    <div class=""question-area""></div> 
                </div>","null","","","","","","","",""
"","","","","","html-button-response","129","361172","0.0-129.0","08885A028E6C4113ADB0D655E7F86E46","019cef99-b625-753a-bf94-221992c779db","019cef87-c56d-7b55-9135-c5814367ec25","","580","
                <div class=""stimulus-container"">
                    <img src=""images/schematic_sequence/interview_scheme/interview_scheme_4.png"" class=""exp-image"">
                    <div class=""question-area"">
                        <p style=""font-size: 20px; font-weight: bold; margin: 0;"">Is there a person in this image?</p>
                    </div>
                </div>","1","main_experiment_trial","4","interview_scheme","schematic_sequence","","","",""
"","","","","","html-keyboard-response","130","366174","0.0-130.0","08885A028E6C4113ADB0D655E7F86E46","019cef99-b625-753a-bf94-221992c779db","019cef87-c56d-7b55-9135-c5814367ec25","","null","
                <div class=""stimulus-container"">
                    <img src=""images/schematic_sequence/interview_scheme/interview_scheme_5.png"" class=""exp-image"">
                    <div class=""question-area""></div> 
                </div>","null","","","","","","","",""
"","","","","","html-button-response","131","366604","0.0-131.0","08885A028E6C4113ADB0D655E7F86E46","019cef99-b625-753a-bf94-221992c779db","019cef87-c56d-7b55-9135-c5814367ec25","","428","
                <div class=""stimulus-container"">
                    <img src=""images/schematic_sequence/interview_scheme/interview_scheme_5.png"" class=""exp-image"">
                    <div class=""question-area"">
                        <p style=""font-size: 20px; font-weight: bold; margin: 0;"">Is there a person in this image?</p>
                    </div>
                </div>","0","main_experiment_trial","5","interview_scheme","schematic_sequence","","","",""
"","","","","","html-keyboard-response","132","371606","0.0-132.0","08885A028E6C4113ADB0D655E7F86E46","019cef99-b625-753a-bf94-221992c779db","019cef87-c56d-7b55-9135-c5814367ec25","","null","
                <div class=""stimulus-container"">
                    <img src=""images/schematic_sequence/interview_scheme/interview_scheme_6.png"" class=""exp-image"">
                    <div class=""question-area""></div> 
                </div>","null","","","","","","","",""
"","","","","","html-button-response","133","373987","0.0-133.0","08885A028E6C4113ADB0D655E7F86E46","019cef99-b625-753a-bf94-221992c779db","019cef87-c56d-7b55-9135-c5814367ec25","","2380","
                <div class=""stimulus-container"">
                    <img src=""images/schematic_sequence/interview_scheme/interview_scheme_6.png"" class=""exp-image"">
                    <div class=""question-area"">
                        <p style=""font-size: 20px; font-weight: bold; margin: 0;"">Is there a person in this image?</p>
                    </div>
                </div>","0","main_experiment_trial","6","interview_scheme","schematic_sequence","","","",""
"","","","","","html-keyboard-response","134","378990","0.0-134.0","08885A028E6C4113ADB0D655E7F86E46","019cef99-b625-753a-bf94-221992c779db","019cef87-c56d-7b55-9135-c5814367ec25","","null","
                <div class=""stimulus-container"">
                    <img src=""images/schematic_sequence/interview_scheme/interview_scheme_7.png"" class=""exp-image"">
                    <div class=""question-area""></div> 
                </div>","null","","","","","","","",""
"","","","","","html-button-response","135","379053","0.0-135.0","08885A028E6C4113ADB0D655E7F86E46","019cef99-b625-753a-bf94-221992c779db","019cef87-c56d-7b55-9135-c5814367ec25","","62","
                <div class=""stimulus-container"">
                    <img src=""images/schematic_sequence/interview_scheme/interview_scheme_7.png"" class=""exp-image"">
                    <div class=""question-area"">
                        <p style=""font-size: 20px; font-weight: bold; margin: 0;"">Is there a person in this image?</p>
                    </div>
                </div>","0","main_experiment_trial","7","interview_scheme","schematic_sequence","","","",""
"","","","","","html-keyboard-response","136","384056","0.0-136.0","08885A028E6C4113ADB0D655E7F86E46","019cef99-b625-753a-bf94-221992c779db","019cef87-c56d-7b55-9135-c5814367ec25","","null","
                <div class=""stimulus-container"">
                    <img src=""images/schematic_sequence/interview_scheme/interview_scheme_8.png"" class=""exp-image"">
                    <div class=""question-area""></div> 
                </div>","null","","","","","","","",""
"","","","","","html-button-response","137","384488","0.0-137.0","08885A028E6C4113ADB0D655E7F86E46","019cef99-b625-753a-bf94-221992c779db","019cef87-c56d-7b55-9135-c5814367ec25","","431","
                <div class=""stimulus-container"">
                    <img src=""images/schematic_sequence/interview_scheme/interview_scheme_8.png"" class=""exp-image"">
                    <div class=""question-area"">
                        <p style=""font-size: 20px; font-weight: bold; margin: 0;"">Is there a person in this image?</p>
                    </div>
                </div>","0","main_experiment_trial","8","interview_scheme","schematic_sequence","","","",""
"","","","","","html-keyboard-response","138","389490","0.0-138.0","08885A028E6C4113ADB0D655E7F86E46","019cef99-b625-753a-bf94-221992c779db","019cef87-c56d-7b55-9135-c5814367ec25","","null","
                <div class=""stimulus-container"">
                    <img src=""images/schematic_sequence/interview_scheme/interview_scheme_9.png"" class=""exp-image"">
                    <div class=""question-area""></div> 
                </div>","null","","","","","","","",""
"","","","","","html-button-response","139","389837","0.0-139.0","08885A028E6C4113ADB0D655E7F86E46","019cef99-b625-753a-bf94-221992c779db","019cef87-c56d-7b55-9135-c5814367ec25","","347","
                <div class=""stimulus-container"">
                    <img src=""images/schematic_sequence/interview_scheme/interview_scheme_9.png"" class=""exp-image"">
                    <div class=""question-area"">
                        <p style=""font-size: 20px; font-weight: bold; margin: 0;"">Is there a person in this image?</p>
                    </div>
                </div>","0","main_experiment_trial","9","interview_scheme","schematic_sequence","","","",""
"","","","","","html-keyboard-response","140","394840","0.0-140.0","08885A028E6C4113ADB0D655E7F86E46","019cef99-b625-753a-bf94-221992c779db","019cef87-c56d-7b55-9135-c5814367ec25","","null","
                <div class=""stimulus-container"">
                    <img src=""images/schematic_sequence/interview_scheme/interview_scheme_ten.png"" class=""exp-image"">
                    <div class=""question-area""></div> 
                </div>","null","","","","","","","",""
"","","","","","html-button-response","141","395322","0.0-141.0","08885A028E6C4113ADB0D655E7F86E46","019cef99-b625-753a-bf94-221992c779db","019cef87-c56d-7b55-9135-c5814367ec25","","481","
                <div class=""stimulus-container"">
                    <img src=""images/schematic_sequence/interview_scheme/interview_scheme_ten.png"" class=""exp-image"">
                    <div class=""question-area"">
                        <p style=""font-size: 20px; font-weight: bold; margin: 0;"">Is there a person in this image?</p>
                    </div>
                </div>","0","main_experiment_trial","ten","interview_scheme","schematic_sequence","","","",""
"","","","","","html-keyboard-response","142","396324","0.0-142.0","08885A028E6C4113ADB0D655E7F86E46","019cef99-b625-753a-bf94-221992c779db","019cef87-c56d-7b55-9135-c5814367ec25","","null","<div style=""background-color: white; width: 100vw; height: 100vh;""></div>","null","","","","","","","",""
"","","","","","html-keyboard-response","143","401327","0.0-143.0","08885A028E6C4113ADB0D655E7F86E46","019cef99-b625-753a-bf94-221992c779db","019cef87-c56d-7b55-9135-c5814367ec25","","null","
                <div class=""stimulus-container"">
                    <img src=""images/causal_sequence/package_causal/package_causal_1.png"" class=""exp-image"">
                    <div class=""question-area""></div> 
                </div>","null","","","","","","","",""
"","","","","","html-button-response","144","401838","0.0-144.0","08885A028E6C4113ADB0D655E7F86E46","019cef99-b625-753a-bf94-221992c779db","019cef87-c56d-7b55-9135-c5814367ec25","","509","
                <div class=""stimulus-container"">
                    <img src=""images/causal_sequence/package_causal/package_causal_1.png"" class=""exp-image"">
                    <div class=""question-area"">
                        <p style=""font-size: 20px; font-weight: bold; margin: 0;"">Is there a person in this image?</p>
                    </div>
                </div>","0","main_experiment_trial","1","package_causal","causal_sequence","","","",""
"","","","","","html-keyboard-response","145","406840","0.0-145.0","08885A028E6C4113ADB0D655E7F86E46","019cef99-b625-753a-bf94-221992c779db","019cef87-c56d-7b55-9135-c5814367ec25","","null","
                <div class=""stimulus-container"">
                    <img src=""images/causal_sequence/package_causal/package_causal_2.png"" class=""exp-image"">
                    <div class=""question-area""></div> 
                </div>","null","","","","","","","",""
"","","","","","html-button-response","146","409471","0.0-146.0","08885A028E6C4113ADB0D655E7F86E46","019cef99-b625-753a-bf94-221992c779db","019cef87-c56d-7b55-9135-c5814367ec25","","2630","
                <div class=""stimulus-container"">
                    <img src=""images/causal_sequence/package_causal/package_causal_2.png"" class=""exp-image"">
                    <div class=""question-area"">
                        <p style=""font-size: 20px; font-weight: bold; margin: 0;"">Is there a person in this image?</p>
                    </div>
                </div>","0","main_experiment_trial","2","package_causal","causal_sequence","","","",""
"","","","","","html-keyboard-response","147","414474","0.0-147.0","08885A028E6C4113ADB0D655E7F86E46","019cef99-b625-753a-bf94-221992c779db","019cef87-c56d-7b55-9135-c5814367ec25","","null","
                <div class=""stimulus-container"">
                    <img src=""images/causal_sequence/package_causal/package_causal_3.png"" class=""exp-image"">
                    <div class=""question-area""></div> 
                </div>","null","","","","","","","",""
"","","","","","html-button-response","148","416389","0.0-148.0","08885A028E6C4113ADB0D655E7F86E46","019cef99-b625-753a-bf94-221992c779db","019cef87-c56d-7b55-9135-c5814367ec25","","1914","
                <div class=""stimulus-container"">
                    <img src=""images/causal_sequence/package_causal/package_causal_3.png"" class=""exp-image"">
                    <div class=""question-area"">
                        <p style=""font-size: 20px; font-weight: bold; margin: 0;"">Is there a person in this image?</p>
                    </div>
                </div>","0","main_experiment_trial","3","package_causal","causal_sequence","","","",""
"","","","","","html-keyboard-response","149","421392","0.0-149.0","08885A028E6C4113ADB0D655E7F86E46","019cef99-b625-753a-bf94-221992c779db","019cef87-c56d-7b55-9135-c5814367ec25","","null","
                <div class=""stimulus-container"">
                    <img src=""images/causal_sequence/package_causal/package_causal_4.png"" class=""exp-image"">
                    <div class=""question-area""></div> 
                </div>","null","","","","","","","",""
"","","","","","html-button-response","150","422171","0.0-150.0","08885A028E6C4113ADB0D655E7F86E46","019cef99-b625-753a-bf94-221992c779db","019cef87-c56d-7b55-9135-c5814367ec25","","778","
                <div class=""stimulus-container"">
                    <img src=""images/causal_sequence/package_causal/package_causal_4.png"" class=""exp-image"">
                    <div class=""question-area"">
                        <p style=""font-size: 20px; font-weight: bold; margin: 0;"">Is there a person in this image?</p>
                    </div>
                </div>","1","main_experiment_trial","4","package_causal","causal_sequence","","","",""
"","","","","","html-keyboard-response","151","427173","0.0-151.0","08885A028E6C4113ADB0D655E7F86E46","019cef99-b625-753a-bf94-221992c779db","019cef87-c56d-7b55-9135-c5814367ec25","","null","
                <div class=""stimulus-container"">
                    <img src=""images/causal_sequence/package_causal/package_causal_5.png"" class=""exp-image"">
                    <div class=""question-area""></div> 
                </div>","null","","","","","","","",""
"","","","","","html-button-response","152","428372","0.0-152.0","08885A028E6C4113ADB0D655E7F86E46","019cef99-b625-753a-bf94-221992c779db","019cef87-c56d-7b55-9135-c5814367ec25","","1197","
                <div class=""stimulus-container"">
                    <img src=""images/causal_sequence/package_causal/package_causal_5.png"" class=""exp-image"">
                    <div class=""question-area"">
                        <p style=""font-size: 20px; font-weight: bold; margin: 0;"">Is there a person in this image?</p>
                    </div>
                </div>","0","main_experiment_trial","5","package_causal","causal_sequence","","","",""
"","","","","","html-keyboard-response","153","433374","0.0-153.0","08885A028E6C4113ADB0D655E7F86E46","019cef99-b625-753a-bf94-221992c779db","019cef87-c56d-7b55-9135-c5814367ec25","","null","
                <div class=""stimulus-container"">
                    <img src=""images/causal_sequence/package_causal/package_causal_6.png"" class=""exp-image"">
                    <div class=""question-area""></div> 
                </div>","null","","","","","","","",""
"","","","","","html-button-response","154","434073","0.0-154.0","08885A028E6C4113ADB0D655E7F86E46","019cef99-b625-753a-bf94-221992c779db","019cef87-c56d-7b55-9135-c5814367ec25","","698","
                <div class=""stimulus-container"">
                    <img src=""images/causal_sequence/package_causal/package_causal_6.png"" class=""exp-image"">
                    <div class=""question-area"">
                        <p style=""font-size: 20px; font-weight: bold; margin: 0;"">Is there a person in this image?</p>
                    </div>
                </div>","0","main_experiment_trial","6","package_causal","causal_sequence","","","",""
"","","","","","html-keyboard-response","155","439075","0.0-155.0","08885A028E6C4113ADB0D655E7F86E46","019cef99-b625-753a-bf94-221992c779db","019cef87-c56d-7b55-9135-c5814367ec25","","null","
                <div class=""stimulus-container"">
                    <img src=""images/causal_sequence/package_causal/package_causal_7.png"" class=""exp-image"">
                    <div class=""question-area""></div> 
                </div>","null","","","","","","","",""
"","","","","","html-button-response","156","439388","0.0-156.0","08885A028E6C4113ADB0D655E7F86E46","019cef99-b625-753a-bf94-221992c779db","019cef87-c56d-7b55-9135-c5814367ec25","","312","
                <div class=""stimulus-container"">
                    <img src=""images/causal_sequence/package_causal/package_causal_7.png"" class=""exp-image"">
                    <div class=""question-area"">
                        <p style=""font-size: 20px; font-weight: bold; margin: 0;"">Is there a person in this image?</p>
                    </div>
                </div>","0","main_experiment_trial","7","package_causal","causal_sequence","","","",""
"","","","","","html-keyboard-response","157","444390","0.0-157.0","08885A028E6C4113ADB0D655E7F86E46","019cef99-b625-753a-bf94-221992c779db","019cef87-c56d-7b55-9135-c5814367ec25","","null","
                <div class=""stimulus-container"">
                    <img src=""images/causal_sequence/package_causal/package_causal_8.png"" class=""exp-image"">
                    <div class=""question-area""></div> 
                </div>","null","","","","","","","",""
"","","","","","html-button-response","158","444906","0.0-158.0","08885A028E6C4113ADB0D655E7F86E46","019cef99-b625-753a-bf94-221992c779db","019cef87-c56d-7b55-9135-c5814367ec25","","515","
                <div class=""stimulus-container"">
                    <img src=""images/causal_sequence/package_causal/package_causal_8.png"" class=""exp-image"">
                    <div class=""question-area"">
                        <p style=""font-size: 20px; font-weight: bold; margin: 0;"">Is there a person in this image?</p>
                    </div>
                </div>","0","main_experiment_trial","8","package_causal","causal_sequence","","","",""
"","","","","","html-keyboard-response","159","449908","0.0-159.0","08885A028E6C4113ADB0D655E7F86E46","019cef99-b625-753a-bf94-221992c779db","019cef87-c56d-7b55-9135-c5814367ec25","","null","
                <div class=""stimulus-container"">
                    <img src=""images/causal_sequence/package_causal/package_causal_9.png"" class=""exp-image"">
                    <div class=""question-area""></div> 
                </div>","null","","","","","","","",""
"","","","","","html-button-response","160","450406","0.0-160.0","08885A028E6C4113ADB0D655E7F86E46","019cef99-b625-753a-bf94-221992c779db","019cef87-c56d-7b55-9135-c5814367ec25","","497","
                <div class=""stimulus-container"">
                    <img src=""images/causal_sequence/package_causal/package_causal_9.png"" class=""exp-image"">
                    <div class=""question-area"">
                        <p style=""font-size: 20px; font-weight: bold; margin: 0;"">Is there a person in this image?</p>
                    </div>
                </div>","0","main_experiment_trial","9","package_causal","causal_sequence","","","",""
"","","","","","html-keyboard-response","161","455408","0.0-161.0","08885A028E6C4113ADB0D655E7F86E46","019cef99-b625-753a-bf94-221992c779db","019cef87-c56d-7b55-9135-c5814367ec25","","null","
                <div class=""stimulus-container"">
                    <img src=""images/causal_sequence/package_causal/package_causal_ten.png"" class=""exp-image"">
                    <div class=""question-area""></div> 
                </div>","null","","","","","","","",""
"","","","","","html-button-response","162","455688","0.0-162.0","08885A028E6C4113ADB0D655E7F86E46","019cef99-b625-753a-bf94-221992c779db","019cef87-c56d-7b55-9135-c5814367ec25","","279","
                <div class=""stimulus-container"">
                    <img src=""images/causal_sequence/package_causal/package_causal_ten.png"" class=""exp-image"">
                    <div class=""question-area"">
                        <p style=""font-size: 20px; font-weight: bold; margin: 0;"">Is there a person in this image?</p>
                    </div>
                </div>","0","main_experiment_trial","ten","package_causal","causal_sequence","","","",""
"","","","","","html-keyboard-response","163","456690","0.0-163.0","08885A028E6C4113ADB0D655E7F86E46","019cef99-b625-753a-bf94-221992c779db","019cef87-c56d-7b55-9135-c5814367ec25","","null","<div style=""background-color: white; width: 100vw; height: 100vh;""></div>","null","","","","","","","",""
"","","","","","html-keyboard-response","164","461693","0.0-164.0","08885A028E6C4113ADB0D655E7F86E46","019cef99-b625-753a-bf94-221992c779db","019cef87-c56d-7b55-9135-c5814367ec25","","null","
                <div class=""stimulus-container"">
                    <img src=""images/causal_sequence/the_performance_causal/the_performance_causal_1.png"" class=""exp-image"">
                    <div class=""question-area""></div> 
                </div>","null","","","","","","","",""
"","","","","","html-button-response","165","461838","0.0-165.0","08885A028E6C4113ADB0D655E7F86E46","019cef99-b625-753a-bf94-221992c779db","019cef87-c56d-7b55-9135-c5814367ec25","","144","
                <div class=""stimulus-container"">
                    <img src=""images/causal_sequence/the_performance_causal/the_performance_causal_1.png"" class=""exp-image"">
                    <div class=""question-area"">
                        <p style=""font-size: 20px; font-weight: bold; margin: 0;"">Is there a person in this image?</p>
                    </div>
                </div>","0","main_experiment_trial","1","the_performance_causal","causal_sequence","","","",""
"","","","","","html-keyboard-response","166","466840","0.0-166.0","08885A028E6C4113ADB0D655E7F86E46","019cef99-b625-753a-bf94-221992c779db","019cef87-c56d-7b55-9135-c5814367ec25","","null","
                <div class=""stimulus-container"">
                    <img src=""images/causal_sequence/the_performance_causal/the_performance_causal_2.png"" class=""exp-image"">
                    <div class=""question-area""></div> 
                </div>","null","","","","","","","",""
"","","","","","html-button-response","167","468405","0.0-167.0","08885A028E6C4113ADB0D655E7F86E46","019cef99-b625-753a-bf94-221992c779db","019cef87-c56d-7b55-9135-c5814367ec25","","1564","
                <div class=""stimulus-container"">
                    <img src=""images/causal_sequence/the_performance_causal/the_performance_causal_2.png"" class=""exp-image"">
                    <div class=""question-area"">
                        <p style=""font-size: 20px; font-weight: bold; margin: 0;"">Is there a person in this image?</p>
                    </div>
                </div>","0","main_experiment_trial","2","the_performance_causal","causal_sequence","","","",""
"","","","","","html-keyboard-response","168","473407","0.0-168.0","08885A028E6C4113ADB0D655E7F86E46","019cef99-b625-753a-bf94-221992c779db","019cef87-c56d-7b55-9135-c5814367ec25","","null","
                <div class=""stimulus-container"">
                    <img src=""images/causal_sequence/the_performance_causal/the_performance_causal_3.png"" class=""exp-image"">
                    <div class=""question-area""></div> 
                </div>","null","","","","","","","",""
"","","","","","html-button-response","169","474638","0.0-169.0","08885A028E6C4113ADB0D655E7F86E46","019cef99-b625-753a-bf94-221992c779db","019cef87-c56d-7b55-9135-c5814367ec25","","1230","
                <div class=""stimulus-container"">
                    <img src=""images/causal_sequence/the_performance_causal/the_performance_causal_3.png"" class=""exp-image"">
                    <div class=""question-area"">
                        <p style=""font-size: 20px; font-weight: bold; margin: 0;"">Is there a person in this image?</p>
                    </div>
                </div>","0","main_experiment_trial","3","the_performance_causal","causal_sequence","","","",""
"","","","","","html-keyboard-response","170","479641","0.0-170.0","08885A028E6C4113ADB0D655E7F86E46","019cef99-b625-753a-bf94-221992c779db","019cef87-c56d-7b55-9135-c5814367ec25","","null","
                <div class=""stimulus-container"">
                    <img src=""images/causal_sequence/the_performance_causal/the_performance_causal_4.png"" class=""exp-image"">
                    <div class=""question-area""></div> 
                </div>","null","","","","","","","",""
"","","","","","html-button-response","171","480740","0.0-171.0","08885A028E6C4113ADB0D655E7F86E46","019cef99-b625-753a-bf94-221992c779db","019cef87-c56d-7b55-9135-c5814367ec25","","1097","
                <div class=""stimulus-container"">
                    <img src=""images/causal_sequence/the_performance_causal/the_performance_causal_4.png"" class=""exp-image"">
                    <div class=""question-area"">
                        <p style=""font-size: 20px; font-weight: bold; margin: 0;"">Is there a person in this image?</p>
                    </div>
                </div>","0","main_experiment_trial","4","the_performance_causal","causal_sequence","","","",""
"","","","","","html-keyboard-response","172","485743","0.0-172.0","08885A028E6C4113ADB0D655E7F86E46","019cef99-b625-753a-bf94-221992c779db","019cef87-c56d-7b55-9135-c5814367ec25","","null","
                <div class=""stimulus-container"">
                    <img src=""images/causal_sequence/the_performance_causal/the_performance_causal_5.png"" class=""exp-image"">
                    <div class=""question-area""></div> 
                </div>","null","","","","","","","",""
"","","","","","html-button-response","173","488745","0.0-173.0","08885A028E6C4113ADB0D655E7F86E46","019cef99-b625-753a-bf94-221992c779db","019cef87-c56d-7b55-9135-c5814367ec25","","null","
                <div class=""stimulus-container"">
                    <img src=""images/causal_sequence/the_performance_causal/the_performance_causal_5.png"" class=""exp-image"">
                    <div class=""question-area"">
                        <p style=""font-size: 20px; font-weight: bold; margin: 0;"">Is there a person in this image?</p>
                    </div>
                </div>","null","main_experiment_trial","5","the_performance_causal","causal_sequence","","","",""
"","","","","","html-keyboard-response","174","493747","0.0-174.0","08885A028E6C4113ADB0D655E7F86E46","019cef99-b625-753a-bf94-221992c779db","019cef87-c56d-7b55-9135-c5814367ec25","","null","
                <div class=""stimulus-container"">
                    <img src=""images/causal_sequence/the_performance_causal/the_performance_causal_6.png"" class=""exp-image"">
                    <div class=""question-area""></div> 
                </div>","null","","","","","","","",""
"","","","","","html-button-response","175","496555","0.0-175.0","08885A028E6C4113ADB0D655E7F86E46","019cef99-b625-753a-bf94-221992c779db","019cef87-c56d-7b55-9135-c5814367ec25","","2806","
                <div class=""stimulus-container"">
                    <img src=""images/causal_sequence/the_performance_causal/the_performance_causal_6.png"" class=""exp-image"">
                    <div class=""question-area"">
                        <p style=""font-size: 20px; font-weight: bold; margin: 0;"">Is there a person in this image?</p>
                    </div>
                </div>","0","main_experiment_trial","6","the_performance_causal","causal_sequence","","","",""
"","","","","","html-keyboard-response","176","501558","0.0-176.0","08885A028E6C4113ADB0D655E7F86E46","019cef99-b625-753a-bf94-221992c779db","019cef87-c56d-7b55-9135-c5814367ec25","","null","
                <div class=""stimulus-container"">
                    <img src=""images/causal_sequence/the_performance_causal/the_performance_causal_7.png"" class=""exp-image"">
                    <div class=""question-area""></div> 
                </div>","null","","","","","","","",""
"","","","","","html-button-response","177","503588","0.0-177.0","08885A028E6C4113ADB0D655E7F86E46","019cef99-b625-753a-bf94-221992c779db","019cef87-c56d-7b55-9135-c5814367ec25","","2030","
                <div class=""stimulus-container"">
                    <img src=""images/causal_sequence/the_performance_causal/the_performance_causal_7.png"" class=""exp-image"">
                    <div class=""question-area"">
                        <p style=""font-size: 20px; font-weight: bold; margin: 0;"">Is there a person in this image?</p>
                    </div>
                </div>","0","main_experiment_trial","7","the_performance_causal","causal_sequence","","","",""
"","","","","","html-keyboard-response","178","508591","0.0-178.0","08885A028E6C4113ADB0D655E7F86E46","019cef99-b625-753a-bf94-221992c779db","019cef87-c56d-7b55-9135-c5814367ec25","","null","
                <div class=""stimulus-container"">
                    <img src=""images/causal_sequence/the_performance_causal/the_performance_causal_8.png"" class=""exp-image"">
                    <div class=""question-area""></div> 
                </div>","null","","","","","","","",""
"","","","","","html-button-response","179","511593","0.0-179.0","08885A028E6C4113ADB0D655E7F86E46","019cef99-b625-753a-bf94-221992c779db","019cef87-c56d-7b55-9135-c5814367ec25","","null","
                <div class=""stimulus-container"">
                    <img src=""images/causal_sequence/the_performance_causal/the_performance_causal_8.png"" class=""exp-image"">
                    <div class=""question-area"">
                        <p style=""font-size: 20px; font-weight: bold; margin: 0;"">Is there a person in this image?</p>
                    </div>
                </div>","null","main_experiment_trial","8","the_performance_causal","causal_sequence","","","",""
"","","","","","html-keyboard-response","180","516595","0.0-180.0","08885A028E6C4113ADB0D655E7F86E46","019cef99-b625-753a-bf94-221992c779db","019cef87-c56d-7b55-9135-c5814367ec25","","null","
                <div class=""stimulus-container"">
                    <img src=""images/causal_sequence/the_performance_causal/the_performance_causal_9.png"" class=""exp-image"">
                    <div class=""question-area""></div> 
                </div>","null","","","","","","","",""
"","","","","","html-button-response","181","519598","0.0-181.0","08885A028E6C4113ADB0D655E7F86E46","019cef99-b625-753a-bf94-221992c779db","019cef87-c56d-7b55-9135-c5814367ec25","","null","
                <div class=""stimulus-container"">
                    <img src=""images/causal_sequence/the_performance_causal/the_performance_causal_9.png"" class=""exp-image"">
                    <div class=""question-area"">
                        <p style=""font-size: 20px; font-weight: bold; margin: 0;"">Is there a person in this image?</p>
                    </div>
                </div>","null","main_experiment_trial","9","the_performance_causal","causal_sequence","","","",""
"","","","","","html-keyboard-response","182","524600","0.0-182.0","08885A028E6C4113ADB0D655E7F86E46","019cef99-b625-753a-bf94-221992c779db","019cef87-c56d-7b55-9135-c5814367ec25","","null","
                <div class=""stimulus-container"">
                    <img src=""images/causal_sequence/the_performance_causal/the_performance_causal_ten.png"" class=""exp-image"">
                    <div class=""question-area""></div> 
                </div>","null","","","","","","","",""
"","","","","","html-button-response","183","525821","0.0-183.0","08885A028E6C4113ADB0D655E7F86E46","019cef99-b625-753a-bf94-221992c779db","019cef87-c56d-7b55-9135-c5814367ec25","","1220","
                <div class=""stimulus-container"">
                    <img src=""images/causal_sequence/the_performance_causal/the_performance_causal_ten.png"" class=""exp-image"">
                    <div class=""question-area"">
                        <p style=""font-size: 20px; font-weight: bold; margin: 0;"">Is there a person in this image?</p>
                    </div>
                </div>","0","main_experiment_trial","ten","the_performance_causal","causal_sequence","","","",""
"","","","","","html-keyboard-response","184","526824","0.0-184.0","08885A028E6C4113ADB0D655E7F86E46","019cef99-b625-753a-bf94-221992c779db","019cef87-c56d-7b55-9135-c5814367ec25","","null","<div style=""background-color: white; width: 100vw; height: 100vh;""></div>","null","","","","","","","",""
