"success","timeout","failed_images","failed_audio","failed_video","trial_type","trial_index","time_elapsed","internal_node_id","subject_id","study_id","session_id","view_history","rt","stimulus","response","task","image_index","folder","valuable_image_index","valuable_X","chosen_image_index","distance_from_X"
"false","false","[]","[]","[]","preload","0","2198","0.0-0.0","76B4C3F69B37417CABF3D8F6DB1D82EF","019ce7af-3fb0-7fae-8571-3d50f3cd3b8b","019ce7a0-0965-7aa7-a556-174d32a8e773","","","","","","","","","","",""
"","","","","","instructions","1","3971","0.0-1.0","76B4C3F69B37417CABF3D8F6DB1D82EF","019ce7af-3fb0-7fae-8571-3d50f3cd3b8b","019ce7a0-0965-7aa7-a556-174d32a8e773","[{""page_index"":0,""viewing_time"":1772}]","1772","","","","","","","","",""
"","","","","","instructions","2","7506","0.0-2.0","76B4C3F69B37417CABF3D8F6DB1D82EF","019ce7af-3fb0-7fae-8571-3d50f3cd3b8b","019ce7a0-0965-7aa7-a556-174d32a8e773","[{""page_index"":0,""viewing_time"":3534}]","3534","","","","","","","","",""
"true","","","","","fullscreen","3","10276","0.0-3.0","76B4C3F69B37417CABF3D8F6DB1D82EF","019ce7af-3fb0-7fae-8571-3d50f3cd3b8b","019ce7a0-0965-7aa7-a556-174d32a8e773","","1759","","","","","","","","",""
"","","","","","instructions","4","16875","0.0-4.0","76B4C3F69B37417CABF3D8F6DB1D82EF","019ce7af-3fb0-7fae-8571-3d50f3cd3b8b","019ce7a0-0965-7aa7-a556-174d32a8e773","[{""page_index"":0,""viewing_time"":6597}]","6597","","","","","","","","",""
"","","","","","instructions","5","25579","0.0-5.0","76B4C3F69B37417CABF3D8F6DB1D82EF","019ce7af-3fb0-7fae-8571-3d50f3cd3b8b","019ce7a0-0965-7aa7-a556-174d32a8e773","[{""page_index"":0,""viewing_time"":8703}]","8704","","","","","","","","",""
"","","","","","html-keyboard-response","6","29591","0.0-6.0","76B4C3F69B37417CABF3D8F6DB1D82EF","019ce7af-3fb0-7fae-8571-3d50f3cd3b8b","019ce7a0-0965-7aa7-a556-174d32a8e773","","null","
                <div class=""stimulus-container"">
                    <img src=""images/instructions/movie_1.png"" class=""exp-image"">
                    <div class=""question-area""></div> 
                </div>","null","","","","","","",""
"","","","","","html-button-response","7","31067","0.0-7.0","76B4C3F69B37417CABF3D8F6DB1D82EF","019ce7af-3fb0-7fae-8571-3d50f3cd3b8b","019ce7a0-0965-7aa7-a556-174d32a8e773","","1474","
                <div class=""stimulus-container"">
                    <img src=""images/instructions/movie_1.png"" class=""exp-image"">
                    <div class=""question-area"">
                        <p style=""font-size: 20px; font-weight: bold; margin: 0;"">Was there a person in this image?</p>
                    </div>
                </div>","0","example_question","1","","","","",""
"","","","","","html-keyboard-response","8","35071","0.0-8.0","76B4C3F69B37417CABF3D8F6DB1D82EF","019ce7af-3fb0-7fae-8571-3d50f3cd3b8b","019ce7a0-0965-7aa7-a556-174d32a8e773","","null","
                <div class=""stimulus-container"">
                    <img src=""images/instructions/movie_2.png"" class=""exp-image"">
                    <div class=""question-area""></div> 
                </div>","null","","","","","","",""
"","","","","","html-button-response","9","35947","0.0-9.0","76B4C3F69B37417CABF3D8F6DB1D82EF","019ce7af-3fb0-7fae-8571-3d50f3cd3b8b","019ce7a0-0965-7aa7-a556-174d32a8e773","","875","
                <div class=""stimulus-container"">
                    <img src=""images/instructions/movie_2.png"" class=""exp-image"">
                    <div class=""question-area"">
                        <p style=""font-size: 20px; font-weight: bold; margin: 0;"">Was there a person in this image?</p>
                    </div>
                </div>","0","example_question","2","","","","",""
"","","","","","html-keyboard-response","10","39951","0.0-10.0","76B4C3F69B37417CABF3D8F6DB1D82EF","019ce7af-3fb0-7fae-8571-3d50f3cd3b8b","019ce7a0-0965-7aa7-a556-174d32a8e773","","null","
                <div class=""stimulus-container"">
                    <img src=""images/instructions/movie_3.png"" class=""exp-image"">
                    <div class=""question-area""></div> 
                </div>","null","","","","","","",""
"","","","","","html-button-response","11","40740","0.0-11.0","76B4C3F69B37417CABF3D8F6DB1D82EF","019ce7af-3fb0-7fae-8571-3d50f3cd3b8b","019ce7a0-0965-7aa7-a556-174d32a8e773","","787","
                <div class=""stimulus-container"">
                    <img src=""images/instructions/movie_3.png"" class=""exp-image"">
                    <div class=""question-area"">
                        <p style=""font-size: 20px; font-weight: bold; margin: 0;"">Was there a person in this image?</p>
                    </div>
                </div>","0","example_question","3","","","","",""
"","","","","","html-keyboard-response","12","44743","0.0-12.0","76B4C3F69B37417CABF3D8F6DB1D82EF","019ce7af-3fb0-7fae-8571-3d50f3cd3b8b","019ce7a0-0965-7aa7-a556-174d32a8e773","","null","
                <div class=""stimulus-container"">
                    <img src=""images/instructions/movie_4.png"" class=""exp-image"">
                    <div class=""question-area""></div> 
                </div>","null","","","","","","",""
"","","","","","html-button-response","13","45219","0.0-13.0","76B4C3F69B37417CABF3D8F6DB1D82EF","019ce7af-3fb0-7fae-8571-3d50f3cd3b8b","019ce7a0-0965-7aa7-a556-174d32a8e773","","475","
                <div class=""stimulus-container"">
                    <img src=""images/instructions/movie_4.png"" class=""exp-image"">
                    <div class=""question-area"">
                        <p style=""font-size: 20px; font-weight: bold; margin: 0;"">Was there a person in this image?</p>
                    </div>
                </div>","0","example_question","4","","","","",""
"","","","","","instructions","14","48019","0.0-14.0","76B4C3F69B37417CABF3D8F6DB1D82EF","019ce7af-3fb0-7fae-8571-3d50f3cd3b8b","019ce7a0-0965-7aa7-a556-174d32a8e773","[{""page_index"":0,""viewing_time"":2799}]","2800","","","","","","","","",""
"","","","","","html-keyboard-response","15","49027","0.0-15.0","76B4C3F69B37417CABF3D8F6DB1D82EF","019ce7af-3fb0-7fae-8571-3d50f3cd3b8b","019ce7a0-0965-7aa7-a556-174d32a8e773","","null","<div style=""background-color: gray; width: 100vw; height: 100vh;""></div>","null","","","","","","",""
"","","","","","html-keyboard-response","16","54033","0.0-16.0","76B4C3F69B37417CABF3D8F6DB1D82EF","019ce7af-3fb0-7fae-8571-3d50f3cd3b8b","019ce7a0-0965-7aa7-a556-174d32a8e773","","null","
                    <div class=""stimulus-container"">
                        <img src=""images/causal_sequence/dog_causal/dog_causal_1.png"" class=""exp-image"">
                        <div class=""question-area""></div> 
                    </div>","null","","","","","","",""
"","","","","","html-button-response","17","55068","0.0-17.0","76B4C3F69B37417CABF3D8F6DB1D82EF","019ce7af-3fb0-7fae-8571-3d50f3cd3b8b","019ce7a0-0965-7aa7-a556-174d32a8e773","","1033","
                    <div class=""stimulus-container"">
                        <img src=""images/causal_sequence/dog_causal/dog_causal_1.png"" class=""exp-image"">
                        <div class=""question-area"">
                            <p style=""font-size: 20px; font-weight: bold; margin: 0;"">Is there a person in this image?</p>
                        </div>
                    </div>","0","main_causal_task","1","dog_causal","","","",""
"","","","","","html-keyboard-response","18","60074","0.0-18.0","76B4C3F69B37417CABF3D8F6DB1D82EF","019ce7af-3fb0-7fae-8571-3d50f3cd3b8b","019ce7a0-0965-7aa7-a556-174d32a8e773","","null","
                    <div class=""stimulus-container"">
                        <img src=""images/causal_sequence/dog_causal/dog_causal_2.png"" class=""exp-image"">
                        <div class=""question-area""></div> 
                    </div>","null","","","","","","",""
"","","","","","html-button-response","19","60637","0.0-19.0","76B4C3F69B37417CABF3D8F6DB1D82EF","019ce7af-3fb0-7fae-8571-3d50f3cd3b8b","019ce7a0-0965-7aa7-a556-174d32a8e773","","562","
                    <div class=""stimulus-container"">
                        <img src=""images/causal_sequence/dog_causal/dog_causal_2.png"" class=""exp-image"">
                        <div class=""question-area"">
                            <p style=""font-size: 20px; font-weight: bold; margin: 0;"">Is there a person in this image?</p>
                        </div>
                    </div>","0","main_causal_task","2","dog_causal","","","",""
"","","","","","html-keyboard-response","20","65647","0.0-20.0","76B4C3F69B37417CABF3D8F6DB1D82EF","019ce7af-3fb0-7fae-8571-3d50f3cd3b8b","019ce7a0-0965-7aa7-a556-174d32a8e773","","null","
                    <div class=""stimulus-container"">
                        <img src=""images/causal_sequence/dog_causal/dog_causal_3.png"" class=""exp-image"">
                        <div class=""question-area""></div> 
                    </div>","null","","","","","","",""
"","","","","","html-button-response","21","66221","0.0-21.0","76B4C3F69B37417CABF3D8F6DB1D82EF","019ce7af-3fb0-7fae-8571-3d50f3cd3b8b","019ce7a0-0965-7aa7-a556-174d32a8e773","","572","
                    <div class=""stimulus-container"">
                        <img src=""images/causal_sequence/dog_causal/dog_causal_3.png"" class=""exp-image"">
                        <div class=""question-area"">
                            <p style=""font-size: 20px; font-weight: bold; margin: 0;"">Is there a person in this image?</p>
                        </div>
                    </div>","0","main_causal_task","3","dog_causal","","","",""
"","","","","","html-keyboard-response","22","71223","0.0-22.0","76B4C3F69B37417CABF3D8F6DB1D82EF","019ce7af-3fb0-7fae-8571-3d50f3cd3b8b","019ce7a0-0965-7aa7-a556-174d32a8e773","","null","
                    <div class=""stimulus-container"">
                        <img src=""images/causal_sequence/dog_causal/dog_causal_4.png"" class=""exp-image"">
                        <div class=""question-area""></div> 
                    </div>","null","","","","","","",""
"","","","","","html-button-response","23","71781","0.0-23.0","76B4C3F69B37417CABF3D8F6DB1D82EF","019ce7af-3fb0-7fae-8571-3d50f3cd3b8b","019ce7a0-0965-7aa7-a556-174d32a8e773","","557","
                    <div class=""stimulus-container"">
                        <img src=""images/causal_sequence/dog_causal/dog_causal_4.png"" class=""exp-image"">
                        <div class=""question-area"">
                            <p style=""font-size: 20px; font-weight: bold; margin: 0;"">Is there a person in this image?</p>
                        </div>
                    </div>","0","main_causal_task","4","dog_causal","","","",""
"","","","","","html-keyboard-response","24","76796","0.0-24.0","76B4C3F69B37417CABF3D8F6DB1D82EF","019ce7af-3fb0-7fae-8571-3d50f3cd3b8b","019ce7a0-0965-7aa7-a556-174d32a8e773","","null","
                    <div class=""stimulus-container"">
                        <img src=""images/causal_sequence/dog_causal/dog_causal_5.png"" class=""exp-image"">
                        <div class=""question-area""></div> 
                    </div>","null","","","","","","",""
"","","","","","html-button-response","25","77357","0.0-25.0","76B4C3F69B37417CABF3D8F6DB1D82EF","019ce7af-3fb0-7fae-8571-3d50f3cd3b8b","019ce7a0-0965-7aa7-a556-174d32a8e773","","559","
                    <div class=""stimulus-container"">
                        <img src=""images/causal_sequence/dog_causal/dog_causal_5.png"" class=""exp-image"">
                        <div class=""question-area"">
                            <p style=""font-size: 20px; font-weight: bold; margin: 0;"">Is there a person in this image?</p>
                        </div>
                    </div>","0","main_causal_task","5","dog_causal","","","",""
"","","","","","html-keyboard-response","26","82368","0.0-26.0","76B4C3F69B37417CABF3D8F6DB1D82EF","019ce7af-3fb0-7fae-8571-3d50f3cd3b8b","019ce7a0-0965-7aa7-a556-174d32a8e773","","null","
                    <div class=""stimulus-container"">
                        <img src=""images/causal_sequence/dog_causal/dog_causal_6.png"" class=""exp-image"">
                        <div class=""question-area""></div> 
                    </div>","null","","","","","","",""
"","","","","","html-button-response","27","82949","0.0-27.0","76B4C3F69B37417CABF3D8F6DB1D82EF","019ce7af-3fb0-7fae-8571-3d50f3cd3b8b","019ce7a0-0965-7aa7-a556-174d32a8e773","","580","
                    <div class=""stimulus-container"">
                        <img src=""images/causal_sequence/dog_causal/dog_causal_6.png"" class=""exp-image"">
                        <div class=""question-area"">
                            <p style=""font-size: 20px; font-weight: bold; margin: 0;"">Is there a person in this image?</p>
                        </div>
                    </div>","0","main_causal_task","6","dog_causal","","","",""
"","","","","","html-keyboard-response","28","87953","0.0-28.0","76B4C3F69B37417CABF3D8F6DB1D82EF","019ce7af-3fb0-7fae-8571-3d50f3cd3b8b","019ce7a0-0965-7aa7-a556-174d32a8e773","","null","
                    <div class=""stimulus-container"">
                        <img src=""images/causal_sequence/dog_causal/dog_causal_7.png"" class=""exp-image"">
                        <div class=""question-area""></div> 
                    </div>","null","","","","","","",""
"","","","","","html-button-response","29","88636","0.0-29.0","76B4C3F69B37417CABF3D8F6DB1D82EF","019ce7af-3fb0-7fae-8571-3d50f3cd3b8b","019ce7a0-0965-7aa7-a556-174d32a8e773","","682","
                    <div class=""stimulus-container"">
                        <img src=""images/causal_sequence/dog_causal/dog_causal_7.png"" class=""exp-image"">
                        <div class=""question-area"">
                            <p style=""font-size: 20px; font-weight: bold; margin: 0;"">Is there a person in this image?</p>
                        </div>
                    </div>","0","main_causal_task","7","dog_causal","","","",""
"","","","","","html-keyboard-response","30","93639","0.0-30.0","76B4C3F69B37417CABF3D8F6DB1D82EF","019ce7af-3fb0-7fae-8571-3d50f3cd3b8b","019ce7a0-0965-7aa7-a556-174d32a8e773","","null","
                    <div class=""stimulus-container"">
                        <img src=""images/causal_sequence/dog_causal/dog_causal_8.png"" class=""exp-image"">
                        <div class=""question-area""></div> 
                    </div>","null","","","","","","",""
"","","","","","html-button-response","31","94101","0.0-31.0","76B4C3F69B37417CABF3D8F6DB1D82EF","019ce7af-3fb0-7fae-8571-3d50f3cd3b8b","019ce7a0-0965-7aa7-a556-174d32a8e773","","461","
                    <div class=""stimulus-container"">
                        <img src=""images/causal_sequence/dog_causal/dog_causal_8.png"" class=""exp-image"">
                        <div class=""question-area"">
                            <p style=""font-size: 20px; font-weight: bold; margin: 0;"">Is there a person in this image?</p>
                        </div>
                    </div>","0","main_causal_task","8","dog_causal","","","",""
"","","","","","html-keyboard-response","32","99110","0.0-32.0","76B4C3F69B37417CABF3D8F6DB1D82EF","019ce7af-3fb0-7fae-8571-3d50f3cd3b8b","019ce7a0-0965-7aa7-a556-174d32a8e773","","null","
                    <div class=""stimulus-container"">
                        <img src=""images/causal_sequence/dog_causal/dog_causal_9.png"" class=""exp-image"">
                        <div class=""question-area""></div> 
                    </div>","null","","","","","","",""
"","","","","","html-button-response","33","99653","0.0-33.0","76B4C3F69B37417CABF3D8F6DB1D82EF","019ce7af-3fb0-7fae-8571-3d50f3cd3b8b","019ce7a0-0965-7aa7-a556-174d32a8e773","","542","
                    <div class=""stimulus-container"">
                        <img src=""images/causal_sequence/dog_causal/dog_causal_9.png"" class=""exp-image"">
                        <div class=""question-area"">
                            <p style=""font-size: 20px; font-weight: bold; margin: 0;"">Is there a person in this image?</p>
                        </div>
                    </div>","0","main_causal_task","9","dog_causal","","","",""
"","","","","","html-keyboard-response","34","100664","0.0-34.0","76B4C3F69B37417CABF3D8F6DB1D82EF","019ce7af-3fb0-7fae-8571-3d50f3cd3b8b","019ce7a0-0965-7aa7-a556-174d32a8e773","","null","<div style=""background-color: gray; width: 100vw; height: 100vh;""></div>","null","","","","","","",""
"","","","","","html-keyboard-response","35","105675","0.0-35.0","76B4C3F69B37417CABF3D8F6DB1D82EF","019ce7af-3fb0-7fae-8571-3d50f3cd3b8b","019ce7a0-0965-7aa7-a556-174d32a8e773","","null","
                    <div class=""stimulus-container"">
                        <img src=""images/causal_sequence/coin_causal/coin_causal_1.png"" class=""exp-image"">
                        <div class=""question-area""></div> 
                    </div>","null","","","","","","",""
"","","","","","html-button-response","36","106901","0.0-36.0","76B4C3F69B37417CABF3D8F6DB1D82EF","019ce7af-3fb0-7fae-8571-3d50f3cd3b8b","019ce7a0-0965-7aa7-a556-174d32a8e773","","1225","
                    <div class=""stimulus-container"">
                        <img src=""images/causal_sequence/coin_causal/coin_causal_1.png"" class=""exp-image"">
                        <div class=""question-area"">
                            <p style=""font-size: 20px; font-weight: bold; margin: 0;"">Is there a person in this image?</p>
                        </div>
                    </div>","0","main_causal_task","1","coin_causal","","","",""
"","","","","","html-keyboard-response","37","111911","0.0-37.0","76B4C3F69B37417CABF3D8F6DB1D82EF","019ce7af-3fb0-7fae-8571-3d50f3cd3b8b","019ce7a0-0965-7aa7-a556-174d32a8e773","","null","
                    <div class=""stimulus-container"">
                        <img src=""images/causal_sequence/coin_causal/coin_causal_2.png"" class=""exp-image"">
                        <div class=""question-area""></div> 
                    </div>","null","","","","","","",""
"","","","","","html-button-response","38","112734","0.0-38.0","76B4C3F69B37417CABF3D8F6DB1D82EF","019ce7af-3fb0-7fae-8571-3d50f3cd3b8b","019ce7a0-0965-7aa7-a556-174d32a8e773","","821","
                    <div class=""stimulus-container"">
                        <img src=""images/causal_sequence/coin_causal/coin_causal_2.png"" class=""exp-image"">
                        <div class=""question-area"">
                            <p style=""font-size: 20px; font-weight: bold; margin: 0;"">Is there a person in this image?</p>
                        </div>
                    </div>","0","main_causal_task","2","coin_causal","","","",""
"","","","","","html-keyboard-response","39","117743","0.0-39.0","76B4C3F69B37417CABF3D8F6DB1D82EF","019ce7af-3fb0-7fae-8571-3d50f3cd3b8b","019ce7a0-0965-7aa7-a556-174d32a8e773","","null","
                    <div class=""stimulus-container"">
                        <img src=""images/causal_sequence/coin_causal/coin_causal_3.png"" class=""exp-image"">
                        <div class=""question-area""></div> 
                    </div>","null","","","","","","",""
"","","","","","html-button-response","40","118326","0.0-40.0","76B4C3F69B37417CABF3D8F6DB1D82EF","019ce7af-3fb0-7fae-8571-3d50f3cd3b8b","019ce7a0-0965-7aa7-a556-174d32a8e773","","582","
                    <div class=""stimulus-container"">
                        <img src=""images/causal_sequence/coin_causal/coin_causal_3.png"" class=""exp-image"">
                        <div class=""question-area"">
                            <p style=""font-size: 20px; font-weight: bold; margin: 0;"">Is there a person in this image?</p>
                        </div>
                    </div>","0","main_causal_task","3","coin_causal","","","",""
"","","","","","html-keyboard-response","41","123330","0.0-41.0","76B4C3F69B37417CABF3D8F6DB1D82EF","019ce7af-3fb0-7fae-8571-3d50f3cd3b8b","019ce7a0-0965-7aa7-a556-174d32a8e773","","null","
                    <div class=""stimulus-container"">
                        <img src=""images/causal_sequence/coin_causal/coin_causal_4.png"" class=""exp-image"">
                        <div class=""question-area""></div> 
                    </div>","null","","","","","","",""
"","","","","","html-button-response","42","124062","0.0-42.0","76B4C3F69B37417CABF3D8F6DB1D82EF","019ce7af-3fb0-7fae-8571-3d50f3cd3b8b","019ce7a0-0965-7aa7-a556-174d32a8e773","","730","
                    <div class=""stimulus-container"">
                        <img src=""images/causal_sequence/coin_causal/coin_causal_4.png"" class=""exp-image"">
                        <div class=""question-area"">
                            <p style=""font-size: 20px; font-weight: bold; margin: 0;"">Is there a person in this image?</p>
                        </div>
                    </div>","0","main_causal_task","4","coin_causal","","","",""
"","","","","","html-keyboard-response","43","129074","0.0-43.0","76B4C3F69B37417CABF3D8F6DB1D82EF","019ce7af-3fb0-7fae-8571-3d50f3cd3b8b","019ce7a0-0965-7aa7-a556-174d32a8e773","","null","
                    <div class=""stimulus-container"">
                        <img src=""images/causal_sequence/coin_causal/coin_causal_5.png"" class=""exp-image"">
                        <div class=""question-area""></div> 
                    </div>","null","","","","","","",""
"","","","","","html-button-response","44","129614","0.0-44.0","76B4C3F69B37417CABF3D8F6DB1D82EF","019ce7af-3fb0-7fae-8571-3d50f3cd3b8b","019ce7a0-0965-7aa7-a556-174d32a8e773","","539","
                    <div class=""stimulus-container"">
                        <img src=""images/causal_sequence/coin_causal/coin_causal_5.png"" class=""exp-image"">
                        <div class=""question-area"">
                            <p style=""font-size: 20px; font-weight: bold; margin: 0;"">Is there a person in this image?</p>
                        </div>
                    </div>","0","main_causal_task","5","coin_causal","","","",""
"","","","","","html-keyboard-response","45","134617","0.0-45.0","76B4C3F69B37417CABF3D8F6DB1D82EF","019ce7af-3fb0-7fae-8571-3d50f3cd3b8b","019ce7a0-0965-7aa7-a556-174d32a8e773","","null","
                    <div class=""stimulus-container"">
                        <img src=""images/causal_sequence/coin_causal/coin_causal_6.png"" class=""exp-image"">
                        <div class=""question-area""></div> 
                    </div>","null","","","","","","",""
"","","","","","html-button-response","46","135079","0.0-46.0","76B4C3F69B37417CABF3D8F6DB1D82EF","019ce7af-3fb0-7fae-8571-3d50f3cd3b8b","019ce7a0-0965-7aa7-a556-174d32a8e773","","460","
                    <div class=""stimulus-container"">
                        <img src=""images/causal_sequence/coin_causal/coin_causal_6.png"" class=""exp-image"">
                        <div class=""question-area"">
                            <p style=""font-size: 20px; font-weight: bold; margin: 0;"">Is there a person in this image?</p>
                        </div>
                    </div>","0","main_causal_task","6","coin_causal","","","",""
"","","","","","html-keyboard-response","47","140087","0.0-47.0","76B4C3F69B37417CABF3D8F6DB1D82EF","019ce7af-3fb0-7fae-8571-3d50f3cd3b8b","019ce7a0-0965-7aa7-a556-174d32a8e773","","null","
                    <div class=""stimulus-container"">
                        <img src=""images/causal_sequence/coin_causal/coin_causal_7.png"" class=""exp-image"">
                        <div class=""question-area""></div> 
                    </div>","null","","","","","","",""
"","","","","","html-button-response","48","140910","0.0-48.0","76B4C3F69B37417CABF3D8F6DB1D82EF","019ce7af-3fb0-7fae-8571-3d50f3cd3b8b","019ce7a0-0965-7aa7-a556-174d32a8e773","","823","
                    <div class=""stimulus-container"">
                        <img src=""images/causal_sequence/coin_causal/coin_causal_7.png"" class=""exp-image"">
                        <div class=""question-area"">
                            <p style=""font-size: 20px; font-weight: bold; margin: 0;"">Is there a person in this image?</p>
                        </div>
                    </div>","1","main_causal_task","7","coin_causal","","","",""
"","","","","","html-keyboard-response","49","145912","0.0-49.0","76B4C3F69B37417CABF3D8F6DB1D82EF","019ce7af-3fb0-7fae-8571-3d50f3cd3b8b","019ce7a0-0965-7aa7-a556-174d32a8e773","","null","
                    <div class=""stimulus-container"">
                        <img src=""images/causal_sequence/coin_causal/coin_causal_8.png"" class=""exp-image"">
                        <div class=""question-area""></div> 
                    </div>","null","","","","","","",""
"","","","","","html-button-response","50","146703","0.0-50.0","76B4C3F69B37417CABF3D8F6DB1D82EF","019ce7af-3fb0-7fae-8571-3d50f3cd3b8b","019ce7a0-0965-7aa7-a556-174d32a8e773","","789","
                    <div class=""stimulus-container"">
                        <img src=""images/causal_sequence/coin_causal/coin_causal_8.png"" class=""exp-image"">
                        <div class=""question-area"">
                            <p style=""font-size: 20px; font-weight: bold; margin: 0;"">Is there a person in this image?</p>
                        </div>
                    </div>","0","main_causal_task","8","coin_causal","","","",""
"","","","","","html-keyboard-response","51","151704","0.0-51.0","76B4C3F69B37417CABF3D8F6DB1D82EF","019ce7af-3fb0-7fae-8571-3d50f3cd3b8b","019ce7a0-0965-7aa7-a556-174d32a8e773","","null","
                    <div class=""stimulus-container"">
                        <img src=""images/causal_sequence/coin_causal/coin_causal_9.png"" class=""exp-image"">
                        <div class=""question-area""></div> 
                    </div>","null","","","","","","",""
"","","","","","html-button-response","52","152543","0.0-52.0","76B4C3F69B37417CABF3D8F6DB1D82EF","019ce7af-3fb0-7fae-8571-3d50f3cd3b8b","019ce7a0-0965-7aa7-a556-174d32a8e773","","837","
                    <div class=""stimulus-container"">
                        <img src=""images/causal_sequence/coin_causal/coin_causal_9.png"" class=""exp-image"">
                        <div class=""question-area"">
                            <p style=""font-size: 20px; font-weight: bold; margin: 0;"">Is there a person in this image?</p>
                        </div>
                    </div>","0","main_causal_task","9","coin_causal","","","",""
"","","","","","html-keyboard-response","53","153554","0.0-53.0","76B4C3F69B37417CABF3D8F6DB1D82EF","019ce7af-3fb0-7fae-8571-3d50f3cd3b8b","019ce7a0-0965-7aa7-a556-174d32a8e773","","null","<div style=""background-color: gray; width: 100vw; height: 100vh;""></div>","null","","","","","","",""
"","","","","","html-keyboard-response","54","158563","0.0-54.0","76B4C3F69B37417CABF3D8F6DB1D82EF","019ce7af-3fb0-7fae-8571-3d50f3cd3b8b","019ce7a0-0965-7aa7-a556-174d32a8e773","","null","
                    <div class=""stimulus-container"">
                        <img src=""images/causal_sequence/saving_a_cat_causal/saving_a_cat_causal_1.png"" class=""exp-image"">
                        <div class=""question-area""></div> 
                    </div>","null","","","","","","",""
"","","","","","html-button-response","55","159055","0.0-55.0","76B4C3F69B37417CABF3D8F6DB1D82EF","019ce7af-3fb0-7fae-8571-3d50f3cd3b8b","019ce7a0-0965-7aa7-a556-174d32a8e773","","491","
                    <div class=""stimulus-container"">
                        <img src=""images/causal_sequence/saving_a_cat_causal/saving_a_cat_causal_1.png"" class=""exp-image"">
                        <div class=""question-area"">
                            <p style=""font-size: 20px; font-weight: bold; margin: 0;"">Is there a person in this image?</p>
                        </div>
                    </div>","0","main_causal_task","1","saving_a_cat_causal","","","",""
"","","","","","html-keyboard-response","56","164061","0.0-56.0","76B4C3F69B37417CABF3D8F6DB1D82EF","019ce7af-3fb0-7fae-8571-3d50f3cd3b8b","019ce7a0-0965-7aa7-a556-174d32a8e773","","null","
                    <div class=""stimulus-container"">
                        <img src=""images/causal_sequence/saving_a_cat_causal/saving_a_cat_causal_2.png"" class=""exp-image"">
                        <div class=""question-area""></div> 
                    </div>","null","","","","","","",""
"","","","","","html-button-response","57","164616","0.0-57.0","76B4C3F69B37417CABF3D8F6DB1D82EF","019ce7af-3fb0-7fae-8571-3d50f3cd3b8b","019ce7a0-0965-7aa7-a556-174d32a8e773","","554","
                    <div class=""stimulus-container"">
                        <img src=""images/causal_sequence/saving_a_cat_causal/saving_a_cat_causal_2.png"" class=""exp-image"">
                        <div class=""question-area"">
                            <p style=""font-size: 20px; font-weight: bold; margin: 0;"">Is there a person in this image?</p>
                        </div>
                    </div>","1","main_causal_task","2","saving_a_cat_causal","","","",""
"","","","","","html-keyboard-response","58","169627","0.0-58.0","76B4C3F69B37417CABF3D8F6DB1D82EF","019ce7af-3fb0-7fae-8571-3d50f3cd3b8b","019ce7a0-0965-7aa7-a556-174d32a8e773","","null","
                    <div class=""stimulus-container"">
                        <img src=""images/causal_sequence/saving_a_cat_causal/saving_a_cat_causal_3.png"" class=""exp-image"">
                        <div class=""question-area""></div> 
                    </div>","null","","","","","","",""
"","","","","","html-button-response","59","170375","0.0-59.0","76B4C3F69B37417CABF3D8F6DB1D82EF","019ce7af-3fb0-7fae-8571-3d50f3cd3b8b","019ce7a0-0965-7aa7-a556-174d32a8e773","","747","
                    <div class=""stimulus-container"">
                        <img src=""images/causal_sequence/saving_a_cat_causal/saving_a_cat_causal_3.png"" class=""exp-image"">
                        <div class=""question-area"">
                            <p style=""font-size: 20px; font-weight: bold; margin: 0;"">Is there a person in this image?</p>
                        </div>
                    </div>","1","main_causal_task","3","saving_a_cat_causal","","","",""
"","","","","","html-keyboard-response","60","175383","0.0-60.0","76B4C3F69B37417CABF3D8F6DB1D82EF","019ce7af-3fb0-7fae-8571-3d50f3cd3b8b","019ce7a0-0965-7aa7-a556-174d32a8e773","","null","
                    <div class=""stimulus-container"">
                        <img src=""images/causal_sequence/saving_a_cat_causal/saving_a_cat_causal_4.png"" class=""exp-image"">
                        <div class=""question-area""></div> 
                    </div>","null","","","","","","",""
"","","","","","html-button-response","61","176368","0.0-61.0","76B4C3F69B37417CABF3D8F6DB1D82EF","019ce7af-3fb0-7fae-8571-3d50f3cd3b8b","019ce7a0-0965-7aa7-a556-174d32a8e773","","984","
                    <div class=""stimulus-container"">
                        <img src=""images/causal_sequence/saving_a_cat_causal/saving_a_cat_causal_4.png"" class=""exp-image"">
                        <div class=""question-area"">
                            <p style=""font-size: 20px; font-weight: bold; margin: 0;"">Is there a person in this image?</p>
                        </div>
                    </div>","0","main_causal_task","4","saving_a_cat_causal","","","",""
"","","","","","html-keyboard-response","62","181381","0.0-62.0","76B4C3F69B37417CABF3D8F6DB1D82EF","019ce7af-3fb0-7fae-8571-3d50f3cd3b8b","019ce7a0-0965-7aa7-a556-174d32a8e773","","null","
                    <div class=""stimulus-container"">
                        <img src=""images/causal_sequence/saving_a_cat_causal/saving_a_cat_causal_5.png"" class=""exp-image"">
                        <div class=""question-area""></div> 
                    </div>","null","","","","","","",""
"","","","","","html-button-response","63","182696","0.0-63.0","76B4C3F69B37417CABF3D8F6DB1D82EF","019ce7af-3fb0-7fae-8571-3d50f3cd3b8b","019ce7a0-0965-7aa7-a556-174d32a8e773","","1314","
                    <div class=""stimulus-container"">
                        <img src=""images/causal_sequence/saving_a_cat_causal/saving_a_cat_causal_5.png"" class=""exp-image"">
                        <div class=""question-area"">
                            <p style=""font-size: 20px; font-weight: bold; margin: 0;"">Is there a person in this image?</p>
                        </div>
                    </div>","0","main_causal_task","5","saving_a_cat_causal","","","",""
"","","","","","html-keyboard-response","64","187700","0.0-64.0","76B4C3F69B37417CABF3D8F6DB1D82EF","019ce7af-3fb0-7fae-8571-3d50f3cd3b8b","019ce7a0-0965-7aa7-a556-174d32a8e773","","null","
                    <div class=""stimulus-container"">
                        <img src=""images/causal_sequence/saving_a_cat_causal/saving_a_cat_causal_6.png"" class=""exp-image"">
                        <div class=""question-area""></div> 
                    </div>","null","","","","","","",""
"","","","","","html-button-response","65","188401","0.0-65.0","76B4C3F69B37417CABF3D8F6DB1D82EF","019ce7af-3fb0-7fae-8571-3d50f3cd3b8b","019ce7a0-0965-7aa7-a556-174d32a8e773","","699","
                    <div class=""stimulus-container"">
                        <img src=""images/causal_sequence/saving_a_cat_causal/saving_a_cat_causal_6.png"" class=""exp-image"">
                        <div class=""question-area"">
                            <p style=""font-size: 20px; font-weight: bold; margin: 0;"">Is there a person in this image?</p>
                        </div>
                    </div>","0","main_causal_task","6","saving_a_cat_causal","","","",""
"","","","","","html-keyboard-response","66","193413","0.0-66.0","76B4C3F69B37417CABF3D8F6DB1D82EF","019ce7af-3fb0-7fae-8571-3d50f3cd3b8b","019ce7a0-0965-7aa7-a556-174d32a8e773","","null","
                    <div class=""stimulus-container"">
                        <img src=""images/causal_sequence/saving_a_cat_causal/saving_a_cat_causal_7.png"" class=""exp-image"">
                        <div class=""question-area""></div> 
                    </div>","null","","","","","","",""
"","","","","","html-button-response","67","194912","0.0-67.0","76B4C3F69B37417CABF3D8F6DB1D82EF","019ce7af-3fb0-7fae-8571-3d50f3cd3b8b","019ce7a0-0965-7aa7-a556-174d32a8e773","","1498","
                    <div class=""stimulus-container"">
                        <img src=""images/causal_sequence/saving_a_cat_causal/saving_a_cat_causal_7.png"" class=""exp-image"">
                        <div class=""question-area"">
                            <p style=""font-size: 20px; font-weight: bold; margin: 0;"">Is there a person in this image?</p>
                        </div>
                    </div>","0","main_causal_task","7","saving_a_cat_causal","","","",""
"","","","","","html-keyboard-response","68","199926","0.0-68.0","76B4C3F69B37417CABF3D8F6DB1D82EF","019ce7af-3fb0-7fae-8571-3d50f3cd3b8b","019ce7a0-0965-7aa7-a556-174d32a8e773","","null","
                    <div class=""stimulus-container"">
                        <img src=""images/causal_sequence/saving_a_cat_causal/saving_a_cat_causal_8.png"" class=""exp-image"">
                        <div class=""question-area""></div> 
                    </div>","null","","","","","","",""
"","","","","","html-button-response","69","200456","0.0-69.0","76B4C3F69B37417CABF3D8F6DB1D82EF","019ce7af-3fb0-7fae-8571-3d50f3cd3b8b","019ce7a0-0965-7aa7-a556-174d32a8e773","","529","
                    <div class=""stimulus-container"">
                        <img src=""images/causal_sequence/saving_a_cat_causal/saving_a_cat_causal_8.png"" class=""exp-image"">
                        <div class=""question-area"">
                            <p style=""font-size: 20px; font-weight: bold; margin: 0;"">Is there a person in this image?</p>
                        </div>
                    </div>","0","main_causal_task","8","saving_a_cat_causal","","","",""
"","","","","","html-keyboard-response","70","205473","0.0-70.0","76B4C3F69B37417CABF3D8F6DB1D82EF","019ce7af-3fb0-7fae-8571-3d50f3cd3b8b","019ce7a0-0965-7aa7-a556-174d32a8e773","","null","
                    <div class=""stimulus-container"">
                        <img src=""images/causal_sequence/saving_a_cat_causal/saving_a_cat_causal_9.png"" class=""exp-image"">
                        <div class=""question-area""></div> 
                    </div>","null","","","","","","",""
"","","","","","html-button-response","71","206112","0.0-71.0","76B4C3F69B37417CABF3D8F6DB1D82EF","019ce7af-3fb0-7fae-8571-3d50f3cd3b8b","019ce7a0-0965-7aa7-a556-174d32a8e773","","638","
                    <div class=""stimulus-container"">
                        <img src=""images/causal_sequence/saving_a_cat_causal/saving_a_cat_causal_9.png"" class=""exp-image"">
                        <div class=""question-area"">
                            <p style=""font-size: 20px; font-weight: bold; margin: 0;"">Is there a person in this image?</p>
                        </div>
                    </div>","0","main_causal_task","9","saving_a_cat_causal","","","",""
"","","","","","html-keyboard-response","72","207127","0.0-72.0","76B4C3F69B37417CABF3D8F6DB1D82EF","019ce7af-3fb0-7fae-8571-3d50f3cd3b8b","019ce7a0-0965-7aa7-a556-174d32a8e773","","null","<div style=""background-color: gray; width: 100vw; height: 100vh;""></div>","null","","","","","","",""
"","","","","","html-keyboard-response","73","212134","0.0-73.0","76B4C3F69B37417CABF3D8F6DB1D82EF","019ce7af-3fb0-7fae-8571-3d50f3cd3b8b","019ce7a0-0965-7aa7-a556-174d32a8e773","","null","
                    <div class=""stimulus-container"">
                        <img src=""images/causal_sequence/package_causal/package_causal_1.png"" class=""exp-image"">
                        <div class=""question-area""></div> 
                    </div>","null","","","","","","",""
"","","","","","html-button-response","74","212904","0.0-74.0","76B4C3F69B37417CABF3D8F6DB1D82EF","019ce7af-3fb0-7fae-8571-3d50f3cd3b8b","019ce7a0-0965-7aa7-a556-174d32a8e773","","770","
                    <div class=""stimulus-container"">
                        <img src=""images/causal_sequence/package_causal/package_causal_1.png"" class=""exp-image"">
                        <div class=""question-area"">
                            <p style=""font-size: 20px; font-weight: bold; margin: 0;"">Is there a person in this image?</p>
                        </div>
                    </div>","0","main_causal_task","1","package_causal","","","",""
"","","","","","html-keyboard-response","75","217919","0.0-75.0","76B4C3F69B37417CABF3D8F6DB1D82EF","019ce7af-3fb0-7fae-8571-3d50f3cd3b8b","019ce7a0-0965-7aa7-a556-174d32a8e773","","null","
                    <div class=""stimulus-container"">
                        <img src=""images/causal_sequence/package_causal/package_causal_2.png"" class=""exp-image"">
                        <div class=""question-area""></div> 
                    </div>","null","","","","","","",""
"","","","","","html-button-response","76","218625","0.0-76.0","76B4C3F69B37417CABF3D8F6DB1D82EF","019ce7af-3fb0-7fae-8571-3d50f3cd3b8b","019ce7a0-0965-7aa7-a556-174d32a8e773","","705","
                    <div class=""stimulus-container"">
                        <img src=""images/causal_sequence/package_causal/package_causal_2.png"" class=""exp-image"">
                        <div class=""question-area"">
                            <p style=""font-size: 20px; font-weight: bold; margin: 0;"">Is there a person in this image?</p>
                        </div>
                    </div>","0","main_causal_task","2","package_causal","","","",""
"","","","","","html-keyboard-response","77","223641","0.0-77.0","76B4C3F69B37417CABF3D8F6DB1D82EF","019ce7af-3fb0-7fae-8571-3d50f3cd3b8b","019ce7a0-0965-7aa7-a556-174d32a8e773","","null","
                    <div class=""stimulus-container"">
                        <img src=""images/causal_sequence/package_causal/package_causal_3.png"" class=""exp-image"">
                        <div class=""question-area""></div> 
                    </div>","null","","","","","","",""
"","","","","","html-button-response","78","224665","0.0-78.0","76B4C3F69B37417CABF3D8F6DB1D82EF","019ce7af-3fb0-7fae-8571-3d50f3cd3b8b","019ce7a0-0965-7aa7-a556-174d32a8e773","","1024","
                    <div class=""stimulus-container"">
                        <img src=""images/causal_sequence/package_causal/package_causal_3.png"" class=""exp-image"">
                        <div class=""question-area"">
                            <p style=""font-size: 20px; font-weight: bold; margin: 0;"">Is there a person in this image?</p>
                        </div>
                    </div>","0","main_causal_task","3","package_causal","","","",""
"","","","","","html-keyboard-response","79","229670","0.0-79.0","76B4C3F69B37417CABF3D8F6DB1D82EF","019ce7af-3fb0-7fae-8571-3d50f3cd3b8b","019ce7a0-0965-7aa7-a556-174d32a8e773","","null","
                    <div class=""stimulus-container"">
                        <img src=""images/causal_sequence/package_causal/package_causal_4.png"" class=""exp-image"">
                        <div class=""question-area""></div> 
                    </div>","null","","","","","","",""
"","","","","","html-button-response","80","230273","0.0-80.0","76B4C3F69B37417CABF3D8F6DB1D82EF","019ce7af-3fb0-7fae-8571-3d50f3cd3b8b","019ce7a0-0965-7aa7-a556-174d32a8e773","","602","
                    <div class=""stimulus-container"">
                        <img src=""images/causal_sequence/package_causal/package_causal_4.png"" class=""exp-image"">
                        <div class=""question-area"">
                            <p style=""font-size: 20px; font-weight: bold; margin: 0;"">Is there a person in this image?</p>
                        </div>
                    </div>","1","main_causal_task","4","package_causal","","","",""
"","","","","","html-keyboard-response","81","235275","0.0-81.0","76B4C3F69B37417CABF3D8F6DB1D82EF","019ce7af-3fb0-7fae-8571-3d50f3cd3b8b","019ce7a0-0965-7aa7-a556-174d32a8e773","","null","
                    <div class=""stimulus-container"">
                        <img src=""images/causal_sequence/package_causal/package_causal_5.png"" class=""exp-image"">
                        <div class=""question-area""></div> 
                    </div>","null","","","","","","",""
"","","","","","html-button-response","82","235785","0.0-82.0","76B4C3F69B37417CABF3D8F6DB1D82EF","019ce7af-3fb0-7fae-8571-3d50f3cd3b8b","019ce7a0-0965-7aa7-a556-174d32a8e773","","509","
                    <div class=""stimulus-container"">
                        <img src=""images/causal_sequence/package_causal/package_causal_5.png"" class=""exp-image"">
                        <div class=""question-area"">
                            <p style=""font-size: 20px; font-weight: bold; margin: 0;"">Is there a person in this image?</p>
                        </div>
                    </div>","0","main_causal_task","5","package_causal","","","",""
"","","","","","html-keyboard-response","83","240790","0.0-83.0","76B4C3F69B37417CABF3D8F6DB1D82EF","019ce7af-3fb0-7fae-8571-3d50f3cd3b8b","019ce7a0-0965-7aa7-a556-174d32a8e773","","null","
                    <div class=""stimulus-container"">
                        <img src=""images/causal_sequence/package_causal/package_causal_6.png"" class=""exp-image"">
                        <div class=""question-area""></div> 
                    </div>","null","","","","","","",""
"","","","","","html-button-response","84","241362","0.0-84.0","76B4C3F69B37417CABF3D8F6DB1D82EF","019ce7af-3fb0-7fae-8571-3d50f3cd3b8b","019ce7a0-0965-7aa7-a556-174d32a8e773","","571","
                    <div class=""stimulus-container"">
                        <img src=""images/causal_sequence/package_causal/package_causal_6.png"" class=""exp-image"">
                        <div class=""question-area"">
                            <p style=""font-size: 20px; font-weight: bold; margin: 0;"">Is there a person in this image?</p>
                        </div>
                    </div>","0","main_causal_task","6","package_causal","","","",""
"","","","","","html-keyboard-response","85","246379","0.0-85.0","76B4C3F69B37417CABF3D8F6DB1D82EF","019ce7af-3fb0-7fae-8571-3d50f3cd3b8b","019ce7a0-0965-7aa7-a556-174d32a8e773","","null","
                    <div class=""stimulus-container"">
                        <img src=""images/causal_sequence/package_causal/package_causal_7.png"" class=""exp-image"">
                        <div class=""question-area""></div> 
                    </div>","null","","","","","","",""
"","","","","","html-button-response","86","247434","0.0-86.0","76B4C3F69B37417CABF3D8F6DB1D82EF","019ce7af-3fb0-7fae-8571-3d50f3cd3b8b","019ce7a0-0965-7aa7-a556-174d32a8e773","","1054","
                    <div class=""stimulus-container"">
                        <img src=""images/causal_sequence/package_causal/package_causal_7.png"" class=""exp-image"">
                        <div class=""question-area"">
                            <p style=""font-size: 20px; font-weight: bold; margin: 0;"">Is there a person in this image?</p>
                        </div>
                    </div>","0","main_causal_task","7","package_causal","","","",""
"","","","","","html-keyboard-response","87","252440","0.0-87.0","76B4C3F69B37417CABF3D8F6DB1D82EF","019ce7af-3fb0-7fae-8571-3d50f3cd3b8b","019ce7a0-0965-7aa7-a556-174d32a8e773","","null","
                    <div class=""stimulus-container"">
                        <img src=""images/causal_sequence/package_causal/package_causal_8.png"" class=""exp-image"">
                        <div class=""question-area""></div> 
                    </div>","null","","","","","","",""
"","","","","","html-button-response","88","255447","0.0-88.0","76B4C3F69B37417CABF3D8F6DB1D82EF","019ce7af-3fb0-7fae-8571-3d50f3cd3b8b","019ce7a0-0965-7aa7-a556-174d32a8e773","","null","
                    <div class=""stimulus-container"">
                        <img src=""images/causal_sequence/package_causal/package_causal_8.png"" class=""exp-image"">
                        <div class=""question-area"">
                            <p style=""font-size: 20px; font-weight: bold; margin: 0;"">Is there a person in this image?</p>
                        </div>
                    </div>","null","main_causal_task","8","package_causal","","","",""
"","","","","","html-keyboard-response","89","260450","0.0-89.0","76B4C3F69B37417CABF3D8F6DB1D82EF","019ce7af-3fb0-7fae-8571-3d50f3cd3b8b","019ce7a0-0965-7aa7-a556-174d32a8e773","","null","
                    <div class=""stimulus-container"">
                        <img src=""images/causal_sequence/package_causal/package_causal_9.png"" class=""exp-image"">
                        <div class=""question-area""></div> 
                    </div>","null","","","","","","",""
"","","","","","html-button-response","90","261002","0.0-90.0","76B4C3F69B37417CABF3D8F6DB1D82EF","019ce7af-3fb0-7fae-8571-3d50f3cd3b8b","019ce7a0-0965-7aa7-a556-174d32a8e773","","551","
                    <div class=""stimulus-container"">
                        <img src=""images/causal_sequence/package_causal/package_causal_9.png"" class=""exp-image"">
                        <div class=""question-area"">
                            <p style=""font-size: 20px; font-weight: bold; margin: 0;"">Is there a person in this image?</p>
                        </div>
                    </div>","0","main_causal_task","9","package_causal","","","",""
"","","","","","html-keyboard-response","91","262012","0.0-91.0","76B4C3F69B37417CABF3D8F6DB1D82EF","019ce7af-3fb0-7fae-8571-3d50f3cd3b8b","019ce7a0-0965-7aa7-a556-174d32a8e773","","null","<div style=""background-color: gray; width: 100vw; height: 100vh;""></div>","null","","","","","","",""
"","","","","","html-keyboard-response","92","267027","0.0-92.0","76B4C3F69B37417CABF3D8F6DB1D82EF","019ce7af-3fb0-7fae-8571-3d50f3cd3b8b","019ce7a0-0965-7aa7-a556-174d32a8e773","","null","
                    <div class=""stimulus-container"">
                        <img src=""images/causal_sequence/museum_causal/museum_causal_1.png"" class=""exp-image"">
                        <div class=""question-area""></div> 
                    </div>","null","","","","","","",""
"","","","","","html-button-response","93","267882","0.0-93.0","76B4C3F69B37417CABF3D8F6DB1D82EF","019ce7af-3fb0-7fae-8571-3d50f3cd3b8b","019ce7a0-0965-7aa7-a556-174d32a8e773","","855","
                    <div class=""stimulus-container"">
                        <img src=""images/causal_sequence/museum_causal/museum_causal_1.png"" class=""exp-image"">
                        <div class=""question-area"">
                            <p style=""font-size: 20px; font-weight: bold; margin: 0;"">Is there a person in this image?</p>
                        </div>
                    </div>","0","main_causal_task","1","museum_causal","","","",""
"","","","","","html-keyboard-response","94","272893","0.0-94.0","76B4C3F69B37417CABF3D8F6DB1D82EF","019ce7af-3fb0-7fae-8571-3d50f3cd3b8b","019ce7a0-0965-7aa7-a556-174d32a8e773","","null","
                    <div class=""stimulus-container"">
                        <img src=""images/causal_sequence/museum_causal/museum_causal_2.png"" class=""exp-image"">
                        <div class=""question-area""></div> 
                    </div>","null","","","","","","",""
"","","","","","html-button-response","95","273475","0.0-95.0","76B4C3F69B37417CABF3D8F6DB1D82EF","019ce7af-3fb0-7fae-8571-3d50f3cd3b8b","019ce7a0-0965-7aa7-a556-174d32a8e773","","581","
                    <div class=""stimulus-container"">
                        <img src=""images/causal_sequence/museum_causal/museum_causal_2.png"" class=""exp-image"">
                        <div class=""question-area"">
                            <p style=""font-size: 20px; font-weight: bold; margin: 0;"">Is there a person in this image?</p>
                        </div>
                    </div>","1","main_causal_task","2","museum_causal","","","",""
"","","","","","html-keyboard-response","96","278493","0.0-96.0","76B4C3F69B37417CABF3D8F6DB1D82EF","019ce7af-3fb0-7fae-8571-3d50f3cd3b8b","019ce7a0-0965-7aa7-a556-174d32a8e773","","null","
                    <div class=""stimulus-container"">
                        <img src=""images/causal_sequence/museum_causal/museum_causal_3.png"" class=""exp-image"">
                        <div class=""question-area""></div> 
                    </div>","null","","","","","","",""
"","","","","","html-button-response","97","279475","0.0-97.0","76B4C3F69B37417CABF3D8F6DB1D82EF","019ce7af-3fb0-7fae-8571-3d50f3cd3b8b","019ce7a0-0965-7aa7-a556-174d32a8e773","","981","
                    <div class=""stimulus-container"">
                        <img src=""images/causal_sequence/museum_causal/museum_causal_3.png"" class=""exp-image"">
                        <div class=""question-area"">
                            <p style=""font-size: 20px; font-weight: bold; margin: 0;"">Is there a person in this image?</p>
                        </div>
                    </div>","0","main_causal_task","3","museum_causal","","","",""
"","","","","","html-keyboard-response","98","284483","0.0-98.0","76B4C3F69B37417CABF3D8F6DB1D82EF","019ce7af-3fb0-7fae-8571-3d50f3cd3b8b","019ce7a0-0965-7aa7-a556-174d32a8e773","","null","
                    <div class=""stimulus-container"">
                        <img src=""images/causal_sequence/museum_causal/museum_causal_4.png"" class=""exp-image"">
                        <div class=""question-area""></div> 
                    </div>","null","","","","","","",""
"","","","","","html-button-response","99","285403","0.0-99.0","76B4C3F69B37417CABF3D8F6DB1D82EF","019ce7af-3fb0-7fae-8571-3d50f3cd3b8b","019ce7a0-0965-7aa7-a556-174d32a8e773","","918","
                    <div class=""stimulus-container"">
                        <img src=""images/causal_sequence/museum_causal/museum_causal_4.png"" class=""exp-image"">
                        <div class=""question-area"">
                            <p style=""font-size: 20px; font-weight: bold; margin: 0;"">Is there a person in this image?</p>
                        </div>
                    </div>","1","main_causal_task","4","museum_causal","","","",""
"","","","","","html-keyboard-response","100","290419","0.0-100.0","76B4C3F69B37417CABF3D8F6DB1D82EF","019ce7af-3fb0-7fae-8571-3d50f3cd3b8b","019ce7a0-0965-7aa7-a556-174d32a8e773","","null","
                    <div class=""stimulus-container"">
                        <img src=""images/causal_sequence/museum_causal/museum_causal_5.png"" class=""exp-image"">
                        <div class=""question-area""></div> 
                    </div>","null","","","","","","",""
"","","","","","html-button-response","101","291947","0.0-101.0","76B4C3F69B37417CABF3D8F6DB1D82EF","019ce7af-3fb0-7fae-8571-3d50f3cd3b8b","019ce7a0-0965-7aa7-a556-174d32a8e773","","1527","
                    <div class=""stimulus-container"">
                        <img src=""images/causal_sequence/museum_causal/museum_causal_5.png"" class=""exp-image"">
                        <div class=""question-area"">
                            <p style=""font-size: 20px; font-weight: bold; margin: 0;"">Is there a person in this image?</p>
                        </div>
                    </div>","0","main_causal_task","5","museum_causal","","","",""
"","","","","","html-keyboard-response","102","296950","0.0-102.0","76B4C3F69B37417CABF3D8F6DB1D82EF","019ce7af-3fb0-7fae-8571-3d50f3cd3b8b","019ce7a0-0965-7aa7-a556-174d32a8e773","","null","
                    <div class=""stimulus-container"">
                        <img src=""images/causal_sequence/museum_causal/museum_causal_6.png"" class=""exp-image"">
                        <div class=""question-area""></div> 
                    </div>","null","","","","","","",""
"","","","","","html-button-response","103","297571","0.0-103.0","76B4C3F69B37417CABF3D8F6DB1D82EF","019ce7af-3fb0-7fae-8571-3d50f3cd3b8b","019ce7a0-0965-7aa7-a556-174d32a8e773","","620","
                    <div class=""stimulus-container"">
                        <img src=""images/causal_sequence/museum_causal/museum_causal_6.png"" class=""exp-image"">
                        <div class=""question-area"">
                            <p style=""font-size: 20px; font-weight: bold; margin: 0;"">Is there a person in this image?</p>
                        </div>
                    </div>","0","main_causal_task","6","museum_causal","","","",""
"","","","","","html-keyboard-response","104","302588","0.0-104.0","76B4C3F69B37417CABF3D8F6DB1D82EF","019ce7af-3fb0-7fae-8571-3d50f3cd3b8b","019ce7a0-0965-7aa7-a556-174d32a8e773","","null","
                    <div class=""stimulus-container"">
                        <img src=""images/causal_sequence/museum_causal/museum_causal_7.png"" class=""exp-image"">
                        <div class=""question-area""></div> 
                    </div>","null","","","","","","",""
"","","","","","html-button-response","105","303107","0.0-105.0","76B4C3F69B37417CABF3D8F6DB1D82EF","019ce7af-3fb0-7fae-8571-3d50f3cd3b8b","019ce7a0-0965-7aa7-a556-174d32a8e773","","518","
                    <div class=""stimulus-container"">
                        <img src=""images/causal_sequence/museum_causal/museum_causal_7.png"" class=""exp-image"">
                        <div class=""question-area"">
                            <p style=""font-size: 20px; font-weight: bold; margin: 0;"">Is there a person in this image?</p>
                        </div>
                    </div>","1","main_causal_task","7","museum_causal","","","",""
"","","","","","html-keyboard-response","106","308120","0.0-106.0","76B4C3F69B37417CABF3D8F6DB1D82EF","019ce7af-3fb0-7fae-8571-3d50f3cd3b8b","019ce7a0-0965-7aa7-a556-174d32a8e773","","null","
                    <div class=""stimulus-container"">
                        <img src=""images/causal_sequence/museum_causal/museum_causal_8.png"" class=""exp-image"">
                        <div class=""question-area""></div> 
                    </div>","null","","","","","","",""
"","","","","","html-button-response","107","309540","0.0-107.0","76B4C3F69B37417CABF3D8F6DB1D82EF","019ce7af-3fb0-7fae-8571-3d50f3cd3b8b","019ce7a0-0965-7aa7-a556-174d32a8e773","","1419","
                    <div class=""stimulus-container"">
                        <img src=""images/causal_sequence/museum_causal/museum_causal_8.png"" class=""exp-image"">
                        <div class=""question-area"">
                            <p style=""font-size: 20px; font-weight: bold; margin: 0;"">Is there a person in this image?</p>
                        </div>
                    </div>","0","main_causal_task","8","museum_causal","","","",""
"","","","","","html-keyboard-response","108","314544","0.0-108.0","76B4C3F69B37417CABF3D8F6DB1D82EF","019ce7af-3fb0-7fae-8571-3d50f3cd3b8b","019ce7a0-0965-7aa7-a556-174d32a8e773","","null","
                    <div class=""stimulus-container"">
                        <img src=""images/causal_sequence/museum_causal/museum_causal_9.png"" class=""exp-image"">
                        <div class=""question-area""></div> 
                    </div>","null","","","","","","",""
"","","","","","html-button-response","109","315212","0.0-109.0","76B4C3F69B37417CABF3D8F6DB1D82EF","019ce7af-3fb0-7fae-8571-3d50f3cd3b8b","019ce7a0-0965-7aa7-a556-174d32a8e773","","667","
                    <div class=""stimulus-container"">
                        <img src=""images/causal_sequence/museum_causal/museum_causal_9.png"" class=""exp-image"">
                        <div class=""question-area"">
                            <p style=""font-size: 20px; font-weight: bold; margin: 0;"">Is there a person in this image?</p>
                        </div>
                    </div>","1","main_causal_task","9","museum_causal","","","",""
"","","","","","html-keyboard-response","110","316227","0.0-110.0","76B4C3F69B37417CABF3D8F6DB1D82EF","019ce7af-3fb0-7fae-8571-3d50f3cd3b8b","019ce7a0-0965-7aa7-a556-174d32a8e773","","null","<div style=""background-color: gray; width: 100vw; height: 100vh;""></div>","null","","","","","","",""
"","","","","","html-keyboard-response","111","321237","0.0-111.0","76B4C3F69B37417CABF3D8F6DB1D82EF","019ce7af-3fb0-7fae-8571-3d50f3cd3b8b","019ce7a0-0965-7aa7-a556-174d32a8e773","","null","
                    <div class=""stimulus-container"">
                        <img src=""images/causal_sequence/the_performance_causal/the_performance_causal_1.png"" class=""exp-image"">
                        <div class=""question-area""></div> 
                    </div>","null","","","","","","",""
"","","","","","html-button-response","112","322212","0.0-112.0","76B4C3F69B37417CABF3D8F6DB1D82EF","019ce7af-3fb0-7fae-8571-3d50f3cd3b8b","019ce7a0-0965-7aa7-a556-174d32a8e773","","974","
                    <div class=""stimulus-container"">
                        <img src=""images/causal_sequence/the_performance_causal/the_performance_causal_1.png"" class=""exp-image"">
                        <div class=""question-area"">
                            <p style=""font-size: 20px; font-weight: bold; margin: 0;"">Is there a person in this image?</p>
                        </div>
                    </div>","0","main_causal_task","1","the_performance_causal","","","",""
"","","","","","html-keyboard-response","113","327217","0.0-113.0","76B4C3F69B37417CABF3D8F6DB1D82EF","019ce7af-3fb0-7fae-8571-3d50f3cd3b8b","019ce7a0-0965-7aa7-a556-174d32a8e773","","null","
                    <div class=""stimulus-container"">
                        <img src=""images/causal_sequence/the_performance_causal/the_performance_causal_2.png"" class=""exp-image"">
                        <div class=""question-area""></div> 
                    </div>","null","","","","","","",""
"","","","","","html-button-response","114","328013","0.0-114.0","76B4C3F69B37417CABF3D8F6DB1D82EF","019ce7af-3fb0-7fae-8571-3d50f3cd3b8b","019ce7a0-0965-7aa7-a556-174d32a8e773","","795","
                    <div class=""stimulus-container"">
                        <img src=""images/causal_sequence/the_performance_causal/the_performance_causal_2.png"" class=""exp-image"">
                        <div class=""question-area"">
                            <p style=""font-size: 20px; font-weight: bold; margin: 0;"">Is there a person in this image?</p>
                        </div>
                    </div>","0","main_causal_task","2","the_performance_causal","","","",""
"","","","","","html-keyboard-response","115","333023","0.0-115.0","76B4C3F69B37417CABF3D8F6DB1D82EF","019ce7af-3fb0-7fae-8571-3d50f3cd3b8b","019ce7a0-0965-7aa7-a556-174d32a8e773","","null","
                    <div class=""stimulus-container"">
                        <img src=""images/causal_sequence/the_performance_causal/the_performance_causal_3.png"" class=""exp-image"">
                        <div class=""question-area""></div> 
                    </div>","null","","","","","","",""
"","","","","","html-button-response","116","333517","0.0-116.0","76B4C3F69B37417CABF3D8F6DB1D82EF","019ce7af-3fb0-7fae-8571-3d50f3cd3b8b","019ce7a0-0965-7aa7-a556-174d32a8e773","","493","
                    <div class=""stimulus-container"">
                        <img src=""images/causal_sequence/the_performance_causal/the_performance_causal_3.png"" class=""exp-image"">
                        <div class=""question-area"">
                            <p style=""font-size: 20px; font-weight: bold; margin: 0;"">Is there a person in this image?</p>
                        </div>
                    </div>","0","main_causal_task","3","the_performance_causal","","","",""
"","","","","","html-keyboard-response","117","338518","0.0-117.0","76B4C3F69B37417CABF3D8F6DB1D82EF","019ce7af-3fb0-7fae-8571-3d50f3cd3b8b","019ce7a0-0965-7aa7-a556-174d32a8e773","","null","
                    <div class=""stimulus-container"">
                        <img src=""images/causal_sequence/the_performance_causal/the_performance_causal_4.png"" class=""exp-image"">
                        <div class=""question-area""></div> 
                    </div>","null","","","","","","",""
"","","","","","html-button-response","118","339133","0.0-118.0","76B4C3F69B37417CABF3D8F6DB1D82EF","019ce7af-3fb0-7fae-8571-3d50f3cd3b8b","019ce7a0-0965-7aa7-a556-174d32a8e773","","614","
                    <div class=""stimulus-container"">
                        <img src=""images/causal_sequence/the_performance_causal/the_performance_causal_4.png"" class=""exp-image"">
                        <div class=""question-area"">
                            <p style=""font-size: 20px; font-weight: bold; margin: 0;"">Is there a person in this image?</p>
                        </div>
                    </div>","0","main_causal_task","4","the_performance_causal","","","",""
"","","","","","html-keyboard-response","119","344137","0.0-119.0","76B4C3F69B37417CABF3D8F6DB1D82EF","019ce7af-3fb0-7fae-8571-3d50f3cd3b8b","019ce7a0-0965-7aa7-a556-174d32a8e773","","null","
                    <div class=""stimulus-container"">
                        <img src=""images/causal_sequence/the_performance_causal/the_performance_causal_5.png"" class=""exp-image"">
                        <div class=""question-area""></div> 
                    </div>","null","","","","","","",""
"","","","","","html-button-response","120","344597","0.0-120.0","76B4C3F69B37417CABF3D8F6DB1D82EF","019ce7af-3fb0-7fae-8571-3d50f3cd3b8b","019ce7a0-0965-7aa7-a556-174d32a8e773","","459","
                    <div class=""stimulus-container"">
                        <img src=""images/causal_sequence/the_performance_causal/the_performance_causal_5.png"" class=""exp-image"">
                        <div class=""question-area"">
                            <p style=""font-size: 20px; font-weight: bold; margin: 0;"">Is there a person in this image?</p>
                        </div>
                    </div>","0","main_causal_task","5","the_performance_causal","","","",""
"","","","","","html-keyboard-response","121","349607","0.0-121.0","76B4C3F69B37417CABF3D8F6DB1D82EF","019ce7af-3fb0-7fae-8571-3d50f3cd3b8b","019ce7a0-0965-7aa7-a556-174d32a8e773","","null","
                    <div class=""stimulus-container"">
                        <img src=""images/causal_sequence/the_performance_causal/the_performance_causal_6.png"" class=""exp-image"">
                        <div class=""question-area""></div> 
                    </div>","null","","","","","","",""
"","","","","","html-button-response","122","350109","0.0-122.0","76B4C3F69B37417CABF3D8F6DB1D82EF","019ce7af-3fb0-7fae-8571-3d50f3cd3b8b","019ce7a0-0965-7aa7-a556-174d32a8e773","","500","
                    <div class=""stimulus-container"">
                        <img src=""images/causal_sequence/the_performance_causal/the_performance_causal_6.png"" class=""exp-image"">
                        <div class=""question-area"">
                            <p style=""font-size: 20px; font-weight: bold; margin: 0;"">Is there a person in this image?</p>
                        </div>
                    </div>","0","main_causal_task","6","the_performance_causal","","","",""
"","","","","","html-keyboard-response","123","355114","0.0-123.0","76B4C3F69B37417CABF3D8F6DB1D82EF","019ce7af-3fb0-7fae-8571-3d50f3cd3b8b","019ce7a0-0965-7aa7-a556-174d32a8e773","","null","
                    <div class=""stimulus-container"">
                        <img src=""images/causal_sequence/the_performance_causal/the_performance_causal_7.png"" class=""exp-image"">
                        <div class=""question-area""></div> 
                    </div>","null","","","","","","",""
"","","","","","html-button-response","124","355717","0.0-124.0","76B4C3F69B37417CABF3D8F6DB1D82EF","019ce7af-3fb0-7fae-8571-3d50f3cd3b8b","019ce7a0-0965-7aa7-a556-174d32a8e773","","602","
                    <div class=""stimulus-container"">
                        <img src=""images/causal_sequence/the_performance_causal/the_performance_causal_7.png"" class=""exp-image"">
                        <div class=""question-area"">
                            <p style=""font-size: 20px; font-weight: bold; margin: 0;"">Is there a person in this image?</p>
                        </div>
                    </div>","0","main_causal_task","7","the_performance_causal","","","",""
"","","","","","html-keyboard-response","125","360734","0.0-125.0","76B4C3F69B37417CABF3D8F6DB1D82EF","019ce7af-3fb0-7fae-8571-3d50f3cd3b8b","019ce7a0-0965-7aa7-a556-174d32a8e773","","null","
                    <div class=""stimulus-container"">
                        <img src=""images/causal_sequence/the_performance_causal/the_performance_causal_8.png"" class=""exp-image"">
                        <div class=""question-area""></div> 
                    </div>","null","","","","","","",""
"","","","","","html-button-response","126","361573","0.0-126.0","76B4C3F69B37417CABF3D8F6DB1D82EF","019ce7af-3fb0-7fae-8571-3d50f3cd3b8b","019ce7a0-0965-7aa7-a556-174d32a8e773","","838","
                    <div class=""stimulus-container"">
                        <img src=""images/causal_sequence/the_performance_causal/the_performance_causal_8.png"" class=""exp-image"">
                        <div class=""question-area"">
                            <p style=""font-size: 20px; font-weight: bold; margin: 0;"">Is there a person in this image?</p>
                        </div>
                    </div>","0","main_causal_task","8","the_performance_causal","","","",""
"","","","","","html-keyboard-response","127","366587","0.0-127.0","76B4C3F69B37417CABF3D8F6DB1D82EF","019ce7af-3fb0-7fae-8571-3d50f3cd3b8b","019ce7a0-0965-7aa7-a556-174d32a8e773","","null","
                    <div class=""stimulus-container"">
                        <img src=""images/causal_sequence/the_performance_causal/the_performance_causal_9.png"" class=""exp-image"">
                        <div class=""question-area""></div> 
                    </div>","null","","","","","","",""
"","","","","","html-button-response","128","368229","0.0-128.0","76B4C3F69B37417CABF3D8F6DB1D82EF","019ce7af-3fb0-7fae-8571-3d50f3cd3b8b","019ce7a0-0965-7aa7-a556-174d32a8e773","","1641","
                    <div class=""stimulus-container"">
                        <img src=""images/causal_sequence/the_performance_causal/the_performance_causal_9.png"" class=""exp-image"">
                        <div class=""question-area"">
                            <p style=""font-size: 20px; font-weight: bold; margin: 0;"">Is there a person in this image?</p>
                        </div>
                    </div>","0","main_causal_task","9","the_performance_causal","","","",""
"","","","","","instructions","129","371141","0.0-129.0","76B4C3F69B37417CABF3D8F6DB1D82EF","019ce7af-3fb0-7fae-8571-3d50f3cd3b8b","019ce7a0-0965-7aa7-a556-174d32a8e773","[{""page_index"":0,""viewing_time"":2911}]","2911","","","","","","","","",""
"","","","","","instructions","130","375614","0.0-130.0","76B4C3F69B37417CABF3D8F6DB1D82EF","019ce7af-3fb0-7fae-8571-3d50f3cd3b8b","019ce7a0-0965-7aa7-a556-174d32a8e773","[{""page_index"":0,""viewing_time"":4471}]","4472","","","","","","","","",""
"","","","","","html-keyboard-response","131","376621","0.0-131.0","76B4C3F69B37417CABF3D8F6DB1D82EF","019ce7af-3fb0-7fae-8571-3d50f3cd3b8b","019ce7a0-0965-7aa7-a556-174d32a8e773","","null","
        <div class=""stimulus-container"" style=""display: flex; align-items: center; justify-content: center; gap: 30px;"">
            <img src=""images/instructions/movie_1.png"" class=""exp-image"">
            <div style=""font-size: 40px; font-weight: bold; color: green; border: 5px solid green; padding: 25px; border-radius: 15px; background-color: #f0fff0;"">
                WORTH<br>$1
            </div>
        </div>
        <div class=""question-area""></div>","null","","","","","","",""
"","","","","","html-button-response","132","378261","0.0-132.0","76B4C3F69B37417CABF3D8F6DB1D82EF","019ce7af-3fb0-7fae-8571-3d50f3cd3b8b","019ce7a0-0965-7aa7-a556-174d32a8e773","","1639","
        <div class=""stimulus-container"" style=""display: flex; align-items: center; justify-content: center; gap: 30px;"">
            <img src=""images/instructions/movie_1.png"" class=""exp-image"">
            <div style=""font-size: 40px; font-weight: bold; color: green; border: 5px solid green; padding: 25px; border-radius: 15px; background-color: #f0fff0;"">
                WORTH<br>$1
            </div>
        </div>
        <div class=""question-area"">
            <p style=""font-size: 20px; font-weight: bold; margin: 0;"">Was there a person in this image?</p>
        </div>","0","","","","","","",""
"","","","","","instructions","133","380966","0.0-133.0","76B4C3F69B37417CABF3D8F6DB1D82EF","019ce7af-3fb0-7fae-8571-3d50f3cd3b8b","019ce7a0-0965-7aa7-a556-174d32a8e773","[{""page_index"":0,""viewing_time"":2704}]","2704","","","","","","","","",""
"","","","","","html-keyboard-response","134","390973","0.0-134.0","76B4C3F69B37417CABF3D8F6DB1D82EF","019ce7af-3fb0-7fae-8571-3d50f3cd3b8b","019ce7a0-0965-7aa7-a556-174d32a8e773","","null","
            <div class=""stimulus-container"" style=""display: flex; align-items: center; justify-content: center; gap: 30px;"">
                <img src=""images/causal_sequence/saving_a_cat_causal/saving_a_cat_causal_6.png"" class=""exp-image"">
                <div style=""font-size: 40px; font-weight: bold; color: green; border: 5px solid green; padding: 25px; border-radius: 15px; background-color: #f0fff0;"">
                    WORTH<br>$1
                </div>
            </div>
            <div class=""question-area""></div>","null","","","","","","",""
"","","","","","html-button-response","135","392366","0.0-135.0","76B4C3F69B37417CABF3D8F6DB1D82EF","019ce7af-3fb0-7fae-8571-3d50f3cd3b8b","019ce7a0-0965-7aa7-a556-174d32a8e773","","1391","
            <div class=""stimulus-container"" style=""display: flex; align-items: center; justify-content: center; gap: 30px;"">
                <img src=""images/causal_sequence/saving_a_cat_causal/saving_a_cat_causal_6.png"" class=""exp-image"">
                <div style=""font-size: 40px; font-weight: bold; color: green; border: 5px solid green; padding: 25px; border-radius: 15px; background-color: #f0fff0;"">
                    WORTH<br>$1
                </div>
            </div>
            <div class=""question-area"">
                <p style=""font-size: 20px; font-weight: bold; margin: 0;"">Was there a person in this image?</p>
            </div>","0","part2_value_learning","","saving_a_cat_causal","6","","",""
"","","","","","html-keyboard-response","136","402368","0.0-136.0","76B4C3F69B37417CABF3D8F6DB1D82EF","019ce7af-3fb0-7fae-8571-3d50f3cd3b8b","019ce7a0-0965-7aa7-a556-174d32a8e773","","null","
            <div class=""stimulus-container"" style=""display: flex; align-items: center; justify-content: center; gap: 30px;"">
                <img src=""images/causal_sequence/package_causal/package_causal_6.png"" class=""exp-image"">
                <div style=""font-size: 40px; font-weight: bold; color: green; border: 5px solid green; padding: 25px; border-radius: 15px; background-color: #f0fff0;"">
                    WORTH<br>$1
                </div>
            </div>
            <div class=""question-area""></div>","null","","","","","","",""
"","","","","","html-button-response","137","403014","0.0-137.0","76B4C3F69B37417CABF3D8F6DB1D82EF","019ce7af-3fb0-7fae-8571-3d50f3cd3b8b","019ce7a0-0965-7aa7-a556-174d32a8e773","","645","
            <div class=""stimulus-container"" style=""display: flex; align-items: center; justify-content: center; gap: 30px;"">
                <img src=""images/causal_sequence/package_causal/package_causal_6.png"" class=""exp-image"">
                <div style=""font-size: 40px; font-weight: bold; color: green; border: 5px solid green; padding: 25px; border-radius: 15px; background-color: #f0fff0;"">
                    WORTH<br>$1
                </div>
            </div>
            <div class=""question-area"">
                <p style=""font-size: 20px; font-weight: bold; margin: 0;"">Was there a person in this image?</p>
            </div>","0","part2_value_learning","","package_causal","6","","",""
"","","","","","html-keyboard-response","138","413028","0.0-138.0","76B4C3F69B37417CABF3D8F6DB1D82EF","019ce7af-3fb0-7fae-8571-3d50f3cd3b8b","019ce7a0-0965-7aa7-a556-174d32a8e773","","null","
            <div class=""stimulus-container"" style=""display: flex; align-items: center; justify-content: center; gap: 30px;"">
                <img src=""images/causal_sequence/the_performance_causal/the_performance_causal_6.png"" class=""exp-image"">
                <div style=""font-size: 40px; font-weight: bold; color: green; border: 5px solid green; padding: 25px; border-radius: 15px; background-color: #f0fff0;"">
                    WORTH<br>$1
                </div>
            </div>
            <div class=""question-area""></div>","null","","","","","","",""
"","","","","","html-button-response","139","413647","0.0-139.0","76B4C3F69B37417CABF3D8F6DB1D82EF","019ce7af-3fb0-7fae-8571-3d50f3cd3b8b","019ce7a0-0965-7aa7-a556-174d32a8e773","","618","
            <div class=""stimulus-container"" style=""display: flex; align-items: center; justify-content: center; gap: 30px;"">
                <img src=""images/causal_sequence/the_performance_causal/the_performance_causal_6.png"" class=""exp-image"">
                <div style=""font-size: 40px; font-weight: bold; color: green; border: 5px solid green; padding: 25px; border-radius: 15px; background-color: #f0fff0;"">
                    WORTH<br>$1
                </div>
            </div>
            <div class=""question-area"">
                <p style=""font-size: 20px; font-weight: bold; margin: 0;"">Was there a person in this image?</p>
            </div>","0","part2_value_learning","","the_performance_causal","6","","",""
"","","","","","html-keyboard-response","140","423662","0.0-140.0","76B4C3F69B37417CABF3D8F6DB1D82EF","019ce7af-3fb0-7fae-8571-3d50f3cd3b8b","019ce7a0-0965-7aa7-a556-174d32a8e773","","null","
            <div class=""stimulus-container"" style=""display: flex; align-items: center; justify-content: center; gap: 30px;"">
                <img src=""images/causal_sequence/museum_causal/museum_causal_4.png"" class=""exp-image"">
                <div style=""font-size: 40px; font-weight: bold; color: green; border: 5px solid green; padding: 25px; border-radius: 15px; background-color: #f0fff0;"">
                    WORTH<br>$1
                </div>
            </div>
            <div class=""question-area""></div>","null","","","","","","",""
"","","","","","html-button-response","141","424320","0.0-141.0","76B4C3F69B37417CABF3D8F6DB1D82EF","019ce7af-3fb0-7fae-8571-3d50f3cd3b8b","019ce7a0-0965-7aa7-a556-174d32a8e773","","657","
            <div class=""stimulus-container"" style=""display: flex; align-items: center; justify-content: center; gap: 30px;"">
                <img src=""images/causal_sequence/museum_causal/museum_causal_4.png"" class=""exp-image"">
                <div style=""font-size: 40px; font-weight: bold; color: green; border: 5px solid green; padding: 25px; border-radius: 15px; background-color: #f0fff0;"">
                    WORTH<br>$1
                </div>
            </div>
            <div class=""question-area"">
                <p style=""font-size: 20px; font-weight: bold; margin: 0;"">Was there a person in this image?</p>
            </div>","0","part2_value_learning","","museum_causal","4","","",""
"","","","","","html-keyboard-response","142","434323","0.0-142.0","76B4C3F69B37417CABF3D8F6DB1D82EF","019ce7af-3fb0-7fae-8571-3d50f3cd3b8b","019ce7a0-0965-7aa7-a556-174d32a8e773","","null","
            <div class=""stimulus-container"" style=""display: flex; align-items: center; justify-content: center; gap: 30px;"">
                <img src=""images/causal_sequence/coin_causal/coin_causal_7.png"" class=""exp-image"">
                <div style=""font-size: 40px; font-weight: bold; color: green; border: 5px solid green; padding: 25px; border-radius: 15px; background-color: #f0fff0;"">
                    WORTH<br>$1
                </div>
            </div>
            <div class=""question-area""></div>","null","","","","","","",""
"","","","","","html-button-response","143","435343","0.0-143.0","76B4C3F69B37417CABF3D8F6DB1D82EF","019ce7af-3fb0-7fae-8571-3d50f3cd3b8b","019ce7a0-0965-7aa7-a556-174d32a8e773","","1019","
            <div class=""stimulus-container"" style=""display: flex; align-items: center; justify-content: center; gap: 30px;"">
                <img src=""images/causal_sequence/coin_causal/coin_causal_7.png"" class=""exp-image"">
                <div style=""font-size: 40px; font-weight: bold; color: green; border: 5px solid green; padding: 25px; border-radius: 15px; background-color: #f0fff0;"">
                    WORTH<br>$1
                </div>
            </div>
            <div class=""question-area"">
                <p style=""font-size: 20px; font-weight: bold; margin: 0;"">Was there a person in this image?</p>
            </div>","1","part2_value_learning","","coin_causal","7","","",""
"","","","","","html-keyboard-response","144","445358","0.0-144.0","76B4C3F69B37417CABF3D8F6DB1D82EF","019ce7af-3fb0-7fae-8571-3d50f3cd3b8b","019ce7a0-0965-7aa7-a556-174d32a8e773","","null","
            <div class=""stimulus-container"" style=""display: flex; align-items: center; justify-content: center; gap: 30px;"">
                <img src=""images/causal_sequence/dog_causal/dog_causal_4.png"" class=""exp-image"">
                <div style=""font-size: 40px; font-weight: bold; color: green; border: 5px solid green; padding: 25px; border-radius: 15px; background-color: #f0fff0;"">
                    WORTH<br>$1
                </div>
            </div>
            <div class=""question-area""></div>","null","","","","","","",""
"","","","","","html-button-response","145","445848","0.0-145.0","76B4C3F69B37417CABF3D8F6DB1D82EF","019ce7af-3fb0-7fae-8571-3d50f3cd3b8b","019ce7a0-0965-7aa7-a556-174d32a8e773","","489","
            <div class=""stimulus-container"" style=""display: flex; align-items: center; justify-content: center; gap: 30px;"">
                <img src=""images/causal_sequence/dog_causal/dog_causal_4.png"" class=""exp-image"">
                <div style=""font-size: 40px; font-weight: bold; color: green; border: 5px solid green; padding: 25px; border-radius: 15px; background-color: #f0fff0;"">
                    WORTH<br>$1
                </div>
            </div>
            <div class=""question-area"">
                <p style=""font-size: 20px; font-weight: bold; margin: 0;"">Was there a person in this image?</p>
            </div>","0","part2_value_learning","","dog_causal","4","","",""
"","","","","","instructions","146","447112","0.0-146.0","76B4C3F69B37417CABF3D8F6DB1D82EF","019ce7af-3fb0-7fae-8571-3d50f3cd3b8b","019ce7a0-0965-7aa7-a556-174d32a8e773","[{""page_index"":0,""viewing_time"":1263}]","1264","","","","","","","","",""
"","","","","","instructions","147","448696","0.0-147.0","76B4C3F69B37417CABF3D8F6DB1D82EF","019ce7af-3fb0-7fae-8571-3d50f3cd3b8b","019ce7a0-0965-7aa7-a556-174d32a8e773","[{""page_index"":0,""viewing_time"":1583}]","1583","","","","","","","","",""
"","","","","","html-keyboard-response","148","458709","0.0-148.0-0.0","76B4C3F69B37417CABF3D8F6DB1D82EF","019ce7af-3fb0-7fae-8571-3d50f3cd3b8b","019ce7a0-0965-7aa7-a556-174d32a8e773","","null","
                        <div style=""font-family: Arial; margin-bottom: 20px;""><h3>Which image is more valuable?</h3></div>
                        <div class=""stimulus-container"" style=""display: flex; width: 1100px; justify-content: center; gap: 50px;"">
                            <img src=""images/causal_sequence/saving_a_cat_causal/saving_a_cat_causal_8.png"" class=""exp-image"">
                            <img src=""images/causal_sequence/saving_a_cat_causal/saving_a_cat_causal_4.png"" class=""exp-image"">
                        </div>","null","","","","","","",""
"","","","","","html-button-response","149","459840","0.0-148.0-1.0","76B4C3F69B37417CABF3D8F6DB1D82EF","019ce7af-3fb0-7fae-8571-3d50f3cd3b8b","019ce7a0-0965-7aa7-a556-174d32a8e773","","1130","
                        <div style=""font-family: Arial; margin-bottom: 20px;""><h3>Which image is more valuable?</h3></div>
                        <div class=""stimulus-container"" style=""display: flex; width: 1100px; justify-content: center; gap: 50px;"">
                            <img src=""images/causal_sequence/saving_a_cat_causal/saving_a_cat_causal_8.png"" class=""exp-image"">
                            <img src=""images/causal_sequence/saving_a_cat_causal/saving_a_cat_causal_4.png"" class=""exp-image"">
                        </div>","1","part3_final_choice","","saving_a_cat_causal","","6","4","-2"
"","","","","","html-keyboard-response","150","469856","0.0-149.0-0.0","76B4C3F69B37417CABF3D8F6DB1D82EF","019ce7af-3fb0-7fae-8571-3d50f3cd3b8b","019ce7a0-0965-7aa7-a556-174d32a8e773","","null","
                        <div style=""font-family: Arial; margin-bottom: 20px;""><h3>Which image is more valuable?</h3></div>
                        <div class=""stimulus-container"" style=""display: flex; width: 1100px; justify-content: center; gap: 50px;"">
                            <img src=""images/causal_sequence/museum_causal/museum_causal_6.png"" class=""exp-image"">
                            <img src=""images/causal_sequence/museum_causal/museum_causal_2.png"" class=""exp-image"">
                        </div>","null","","","","","","",""
"","","","","","html-button-response","151","470489","0.0-149.0-1.0","76B4C3F69B37417CABF3D8F6DB1D82EF","019ce7af-3fb0-7fae-8571-3d50f3cd3b8b","019ce7a0-0965-7aa7-a556-174d32a8e773","","632","
                        <div style=""font-family: Arial; margin-bottom: 20px;""><h3>Which image is more valuable?</h3></div>
                        <div class=""stimulus-container"" style=""display: flex; width: 1100px; justify-content: center; gap: 50px;"">
                            <img src=""images/causal_sequence/museum_causal/museum_causal_6.png"" class=""exp-image"">
                            <img src=""images/causal_sequence/museum_causal/museum_causal_2.png"" class=""exp-image"">
                        </div>","1","part3_final_choice","","museum_causal","","4","2","-2"
"","","","","","html-keyboard-response","152","480491","0.0-150.0-0.0","76B4C3F69B37417CABF3D8F6DB1D82EF","019ce7af-3fb0-7fae-8571-3d50f3cd3b8b","019ce7a0-0965-7aa7-a556-174d32a8e773","","null","
                        <div style=""font-family: Arial; margin-bottom: 20px;""><h3>Which image is more valuable?</h3></div>
                        <div class=""stimulus-container"" style=""display: flex; width: 1100px; justify-content: center; gap: 50px;"">
                            <img src=""images/causal_sequence/coin_causal/coin_causal_9.png"" class=""exp-image"">
                            <img src=""images/causal_sequence/coin_causal/coin_causal_5.png"" class=""exp-image"">
                        </div>","null","","","","","","",""
"","","","","","html-button-response","153","481017","0.0-150.0-1.0","76B4C3F69B37417CABF3D8F6DB1D82EF","019ce7af-3fb0-7fae-8571-3d50f3cd3b8b","019ce7a0-0965-7aa7-a556-174d32a8e773","","525","
                        <div style=""font-family: Arial; margin-bottom: 20px;""><h3>Which image is more valuable?</h3></div>
                        <div class=""stimulus-container"" style=""display: flex; width: 1100px; justify-content: center; gap: 50px;"">
                            <img src=""images/causal_sequence/coin_causal/coin_causal_9.png"" class=""exp-image"">
                            <img src=""images/causal_sequence/coin_causal/coin_causal_5.png"" class=""exp-image"">
                        </div>","1","part3_final_choice","","coin_causal","","7","5","-2"
"","","","","","html-keyboard-response","154","491019","0.0-151.0-0.0","76B4C3F69B37417CABF3D8F6DB1D82EF","019ce7af-3fb0-7fae-8571-3d50f3cd3b8b","019ce7a0-0965-7aa7-a556-174d32a8e773","","null","
                        <div style=""font-family: Arial; margin-bottom: 20px;""><h3>Which image is more valuable?</h3></div>
                        <div class=""stimulus-container"" style=""display: flex; width: 1100px; justify-content: center; gap: 50px;"">
                            <img src=""images/causal_sequence/the_performance_causal/the_performance_causal_4.png"" class=""exp-image"">
                            <img src=""images/causal_sequence/the_performance_causal/the_performance_causal_8.png"" class=""exp-image"">
                        </div>","null","","","","","","",""
"","","","","","html-button-response","155","491537","0.0-151.0-1.0","76B4C3F69B37417CABF3D8F6DB1D82EF","019ce7af-3fb0-7fae-8571-3d50f3cd3b8b","019ce7a0-0965-7aa7-a556-174d32a8e773","","517","
                        <div style=""font-family: Arial; margin-bottom: 20px;""><h3>Which image is more valuable?</h3></div>
                        <div class=""stimulus-container"" style=""display: flex; width: 1100px; justify-content: center; gap: 50px;"">
                            <img src=""images/causal_sequence/the_performance_causal/the_performance_causal_4.png"" class=""exp-image"">
                            <img src=""images/causal_sequence/the_performance_causal/the_performance_causal_8.png"" class=""exp-image"">
                        </div>","1","part3_final_choice","","the_performance_causal","","6","8","2"
"","","","","","html-keyboard-response","156","501542","0.0-152.0-0.0","76B4C3F69B37417CABF3D8F6DB1D82EF","019ce7af-3fb0-7fae-8571-3d50f3cd3b8b","019ce7a0-0965-7aa7-a556-174d32a8e773","","null","
                        <div style=""font-family: Arial; margin-bottom: 20px;""><h3>Which image is more valuable?</h3></div>
                        <div class=""stimulus-container"" style=""display: flex; width: 1100px; justify-content: center; gap: 50px;"">
                            <img src=""images/causal_sequence/dog_causal/dog_causal_2.png"" class=""exp-image"">
                            <img src=""images/causal_sequence/dog_causal/dog_causal_6.png"" class=""exp-image"">
                        </div>","null","","","","","","",""
"","","","","","html-button-response","157","502274","0.0-152.0-1.0","76B4C3F69B37417CABF3D8F6DB1D82EF","019ce7af-3fb0-7fae-8571-3d50f3cd3b8b","019ce7a0-0965-7aa7-a556-174d32a8e773","","731","
                        <div style=""font-family: Arial; margin-bottom: 20px;""><h3>Which image is more valuable?</h3></div>
                        <div class=""stimulus-container"" style=""display: flex; width: 1100px; justify-content: center; gap: 50px;"">
                            <img src=""images/causal_sequence/dog_causal/dog_causal_2.png"" class=""exp-image"">
                            <img src=""images/causal_sequence/dog_causal/dog_causal_6.png"" class=""exp-image"">
                        </div>","1","part3_final_choice","","dog_causal","","4","6","2"
"","","","","","html-keyboard-response","158","512287","0.0-153.0-0.0","76B4C3F69B37417CABF3D8F6DB1D82EF","019ce7af-3fb0-7fae-8571-3d50f3cd3b8b","019ce7a0-0965-7aa7-a556-174d32a8e773","","null","
                        <div style=""font-family: Arial; margin-bottom: 20px;""><h3>Which image is more valuable?</h3></div>
                        <div class=""stimulus-container"" style=""display: flex; width: 1100px; justify-content: center; gap: 50px;"">
                            <img src=""images/causal_sequence/package_causal/package_causal_4.png"" class=""exp-image"">
                            <img src=""images/causal_sequence/package_causal/package_causal_8.png"" class=""exp-image"">
                        </div>","null","","","","","","",""
"","","","","","html-button-response","159","513289","0.0-153.0-1.0","76B4C3F69B37417CABF3D8F6DB1D82EF","019ce7af-3fb0-7fae-8571-3d50f3cd3b8b","019ce7a0-0965-7aa7-a556-174d32a8e773","","1001","
                        <div style=""font-family: Arial; margin-bottom: 20px;""><h3>Which image is more valuable?</h3></div>
                        <div class=""stimulus-container"" style=""display: flex; width: 1100px; justify-content: center; gap: 50px;"">
                            <img src=""images/causal_sequence/package_causal/package_causal_4.png"" class=""exp-image"">
                            <img src=""images/causal_sequence/package_causal/package_causal_8.png"" class=""exp-image"">
                        </div>","1","part3_final_choice","","package_causal","","6","8","2"
"","","","","","survey-text","160","519424","0.0-154.0","76B4C3F69B37417CABF3D8F6DB1D82EF","019ce7af-3fb0-7fae-8571-3d50f3cd3b8b","019ce7a0-0965-7aa7-a556-174d32a8e773","","6119","","{""gender"":""female"",""age"":""3"",""decision_strategy"":"""",""consistency_check"":""""}","demographics_and_strategy","","","","","",""
"","","","","","instructions","161","526066","0.0-155.0","76B4C3F69B37417CABF3D8F6DB1D82EF","019ce7af-3fb0-7fae-8571-3d50f3cd3b8b","019ce7a0-0965-7aa7-a556-174d32a8e773","[{""page_index"":0,""viewing_time"":6641}]","6642","","","","","","","","",""
