"success","timeout","failed_images","failed_audio","failed_video","trial_type","trial_index","time_elapsed","internal_node_id","subject_id","study_id","session_id","view_history","rt","stimulus","response","task","image_index","folder","sequence_type","presentation_order","valuable_image_index","reward_type","distance_from_x","target_X","chosen_image_index","is_x_plus_dist","correct_choice"
"true","false","[]","[]","[]","preload","0","8000","0.0-0.0","814A0C4DDB3A47B5B2A1C5648BD274FB","019cfa24-6775-7cae-b9f6-15199e63cd4d","019cfa18-54b6-74d4-8209-5fe92d2edcd5","","","","","","","","","","","","","","","",""
"","","","","","instructions","1","9790","0.0-1.0","814A0C4DDB3A47B5B2A1C5648BD274FB","019cfa24-6775-7cae-b9f6-15199e63cd4d","019cfa18-54b6-74d4-8209-5fe92d2edcd5","[{""page_index"":0,""viewing_time"":1790}]","1790","","","","","","","","","","","","","",""
"","","","","","instructions","2","13475","0.0-2.0","814A0C4DDB3A47B5B2A1C5648BD274FB","019cfa24-6775-7cae-b9f6-15199e63cd4d","019cfa18-54b6-74d4-8209-5fe92d2edcd5","[{""page_index"":0,""viewing_time"":3684}]","3684","","","","","","","","","","","","","",""
"true","","","","","fullscreen","3","15958","0.0-3.0","814A0C4DDB3A47B5B2A1C5648BD274FB","019cfa24-6775-7cae-b9f6-15199e63cd4d","019cfa18-54b6-74d4-8209-5fe92d2edcd5","","1480","","","","","","","","","","","","","",""
"","","","","","instructions","4","20040","0.0-4.0","814A0C4DDB3A47B5B2A1C5648BD274FB","019cfa24-6775-7cae-b9f6-15199e63cd4d","019cfa18-54b6-74d4-8209-5fe92d2edcd5","[{""page_index"":0,""viewing_time"":4080}]","4081","","","","","","","","","","","","","",""
"","","","","","instructions","5","24740","0.0-5.0","814A0C4DDB3A47B5B2A1C5648BD274FB","019cfa24-6775-7cae-b9f6-15199e63cd4d","019cfa18-54b6-74d4-8209-5fe92d2edcd5","[{""page_index"":0,""viewing_time"":4699}]","4699","","","","","","","","","","","","","",""
"","","","","","html-keyboard-response","6","28743","0.0-6.0","814A0C4DDB3A47B5B2A1C5648BD274FB","019cfa24-6775-7cae-b9f6-15199e63cd4d","019cfa18-54b6-74d4-8209-5fe92d2edcd5","","null","
                <div class=""stimulus-container"">
                    <img src=""images/instructions/movie_1.png"" class=""exp-image"">
                    <div class=""question-area""></div> 
                </div>","null","","","","","","","","","","","",""
"","","","","","html-button-response","7","30205","0.0-7.0","814A0C4DDB3A47B5B2A1C5648BD274FB","019cfa24-6775-7cae-b9f6-15199e63cd4d","019cfa18-54b6-74d4-8209-5fe92d2edcd5","","1460","
                <div class=""stimulus-container"">
                    <img src=""images/instructions/movie_1.png"" class=""exp-image"">
                    <div class=""question-area"">
                        <p style=""font-size: 20px; font-weight: bold; margin: 0;"">Was there a person in this image?</p>
                    </div>
                </div>","0","example_question","1","","","","","","","","","",""
"","","","","","html-keyboard-response","8","34207","0.0-8.0","814A0C4DDB3A47B5B2A1C5648BD274FB","019cfa24-6775-7cae-b9f6-15199e63cd4d","019cfa18-54b6-74d4-8209-5fe92d2edcd5","","null","
                <div class=""stimulus-container"">
                    <img src=""images/instructions/movie_2.png"" class=""exp-image"">
                    <div class=""question-area""></div> 
                </div>","null","","","","","","","","","","","",""
"","","","","","html-button-response","9","35208","0.0-9.0","814A0C4DDB3A47B5B2A1C5648BD274FB","019cfa24-6775-7cae-b9f6-15199e63cd4d","019cfa18-54b6-74d4-8209-5fe92d2edcd5","","999","
                <div class=""stimulus-container"">
                    <img src=""images/instructions/movie_2.png"" class=""exp-image"">
                    <div class=""question-area"">
                        <p style=""font-size: 20px; font-weight: bold; margin: 0;"">Was there a person in this image?</p>
                    </div>
                </div>","1","example_question","2","","","","","","","","","",""
"","","","","","html-keyboard-response","10","39210","0.0-10.0","814A0C4DDB3A47B5B2A1C5648BD274FB","019cfa24-6775-7cae-b9f6-15199e63cd4d","019cfa18-54b6-74d4-8209-5fe92d2edcd5","","null","
                <div class=""stimulus-container"">
                    <img src=""images/instructions/movie_3.png"" class=""exp-image"">
                    <div class=""question-area""></div> 
                </div>","null","","","","","","","","","","","",""
"","","","","","html-button-response","11","40141","0.0-11.0","814A0C4DDB3A47B5B2A1C5648BD274FB","019cfa24-6775-7cae-b9f6-15199e63cd4d","019cfa18-54b6-74d4-8209-5fe92d2edcd5","","931","
                <div class=""stimulus-container"">
                    <img src=""images/instructions/movie_3.png"" class=""exp-image"">
                    <div class=""question-area"">
                        <p style=""font-size: 20px; font-weight: bold; margin: 0;"">Was there a person in this image?</p>
                    </div>
                </div>","0","example_question","3","","","","","","","","","",""
"","","","","","html-keyboard-response","12","44144","0.0-12.0","814A0C4DDB3A47B5B2A1C5648BD274FB","019cfa24-6775-7cae-b9f6-15199e63cd4d","019cfa18-54b6-74d4-8209-5fe92d2edcd5","","null","
                <div class=""stimulus-container"">
                    <img src=""images/instructions/movie_4.png"" class=""exp-image"">
                    <div class=""question-area""></div> 
                </div>","null","","","","","","","","","","","",""
"","","","","","html-button-response","13","45008","0.0-13.0","814A0C4DDB3A47B5B2A1C5648BD274FB","019cfa24-6775-7cae-b9f6-15199e63cd4d","019cfa18-54b6-74d4-8209-5fe92d2edcd5","","863","
                <div class=""stimulus-container"">
                    <img src=""images/instructions/movie_4.png"" class=""exp-image"">
                    <div class=""question-area"">
                        <p style=""font-size: 20px; font-weight: bold; margin: 0;"">Was there a person in this image?</p>
                    </div>
                </div>","0","example_question","4","","","","","","","","","",""
"","","","","","instructions","14","47125","0.0-14.0","814A0C4DDB3A47B5B2A1C5648BD274FB","019cfa24-6775-7cae-b9f6-15199e63cd4d","019cfa18-54b6-74d4-8209-5fe92d2edcd5","[{""page_index"":0,""viewing_time"":2116}]","2116","","","","","","","","","","","","","",""
"","","","","","instructions","15","48608","0.0-15.0","814A0C4DDB3A47B5B2A1C5648BD274FB","019cfa24-6775-7cae-b9f6-15199e63cd4d","019cfa18-54b6-74d4-8209-5fe92d2edcd5","[{""page_index"":0,""viewing_time"":1482}]","1483","","","","","","","","","","","","","",""
"","","","","","html-keyboard-response","16","53610","0.0-16.0","814A0C4DDB3A47B5B2A1C5648BD274FB","019cfa24-6775-7cae-b9f6-15199e63cd4d","019cfa18-54b6-74d4-8209-5fe92d2edcd5","","null","<div style=""background-color: white; width: 100vw; height: 100vh;""></div>","null","","","","","","","","","","","",""
"","","","","","html-keyboard-response","17","54611","0.0-17.0","814A0C4DDB3A47B5B2A1C5648BD274FB","019cfa24-6775-7cae-b9f6-15199e63cd4d","019cfa18-54b6-74d4-8209-5fe92d2edcd5","","null","
                <div class=""stimulus-container"">
                    <img src=""images/semantic_sequence/market_semantic/market_semantic_1.png"" class=""exp-image"">
                    <div class=""question-area""></div> 
                </div>","null","","","","","","","","","","","",""
"","","","","","html-button-response","18","55942","0.0-18.0","814A0C4DDB3A47B5B2A1C5648BD274FB","019cfa24-6775-7cae-b9f6-15199e63cd4d","019cfa18-54b6-74d4-8209-5fe92d2edcd5","","1329","
                <div class=""stimulus-container"">
                    <img src=""images/semantic_sequence/market_semantic/market_semantic_1.png"" class=""exp-image"">
                    <div class=""question-area"">
                        <p style=""font-size: 20px; font-weight: bold; margin: 0;"">Is there a person in this image?</p>
                    </div>
                </div>","1","main_experiment_trial","1","market_semantic","semantic_sequence","chronological","","","","","","",""
"","","","","","html-keyboard-response","19","56943","0.0-19.0","814A0C4DDB3A47B5B2A1C5648BD274FB","019cfa24-6775-7cae-b9f6-15199e63cd4d","019cfa18-54b6-74d4-8209-5fe92d2edcd5","","null","
                <div class=""stimulus-container"">
                    <img src=""images/semantic_sequence/market_semantic/market_semantic_2.png"" class=""exp-image"">
                    <div class=""question-area""></div> 
                </div>","null","","","","","","","","","","","",""
"","","","","","html-button-response","20","57942","0.0-20.0","814A0C4DDB3A47B5B2A1C5648BD274FB","019cfa24-6775-7cae-b9f6-15199e63cd4d","019cfa18-54b6-74d4-8209-5fe92d2edcd5","","997","
                <div class=""stimulus-container"">
                    <img src=""images/semantic_sequence/market_semantic/market_semantic_2.png"" class=""exp-image"">
                    <div class=""question-area"">
                        <p style=""font-size: 20px; font-weight: bold; margin: 0;"">Is there a person in this image?</p>
                    </div>
                </div>","1","main_experiment_trial","2","market_semantic","semantic_sequence","chronological","","","","","","",""
"","","","","","html-keyboard-response","21","58944","0.0-21.0","814A0C4DDB3A47B5B2A1C5648BD274FB","019cfa24-6775-7cae-b9f6-15199e63cd4d","019cfa18-54b6-74d4-8209-5fe92d2edcd5","","null","
                <div class=""stimulus-container"">
                    <img src=""images/semantic_sequence/market_semantic/market_semantic_3.png"" class=""exp-image"">
                    <div class=""question-area""></div> 
                </div>","null","","","","","","","","","","","",""
"","","","","","html-button-response","22","59992","0.0-22.0","814A0C4DDB3A47B5B2A1C5648BD274FB","019cfa24-6775-7cae-b9f6-15199e63cd4d","019cfa18-54b6-74d4-8209-5fe92d2edcd5","","1046","
                <div class=""stimulus-container"">
                    <img src=""images/semantic_sequence/market_semantic/market_semantic_3.png"" class=""exp-image"">
                    <div class=""question-area"">
                        <p style=""font-size: 20px; font-weight: bold; margin: 0;"">Is there a person in this image?</p>
                    </div>
                </div>","1","main_experiment_trial","3","market_semantic","semantic_sequence","chronological","","","","","","",""
"","","","","","html-keyboard-response","23","60994","0.0-23.0","814A0C4DDB3A47B5B2A1C5648BD274FB","019cfa24-6775-7cae-b9f6-15199e63cd4d","019cfa18-54b6-74d4-8209-5fe92d2edcd5","","null","
                <div class=""stimulus-container"">
                    <img src=""images/semantic_sequence/market_semantic/market_semantic_4.png"" class=""exp-image"">
                    <div class=""question-area""></div> 
                </div>","null","","","","","","","","","","","",""
"","","","","","html-button-response","24","61989","0.0-24.0","814A0C4DDB3A47B5B2A1C5648BD274FB","019cfa24-6775-7cae-b9f6-15199e63cd4d","019cfa18-54b6-74d4-8209-5fe92d2edcd5","","994","
                <div class=""stimulus-container"">
                    <img src=""images/semantic_sequence/market_semantic/market_semantic_4.png"" class=""exp-image"">
                    <div class=""question-area"">
                        <p style=""font-size: 20px; font-weight: bold; margin: 0;"">Is there a person in this image?</p>
                    </div>
                </div>","0","main_experiment_trial","4","market_semantic","semantic_sequence","chronological","","","","","","",""
"","","","","","html-keyboard-response","25","62991","0.0-25.0","814A0C4DDB3A47B5B2A1C5648BD274FB","019cfa24-6775-7cae-b9f6-15199e63cd4d","019cfa18-54b6-74d4-8209-5fe92d2edcd5","","null","
                <div class=""stimulus-container"">
                    <img src=""images/semantic_sequence/market_semantic/market_semantic_5.png"" class=""exp-image"">
                    <div class=""question-area""></div> 
                </div>","null","","","","","","","","","","","",""
"","","","","","html-button-response","26","64308","0.0-26.0","814A0C4DDB3A47B5B2A1C5648BD274FB","019cfa24-6775-7cae-b9f6-15199e63cd4d","019cfa18-54b6-74d4-8209-5fe92d2edcd5","","1316","
                <div class=""stimulus-container"">
                    <img src=""images/semantic_sequence/market_semantic/market_semantic_5.png"" class=""exp-image"">
                    <div class=""question-area"">
                        <p style=""font-size: 20px; font-weight: bold; margin: 0;"">Is there a person in this image?</p>
                    </div>
                </div>","1","main_experiment_trial","5","market_semantic","semantic_sequence","chronological","","","","","","",""
"","","","","","html-keyboard-response","27","65310","0.0-27.0","814A0C4DDB3A47B5B2A1C5648BD274FB","019cfa24-6775-7cae-b9f6-15199e63cd4d","019cfa18-54b6-74d4-8209-5fe92d2edcd5","","null","
                <div class=""stimulus-container"">
                    <img src=""images/semantic_sequence/market_semantic/market_semantic_6.png"" class=""exp-image"">
                    <div class=""question-area""></div> 
                </div>","null","","","","","","","","","","","",""
"","","","","","html-button-response","28","68313","0.0-28.0","814A0C4DDB3A47B5B2A1C5648BD274FB","019cfa24-6775-7cae-b9f6-15199e63cd4d","019cfa18-54b6-74d4-8209-5fe92d2edcd5","","null","
                <div class=""stimulus-container"">
                    <img src=""images/semantic_sequence/market_semantic/market_semantic_6.png"" class=""exp-image"">
                    <div class=""question-area"">
                        <p style=""font-size: 20px; font-weight: bold; margin: 0;"">Is there a person in this image?</p>
                    </div>
                </div>","null","main_experiment_trial","6","market_semantic","semantic_sequence","chronological","","","","","","",""
"","","","","","html-keyboard-response","29","69315","0.0-29.0","814A0C4DDB3A47B5B2A1C5648BD274FB","019cfa24-6775-7cae-b9f6-15199e63cd4d","019cfa18-54b6-74d4-8209-5fe92d2edcd5","","null","
                <div class=""stimulus-container"">
                    <img src=""images/semantic_sequence/market_semantic/market_semantic_7.png"" class=""exp-image"">
                    <div class=""question-area""></div> 
                </div>","null","","","","","","","","","","","",""
"","","","","","html-button-response","30","70409","0.0-30.0","814A0C4DDB3A47B5B2A1C5648BD274FB","019cfa24-6775-7cae-b9f6-15199e63cd4d","019cfa18-54b6-74d4-8209-5fe92d2edcd5","","1093","
                <div class=""stimulus-container"">
                    <img src=""images/semantic_sequence/market_semantic/market_semantic_7.png"" class=""exp-image"">
                    <div class=""question-area"">
                        <p style=""font-size: 20px; font-weight: bold; margin: 0;"">Is there a person in this image?</p>
                    </div>
                </div>","0","main_experiment_trial","7","market_semantic","semantic_sequence","chronological","","","","","","",""
"","","","","","html-keyboard-response","31","71410","0.0-31.0","814A0C4DDB3A47B5B2A1C5648BD274FB","019cfa24-6775-7cae-b9f6-15199e63cd4d","019cfa18-54b6-74d4-8209-5fe92d2edcd5","","null","
                <div class=""stimulus-container"">
                    <img src=""images/semantic_sequence/market_semantic/market_semantic_8.png"" class=""exp-image"">
                    <div class=""question-area""></div> 
                </div>","null","","","","","","","","","","","",""
"","","","","","html-button-response","32","73075","0.0-32.0","814A0C4DDB3A47B5B2A1C5648BD274FB","019cfa24-6775-7cae-b9f6-15199e63cd4d","019cfa18-54b6-74d4-8209-5fe92d2edcd5","","1664","
                <div class=""stimulus-container"">
                    <img src=""images/semantic_sequence/market_semantic/market_semantic_8.png"" class=""exp-image"">
                    <div class=""question-area"">
                        <p style=""font-size: 20px; font-weight: bold; margin: 0;"">Is there a person in this image?</p>
                    </div>
                </div>","1","main_experiment_trial","8","market_semantic","semantic_sequence","chronological","","","","","","",""
"","","","","","html-keyboard-response","33","74077","0.0-33.0","814A0C4DDB3A47B5B2A1C5648BD274FB","019cfa24-6775-7cae-b9f6-15199e63cd4d","019cfa18-54b6-74d4-8209-5fe92d2edcd5","","null","
                <div class=""stimulus-container"">
                    <img src=""images/semantic_sequence/market_semantic/market_semantic_9.png"" class=""exp-image"">
                    <div class=""question-area""></div> 
                </div>","null","","","","","","","","","","","",""
"","","","","","html-button-response","34","74808","0.0-34.0","814A0C4DDB3A47B5B2A1C5648BD274FB","019cfa24-6775-7cae-b9f6-15199e63cd4d","019cfa18-54b6-74d4-8209-5fe92d2edcd5","","730","
                <div class=""stimulus-container"">
                    <img src=""images/semantic_sequence/market_semantic/market_semantic_9.png"" class=""exp-image"">
                    <div class=""question-area"">
                        <p style=""font-size: 20px; font-weight: bold; margin: 0;"">Is there a person in this image?</p>
                    </div>
                </div>","0","main_experiment_trial","9","market_semantic","semantic_sequence","chronological","","","","","","",""
"","","","","","html-keyboard-response","35","75810","0.0-35.0","814A0C4DDB3A47B5B2A1C5648BD274FB","019cfa24-6775-7cae-b9f6-15199e63cd4d","019cfa18-54b6-74d4-8209-5fe92d2edcd5","","null","
                <div class=""stimulus-container"">
                    <img src=""images/semantic_sequence/market_semantic/market_semantic_ten.png"" class=""exp-image"">
                    <div class=""question-area""></div> 
                </div>","null","","","","","","","","","","","",""
"","","","","","html-button-response","36","77006","0.0-36.0","814A0C4DDB3A47B5B2A1C5648BD274FB","019cfa24-6775-7cae-b9f6-15199e63cd4d","019cfa18-54b6-74d4-8209-5fe92d2edcd5","","1195","
                <div class=""stimulus-container"">
                    <img src=""images/semantic_sequence/market_semantic/market_semantic_ten.png"" class=""exp-image"">
                    <div class=""question-area"">
                        <p style=""font-size: 20px; font-weight: bold; margin: 0;"">Is there a person in this image?</p>
                    </div>
                </div>","1","main_experiment_trial","ten","market_semantic","semantic_sequence","chronological","","","","","","",""
"","","","","","html-keyboard-response","37","82009","0.0-37.0","814A0C4DDB3A47B5B2A1C5648BD274FB","019cfa24-6775-7cae-b9f6-15199e63cd4d","019cfa18-54b6-74d4-8209-5fe92d2edcd5","","null","<div style=""background-color: white; width: 100vw; height: 100vh;""></div>","null","","","","","","","","","","","",""
"","","","","","html-keyboard-response","38","83012","0.0-38.0","814A0C4DDB3A47B5B2A1C5648BD274FB","019cfa24-6775-7cae-b9f6-15199e63cd4d","019cfa18-54b6-74d4-8209-5fe92d2edcd5","","null","
                <div class=""stimulus-container"">
                    <img src=""images/causal_sequence/museum_causal/museum_causal_1.png"" class=""exp-image"">
                    <div class=""question-area""></div> 
                </div>","null","","","","","","","","","","","",""
"","","","","","html-button-response","39","84076","0.0-39.0","814A0C4DDB3A47B5B2A1C5648BD274FB","019cfa24-6775-7cae-b9f6-15199e63cd4d","019cfa18-54b6-74d4-8209-5fe92d2edcd5","","1062","
                <div class=""stimulus-container"">
                    <img src=""images/causal_sequence/museum_causal/museum_causal_1.png"" class=""exp-image"">
                    <div class=""question-area"">
                        <p style=""font-size: 20px; font-weight: bold; margin: 0;"">Is there a person in this image?</p>
                    </div>
                </div>","0","main_experiment_trial","1","museum_causal","causal_sequence","chronological","","","","","","",""
"","","","","","html-keyboard-response","40","85077","0.0-40.0","814A0C4DDB3A47B5B2A1C5648BD274FB","019cfa24-6775-7cae-b9f6-15199e63cd4d","019cfa18-54b6-74d4-8209-5fe92d2edcd5","","null","
                <div class=""stimulus-container"">
                    <img src=""images/causal_sequence/museum_causal/museum_causal_2.png"" class=""exp-image"">
                    <div class=""question-area""></div> 
                </div>","null","","","","","","","","","","","",""
"","","","","","html-button-response","41","85775","0.0-41.0","814A0C4DDB3A47B5B2A1C5648BD274FB","019cfa24-6775-7cae-b9f6-15199e63cd4d","019cfa18-54b6-74d4-8209-5fe92d2edcd5","","696","
                <div class=""stimulus-container"">
                    <img src=""images/causal_sequence/museum_causal/museum_causal_2.png"" class=""exp-image"">
                    <div class=""question-area"">
                        <p style=""font-size: 20px; font-weight: bold; margin: 0;"">Is there a person in this image?</p>
                    </div>
                </div>","0","main_experiment_trial","2","museum_causal","causal_sequence","chronological","","","","","","",""
"","","","","","html-keyboard-response","42","86776","0.0-42.0","814A0C4DDB3A47B5B2A1C5648BD274FB","019cfa24-6775-7cae-b9f6-15199e63cd4d","019cfa18-54b6-74d4-8209-5fe92d2edcd5","","null","
                <div class=""stimulus-container"">
                    <img src=""images/causal_sequence/museum_causal/museum_causal_3.png"" class=""exp-image"">
                    <div class=""question-area""></div> 
                </div>","null","","","","","","","","","","","",""
"","","","","","html-button-response","43","87958","0.0-43.0","814A0C4DDB3A47B5B2A1C5648BD274FB","019cfa24-6775-7cae-b9f6-15199e63cd4d","019cfa18-54b6-74d4-8209-5fe92d2edcd5","","1180","
                <div class=""stimulus-container"">
                    <img src=""images/causal_sequence/museum_causal/museum_causal_3.png"" class=""exp-image"">
                    <div class=""question-area"">
                        <p style=""font-size: 20px; font-weight: bold; margin: 0;"">Is there a person in this image?</p>
                    </div>
                </div>","0","main_experiment_trial","3","museum_causal","causal_sequence","chronological","","","","","","",""
"","","","","","html-keyboard-response","44","88959","0.0-44.0","814A0C4DDB3A47B5B2A1C5648BD274FB","019cfa24-6775-7cae-b9f6-15199e63cd4d","019cfa18-54b6-74d4-8209-5fe92d2edcd5","","null","
                <div class=""stimulus-container"">
                    <img src=""images/causal_sequence/museum_causal/museum_causal_4.png"" class=""exp-image"">
                    <div class=""question-area""></div> 
                </div>","null","","","","","","","","","","","",""
"","","","","","html-button-response","45","89710","0.0-45.0","814A0C4DDB3A47B5B2A1C5648BD274FB","019cfa24-6775-7cae-b9f6-15199e63cd4d","019cfa18-54b6-74d4-8209-5fe92d2edcd5","","749","
                <div class=""stimulus-container"">
                    <img src=""images/causal_sequence/museum_causal/museum_causal_4.png"" class=""exp-image"">
                    <div class=""question-area"">
                        <p style=""font-size: 20px; font-weight: bold; margin: 0;"">Is there a person in this image?</p>
                    </div>
                </div>","1","main_experiment_trial","4","museum_causal","causal_sequence","chronological","","","","","","",""
"","","","","","html-keyboard-response","46","90712","0.0-46.0","814A0C4DDB3A47B5B2A1C5648BD274FB","019cfa24-6775-7cae-b9f6-15199e63cd4d","019cfa18-54b6-74d4-8209-5fe92d2edcd5","","null","
                <div class=""stimulus-container"">
                    <img src=""images/causal_sequence/museum_causal/museum_causal_5.png"" class=""exp-image"">
                    <div class=""question-area""></div> 
                </div>","null","","","","","","","","","","","",""
"","","","","","html-button-response","47","91792","0.0-47.0","814A0C4DDB3A47B5B2A1C5648BD274FB","019cfa24-6775-7cae-b9f6-15199e63cd4d","019cfa18-54b6-74d4-8209-5fe92d2edcd5","","1078","
                <div class=""stimulus-container"">
                    <img src=""images/causal_sequence/museum_causal/museum_causal_5.png"" class=""exp-image"">
                    <div class=""question-area"">
                        <p style=""font-size: 20px; font-weight: bold; margin: 0;"">Is there a person in this image?</p>
                    </div>
                </div>","0","main_experiment_trial","5","museum_causal","causal_sequence","chronological","","","","","","",""
"","","","","","html-keyboard-response","48","92794","0.0-48.0","814A0C4DDB3A47B5B2A1C5648BD274FB","019cfa24-6775-7cae-b9f6-15199e63cd4d","019cfa18-54b6-74d4-8209-5fe92d2edcd5","","null","
                <div class=""stimulus-container"">
                    <img src=""images/causal_sequence/museum_causal/museum_causal_6.png"" class=""exp-image"">
                    <div class=""question-area""></div> 
                </div>","null","","","","","","","","","","","",""
"","","","","","html-button-response","49","93458","0.0-49.0","814A0C4DDB3A47B5B2A1C5648BD274FB","019cfa24-6775-7cae-b9f6-15199e63cd4d","019cfa18-54b6-74d4-8209-5fe92d2edcd5","","663","
                <div class=""stimulus-container"">
                    <img src=""images/causal_sequence/museum_causal/museum_causal_6.png"" class=""exp-image"">
                    <div class=""question-area"">
                        <p style=""font-size: 20px; font-weight: bold; margin: 0;"">Is there a person in this image?</p>
                    </div>
                </div>","0","main_experiment_trial","6","museum_causal","causal_sequence","chronological","","","","","","",""
"","","","","","html-keyboard-response","50","94460","0.0-50.0","814A0C4DDB3A47B5B2A1C5648BD274FB","019cfa24-6775-7cae-b9f6-15199e63cd4d","019cfa18-54b6-74d4-8209-5fe92d2edcd5","","null","
                <div class=""stimulus-container"">
                    <img src=""images/causal_sequence/museum_causal/museum_causal_7.png"" class=""exp-image"">
                    <div class=""question-area""></div> 
                </div>","null","","","","","","","","","","","",""
"","","","","","html-button-response","51","95042","0.0-51.0","814A0C4DDB3A47B5B2A1C5648BD274FB","019cfa24-6775-7cae-b9f6-15199e63cd4d","019cfa18-54b6-74d4-8209-5fe92d2edcd5","","581","
                <div class=""stimulus-container"">
                    <img src=""images/causal_sequence/museum_causal/museum_causal_7.png"" class=""exp-image"">
                    <div class=""question-area"">
                        <p style=""font-size: 20px; font-weight: bold; margin: 0;"">Is there a person in this image?</p>
                    </div>
                </div>","1","main_experiment_trial","7","museum_causal","causal_sequence","chronological","","","","","","",""
"","","","","","html-keyboard-response","52","96044","0.0-52.0","814A0C4DDB3A47B5B2A1C5648BD274FB","019cfa24-6775-7cae-b9f6-15199e63cd4d","019cfa18-54b6-74d4-8209-5fe92d2edcd5","","null","
                <div class=""stimulus-container"">
                    <img src=""images/causal_sequence/museum_causal/museum_causal_8.png"" class=""exp-image"">
                    <div class=""question-area""></div> 
                </div>","null","","","","","","","","","","","",""
"","","","","","html-button-response","53","96675","0.0-53.0","814A0C4DDB3A47B5B2A1C5648BD274FB","019cfa24-6775-7cae-b9f6-15199e63cd4d","019cfa18-54b6-74d4-8209-5fe92d2edcd5","","629","
                <div class=""stimulus-container"">
                    <img src=""images/causal_sequence/museum_causal/museum_causal_8.png"" class=""exp-image"">
                    <div class=""question-area"">
                        <p style=""font-size: 20px; font-weight: bold; margin: 0;"">Is there a person in this image?</p>
                    </div>
                </div>","0","main_experiment_trial","8","museum_causal","causal_sequence","chronological","","","","","","",""
"","","","","","html-keyboard-response","54","97676","0.0-54.0","814A0C4DDB3A47B5B2A1C5648BD274FB","019cfa24-6775-7cae-b9f6-15199e63cd4d","019cfa18-54b6-74d4-8209-5fe92d2edcd5","","null","
                <div class=""stimulus-container"">
                    <img src=""images/causal_sequence/museum_causal/museum_causal_9.png"" class=""exp-image"">
                    <div class=""question-area""></div> 
                </div>","null","","","","","","","","","","","",""
"","","","","","html-button-response","55","98226","0.0-55.0","814A0C4DDB3A47B5B2A1C5648BD274FB","019cfa24-6775-7cae-b9f6-15199e63cd4d","019cfa18-54b6-74d4-8209-5fe92d2edcd5","","548","
                <div class=""stimulus-container"">
                    <img src=""images/causal_sequence/museum_causal/museum_causal_9.png"" class=""exp-image"">
                    <div class=""question-area"">
                        <p style=""font-size: 20px; font-weight: bold; margin: 0;"">Is there a person in this image?</p>
                    </div>
                </div>","1","main_experiment_trial","9","museum_causal","causal_sequence","chronological","","","","","","",""
"","","","","","html-keyboard-response","56","99227","0.0-56.0","814A0C4DDB3A47B5B2A1C5648BD274FB","019cfa24-6775-7cae-b9f6-15199e63cd4d","019cfa18-54b6-74d4-8209-5fe92d2edcd5","","null","
                <div class=""stimulus-container"">
                    <img src=""images/causal_sequence/museum_causal/museum_causal_ten.png"" class=""exp-image"">
                    <div class=""question-area""></div> 
                </div>","null","","","","","","","","","","","",""
"","","","","","html-button-response","57","99889","0.0-57.0","814A0C4DDB3A47B5B2A1C5648BD274FB","019cfa24-6775-7cae-b9f6-15199e63cd4d","019cfa18-54b6-74d4-8209-5fe92d2edcd5","","662","
                <div class=""stimulus-container"">
                    <img src=""images/causal_sequence/museum_causal/museum_causal_ten.png"" class=""exp-image"">
                    <div class=""question-area"">
                        <p style=""font-size: 20px; font-weight: bold; margin: 0;"">Is there a person in this image?</p>
                    </div>
                </div>","0","main_experiment_trial","ten","museum_causal","causal_sequence","chronological","","","","","","",""
"","","","","","html-keyboard-response","58","104891","0.0-58.0","814A0C4DDB3A47B5B2A1C5648BD274FB","019cfa24-6775-7cae-b9f6-15199e63cd4d","019cfa18-54b6-74d4-8209-5fe92d2edcd5","","null","<div style=""background-color: white; width: 100vw; height: 100vh;""></div>","null","","","","","","","","","","","",""
"","","","","","html-keyboard-response","59","105893","0.0-59.0","814A0C4DDB3A47B5B2A1C5648BD274FB","019cfa24-6775-7cae-b9f6-15199e63cd4d","019cfa18-54b6-74d4-8209-5fe92d2edcd5","","null","
                <div class=""stimulus-container"">
                    <img src=""images/causal_sequence/saving_a_cat_causal/saving_a_cat_causal_1.png"" class=""exp-image"">
                    <div class=""question-area""></div> 
                </div>","null","","","","","","","","","","","",""
"","","","","","html-button-response","60","106958","0.0-60.0","814A0C4DDB3A47B5B2A1C5648BD274FB","019cfa24-6775-7cae-b9f6-15199e63cd4d","019cfa18-54b6-74d4-8209-5fe92d2edcd5","","1063","
                <div class=""stimulus-container"">
                    <img src=""images/causal_sequence/saving_a_cat_causal/saving_a_cat_causal_1.png"" class=""exp-image"">
                    <div class=""question-area"">
                        <p style=""font-size: 20px; font-weight: bold; margin: 0;"">Is there a person in this image?</p>
                    </div>
                </div>","0","main_experiment_trial","1","saving_a_cat_causal","causal_sequence","chronological","","","","","","",""
"","","","","","html-keyboard-response","61","107959","0.0-61.0","814A0C4DDB3A47B5B2A1C5648BD274FB","019cfa24-6775-7cae-b9f6-15199e63cd4d","019cfa18-54b6-74d4-8209-5fe92d2edcd5","","null","
                <div class=""stimulus-container"">
                    <img src=""images/causal_sequence/saving_a_cat_causal/saving_a_cat_causal_2.png"" class=""exp-image"">
                    <div class=""question-area""></div> 
                </div>","null","","","","","","","","","","","",""
"","","","","","html-button-response","62","108842","0.0-62.0","814A0C4DDB3A47B5B2A1C5648BD274FB","019cfa24-6775-7cae-b9f6-15199e63cd4d","019cfa18-54b6-74d4-8209-5fe92d2edcd5","","881","
                <div class=""stimulus-container"">
                    <img src=""images/causal_sequence/saving_a_cat_causal/saving_a_cat_causal_2.png"" class=""exp-image"">
                    <div class=""question-area"">
                        <p style=""font-size: 20px; font-weight: bold; margin: 0;"">Is there a person in this image?</p>
                    </div>
                </div>","1","main_experiment_trial","2","saving_a_cat_causal","causal_sequence","chronological","","","","","","",""
"","","","","","html-keyboard-response","63","109843","0.0-63.0","814A0C4DDB3A47B5B2A1C5648BD274FB","019cfa24-6775-7cae-b9f6-15199e63cd4d","019cfa18-54b6-74d4-8209-5fe92d2edcd5","","null","
                <div class=""stimulus-container"">
                    <img src=""images/causal_sequence/saving_a_cat_causal/saving_a_cat_causal_3.png"" class=""exp-image"">
                    <div class=""question-area""></div> 
                </div>","null","","","","","","","","","","","",""
"","","","","","html-button-response","64","110441","0.0-64.0","814A0C4DDB3A47B5B2A1C5648BD274FB","019cfa24-6775-7cae-b9f6-15199e63cd4d","019cfa18-54b6-74d4-8209-5fe92d2edcd5","","597","
                <div class=""stimulus-container"">
                    <img src=""images/causal_sequence/saving_a_cat_causal/saving_a_cat_causal_3.png"" class=""exp-image"">
                    <div class=""question-area"">
                        <p style=""font-size: 20px; font-weight: bold; margin: 0;"">Is there a person in this image?</p>
                    </div>
                </div>","1","main_experiment_trial","3","saving_a_cat_causal","causal_sequence","chronological","","","","","","",""
"","","","","","html-keyboard-response","65","111443","0.0-65.0","814A0C4DDB3A47B5B2A1C5648BD274FB","019cfa24-6775-7cae-b9f6-15199e63cd4d","019cfa18-54b6-74d4-8209-5fe92d2edcd5","","null","
                <div class=""stimulus-container"">
                    <img src=""images/causal_sequence/saving_a_cat_causal/saving_a_cat_causal_4.png"" class=""exp-image"">
                    <div class=""question-area""></div> 
                </div>","null","","","","","","","","","","","",""
"","","","","","html-button-response","66","112075","0.0-66.0","814A0C4DDB3A47B5B2A1C5648BD274FB","019cfa24-6775-7cae-b9f6-15199e63cd4d","019cfa18-54b6-74d4-8209-5fe92d2edcd5","","631","
                <div class=""stimulus-container"">
                    <img src=""images/causal_sequence/saving_a_cat_causal/saving_a_cat_causal_4.png"" class=""exp-image"">
                    <div class=""question-area"">
                        <p style=""font-size: 20px; font-weight: bold; margin: 0;"">Is there a person in this image?</p>
                    </div>
                </div>","0","main_experiment_trial","4","saving_a_cat_causal","causal_sequence","chronological","","","","","","",""
"","","","","","html-keyboard-response","67","113077","0.0-67.0","814A0C4DDB3A47B5B2A1C5648BD274FB","019cfa24-6775-7cae-b9f6-15199e63cd4d","019cfa18-54b6-74d4-8209-5fe92d2edcd5","","null","
                <div class=""stimulus-container"">
                    <img src=""images/causal_sequence/saving_a_cat_causal/saving_a_cat_causal_5.png"" class=""exp-image"">
                    <div class=""question-area""></div> 
                </div>","null","","","","","","","","","","","",""
"","","","","","html-button-response","68","113609","0.0-68.0","814A0C4DDB3A47B5B2A1C5648BD274FB","019cfa24-6775-7cae-b9f6-15199e63cd4d","019cfa18-54b6-74d4-8209-5fe92d2edcd5","","531","
                <div class=""stimulus-container"">
                    <img src=""images/causal_sequence/saving_a_cat_causal/saving_a_cat_causal_5.png"" class=""exp-image"">
                    <div class=""question-area"">
                        <p style=""font-size: 20px; font-weight: bold; margin: 0;"">Is there a person in this image?</p>
                    </div>
                </div>","0","main_experiment_trial","5","saving_a_cat_causal","causal_sequence","chronological","","","","","","",""
"","","","","","html-keyboard-response","69","114610","0.0-69.0","814A0C4DDB3A47B5B2A1C5648BD274FB","019cfa24-6775-7cae-b9f6-15199e63cd4d","019cfa18-54b6-74d4-8209-5fe92d2edcd5","","null","
                <div class=""stimulus-container"">
                    <img src=""images/causal_sequence/saving_a_cat_causal/saving_a_cat_causal_6.png"" class=""exp-image"">
                    <div class=""question-area""></div> 
                </div>","null","","","","","","","","","","","",""
"","","","","","html-button-response","70","115342","0.0-70.0","814A0C4DDB3A47B5B2A1C5648BD274FB","019cfa24-6775-7cae-b9f6-15199e63cd4d","019cfa18-54b6-74d4-8209-5fe92d2edcd5","","730","
                <div class=""stimulus-container"">
                    <img src=""images/causal_sequence/saving_a_cat_causal/saving_a_cat_causal_6.png"" class=""exp-image"">
                    <div class=""question-area"">
                        <p style=""font-size: 20px; font-weight: bold; margin: 0;"">Is there a person in this image?</p>
                    </div>
                </div>","0","main_experiment_trial","6","saving_a_cat_causal","causal_sequence","chronological","","","","","","",""
"","","","","","html-keyboard-response","71","116344","0.0-71.0","814A0C4DDB3A47B5B2A1C5648BD274FB","019cfa24-6775-7cae-b9f6-15199e63cd4d","019cfa18-54b6-74d4-8209-5fe92d2edcd5","","null","
                <div class=""stimulus-container"">
                    <img src=""images/causal_sequence/saving_a_cat_causal/saving_a_cat_causal_7.png"" class=""exp-image"">
                    <div class=""question-area""></div> 
                </div>","null","","","","","","","","","","","",""
"","","","","","html-button-response","72","117291","0.0-72.0","814A0C4DDB3A47B5B2A1C5648BD274FB","019cfa24-6775-7cae-b9f6-15199e63cd4d","019cfa18-54b6-74d4-8209-5fe92d2edcd5","","946","
                <div class=""stimulus-container"">
                    <img src=""images/causal_sequence/saving_a_cat_causal/saving_a_cat_causal_7.png"" class=""exp-image"">
                    <div class=""question-area"">
                        <p style=""font-size: 20px; font-weight: bold; margin: 0;"">Is there a person in this image?</p>
                    </div>
                </div>","1","main_experiment_trial","7","saving_a_cat_causal","causal_sequence","chronological","","","","","","",""
"","","","","","html-keyboard-response","73","118293","0.0-73.0","814A0C4DDB3A47B5B2A1C5648BD274FB","019cfa24-6775-7cae-b9f6-15199e63cd4d","019cfa18-54b6-74d4-8209-5fe92d2edcd5","","null","
                <div class=""stimulus-container"">
                    <img src=""images/causal_sequence/saving_a_cat_causal/saving_a_cat_causal_8.png"" class=""exp-image"">
                    <div class=""question-area""></div> 
                </div>","null","","","","","","","","","","","",""
"","","","","","html-button-response","74","119009","0.0-74.0","814A0C4DDB3A47B5B2A1C5648BD274FB","019cfa24-6775-7cae-b9f6-15199e63cd4d","019cfa18-54b6-74d4-8209-5fe92d2edcd5","","715","
                <div class=""stimulus-container"">
                    <img src=""images/causal_sequence/saving_a_cat_causal/saving_a_cat_causal_8.png"" class=""exp-image"">
                    <div class=""question-area"">
                        <p style=""font-size: 20px; font-weight: bold; margin: 0;"">Is there a person in this image?</p>
                    </div>
                </div>","1","main_experiment_trial","8","saving_a_cat_causal","causal_sequence","chronological","","","","","","",""
"","","","","","html-keyboard-response","75","120011","0.0-75.0","814A0C4DDB3A47B5B2A1C5648BD274FB","019cfa24-6775-7cae-b9f6-15199e63cd4d","019cfa18-54b6-74d4-8209-5fe92d2edcd5","","null","
                <div class=""stimulus-container"">
                    <img src=""images/causal_sequence/saving_a_cat_causal/saving_a_cat_causal_9.png"" class=""exp-image"">
                    <div class=""question-area""></div> 
                </div>","null","","","","","","","","","","","",""
"","","","","","html-button-response","76","121158","0.0-76.0","814A0C4DDB3A47B5B2A1C5648BD274FB","019cfa24-6775-7cae-b9f6-15199e63cd4d","019cfa18-54b6-74d4-8209-5fe92d2edcd5","","1146","
                <div class=""stimulus-container"">
                    <img src=""images/causal_sequence/saving_a_cat_causal/saving_a_cat_causal_9.png"" class=""exp-image"">
                    <div class=""question-area"">
                        <p style=""font-size: 20px; font-weight: bold; margin: 0;"">Is there a person in this image?</p>
                    </div>
                </div>","0","main_experiment_trial","9","saving_a_cat_causal","causal_sequence","chronological","","","","","","",""
"","","","","","html-keyboard-response","77","122160","0.0-77.0","814A0C4DDB3A47B5B2A1C5648BD274FB","019cfa24-6775-7cae-b9f6-15199e63cd4d","019cfa18-54b6-74d4-8209-5fe92d2edcd5","","null","
                <div class=""stimulus-container"">
                    <img src=""images/causal_sequence/saving_a_cat_causal/saving_a_cat_causal_ten.png"" class=""exp-image"">
                    <div class=""question-area""></div> 
                </div>","null","","","","","","","","","","","",""
"","","","","","html-button-response","78","122774","0.0-78.0","814A0C4DDB3A47B5B2A1C5648BD274FB","019cfa24-6775-7cae-b9f6-15199e63cd4d","019cfa18-54b6-74d4-8209-5fe92d2edcd5","","613","
                <div class=""stimulus-container"">
                    <img src=""images/causal_sequence/saving_a_cat_causal/saving_a_cat_causal_ten.png"" class=""exp-image"">
                    <div class=""question-area"">
                        <p style=""font-size: 20px; font-weight: bold; margin: 0;"">Is there a person in this image?</p>
                    </div>
                </div>","0","main_experiment_trial","ten","saving_a_cat_causal","causal_sequence","chronological","","","","","","",""
"","","","","","html-keyboard-response","79","127776","0.0-79.0","814A0C4DDB3A47B5B2A1C5648BD274FB","019cfa24-6775-7cae-b9f6-15199e63cd4d","019cfa18-54b6-74d4-8209-5fe92d2edcd5","","null","<div style=""background-color: white; width: 100vw; height: 100vh;""></div>","null","","","","","","","","","","","",""
"","","","","","html-keyboard-response","80","128778","0.0-80.0","814A0C4DDB3A47B5B2A1C5648BD274FB","019cfa24-6775-7cae-b9f6-15199e63cd4d","019cfa18-54b6-74d4-8209-5fe92d2edcd5","","null","
                <div class=""stimulus-container"">
                    <img src=""images/causal_sequence/coin_causal/coin_causal_1.png"" class=""exp-image"">
                    <div class=""question-area""></div> 
                </div>","null","","","","","","","","","","","",""
"","","","","","html-button-response","81","129659","0.0-81.0","814A0C4DDB3A47B5B2A1C5648BD274FB","019cfa24-6775-7cae-b9f6-15199e63cd4d","019cfa18-54b6-74d4-8209-5fe92d2edcd5","","879","
                <div class=""stimulus-container"">
                    <img src=""images/causal_sequence/coin_causal/coin_causal_1.png"" class=""exp-image"">
                    <div class=""question-area"">
                        <p style=""font-size: 20px; font-weight: bold; margin: 0;"">Is there a person in this image?</p>
                    </div>
                </div>","0","main_experiment_trial","1","coin_causal","causal_sequence","chronological","","","","","","",""
"","","","","","html-keyboard-response","82","130660","0.0-82.0","814A0C4DDB3A47B5B2A1C5648BD274FB","019cfa24-6775-7cae-b9f6-15199e63cd4d","019cfa18-54b6-74d4-8209-5fe92d2edcd5","","null","
                <div class=""stimulus-container"">
                    <img src=""images/causal_sequence/coin_causal/coin_causal_2.png"" class=""exp-image"">
                    <div class=""question-area""></div> 
                </div>","null","","","","","","","","","","","",""
"","","","","","html-button-response","83","131510","0.0-83.0","814A0C4DDB3A47B5B2A1C5648BD274FB","019cfa24-6775-7cae-b9f6-15199e63cd4d","019cfa18-54b6-74d4-8209-5fe92d2edcd5","","849","
                <div class=""stimulus-container"">
                    <img src=""images/causal_sequence/coin_causal/coin_causal_2.png"" class=""exp-image"">
                    <div class=""question-area"">
                        <p style=""font-size: 20px; font-weight: bold; margin: 0;"">Is there a person in this image?</p>
                    </div>
                </div>","0","main_experiment_trial","2","coin_causal","causal_sequence","chronological","","","","","","",""
"","","","","","html-keyboard-response","84","132511","0.0-84.0","814A0C4DDB3A47B5B2A1C5648BD274FB","019cfa24-6775-7cae-b9f6-15199e63cd4d","019cfa18-54b6-74d4-8209-5fe92d2edcd5","","null","
                <div class=""stimulus-container"">
                    <img src=""images/causal_sequence/coin_causal/coin_causal_3.png"" class=""exp-image"">
                    <div class=""question-area""></div> 
                </div>","null","","","","","","","","","","","",""
"","","","","","html-button-response","85","133226","0.0-85.0","814A0C4DDB3A47B5B2A1C5648BD274FB","019cfa24-6775-7cae-b9f6-15199e63cd4d","019cfa18-54b6-74d4-8209-5fe92d2edcd5","","714","
                <div class=""stimulus-container"">
                    <img src=""images/causal_sequence/coin_causal/coin_causal_3.png"" class=""exp-image"">
                    <div class=""question-area"">
                        <p style=""font-size: 20px; font-weight: bold; margin: 0;"">Is there a person in this image?</p>
                    </div>
                </div>","0","main_experiment_trial","3","coin_causal","causal_sequence","chronological","","","","","","",""
"","","","","","html-keyboard-response","86","134227","0.0-86.0","814A0C4DDB3A47B5B2A1C5648BD274FB","019cfa24-6775-7cae-b9f6-15199e63cd4d","019cfa18-54b6-74d4-8209-5fe92d2edcd5","","null","
                <div class=""stimulus-container"">
                    <img src=""images/causal_sequence/coin_causal/coin_causal_4.png"" class=""exp-image"">
                    <div class=""question-area""></div> 
                </div>","null","","","","","","","","","","","",""
"","","","","","html-button-response","87","134925","0.0-87.0","814A0C4DDB3A47B5B2A1C5648BD274FB","019cfa24-6775-7cae-b9f6-15199e63cd4d","019cfa18-54b6-74d4-8209-5fe92d2edcd5","","696","
                <div class=""stimulus-container"">
                    <img src=""images/causal_sequence/coin_causal/coin_causal_4.png"" class=""exp-image"">
                    <div class=""question-area"">
                        <p style=""font-size: 20px; font-weight: bold; margin: 0;"">Is there a person in this image?</p>
                    </div>
                </div>","0","main_experiment_trial","4","coin_causal","causal_sequence","chronological","","","","","","",""
"","","","","","html-keyboard-response","88","135927","0.0-88.0","814A0C4DDB3A47B5B2A1C5648BD274FB","019cfa24-6775-7cae-b9f6-15199e63cd4d","019cfa18-54b6-74d4-8209-5fe92d2edcd5","","null","
                <div class=""stimulus-container"">
                    <img src=""images/causal_sequence/coin_causal/coin_causal_5.png"" class=""exp-image"">
                    <div class=""question-area""></div> 
                </div>","null","","","","","","","","","","","",""
"","","","","","html-button-response","89","136625","0.0-89.0","814A0C4DDB3A47B5B2A1C5648BD274FB","019cfa24-6775-7cae-b9f6-15199e63cd4d","019cfa18-54b6-74d4-8209-5fe92d2edcd5","","697","
                <div class=""stimulus-container"">
                    <img src=""images/causal_sequence/coin_causal/coin_causal_5.png"" class=""exp-image"">
                    <div class=""question-area"">
                        <p style=""font-size: 20px; font-weight: bold; margin: 0;"">Is there a person in this image?</p>
                    </div>
                </div>","0","main_experiment_trial","5","coin_causal","causal_sequence","chronological","","","","","","",""
"","","","","","html-keyboard-response","90","137626","0.0-90.0","814A0C4DDB3A47B5B2A1C5648BD274FB","019cfa24-6775-7cae-b9f6-15199e63cd4d","019cfa18-54b6-74d4-8209-5fe92d2edcd5","","null","
                <div class=""stimulus-container"">
                    <img src=""images/causal_sequence/coin_causal/coin_causal_6.png"" class=""exp-image"">
                    <div class=""question-area""></div> 
                </div>","null","","","","","","","","","","","",""
"","","","","","html-button-response","91","138225","0.0-91.0","814A0C4DDB3A47B5B2A1C5648BD274FB","019cfa24-6775-7cae-b9f6-15199e63cd4d","019cfa18-54b6-74d4-8209-5fe92d2edcd5","","598","
                <div class=""stimulus-container"">
                    <img src=""images/causal_sequence/coin_causal/coin_causal_6.png"" class=""exp-image"">
                    <div class=""question-area"">
                        <p style=""font-size: 20px; font-weight: bold; margin: 0;"">Is there a person in this image?</p>
                    </div>
                </div>","0","main_experiment_trial","6","coin_causal","causal_sequence","chronological","","","","","","",""
"","","","","","html-keyboard-response","92","139227","0.0-92.0","814A0C4DDB3A47B5B2A1C5648BD274FB","019cfa24-6775-7cae-b9f6-15199e63cd4d","019cfa18-54b6-74d4-8209-5fe92d2edcd5","","null","
                <div class=""stimulus-container"">
                    <img src=""images/causal_sequence/coin_causal/coin_causal_7.png"" class=""exp-image"">
                    <div class=""question-area""></div> 
                </div>","null","","","","","","","","","","","",""
"","","","","","html-button-response","93","139843","0.0-93.0","814A0C4DDB3A47B5B2A1C5648BD274FB","019cfa24-6775-7cae-b9f6-15199e63cd4d","019cfa18-54b6-74d4-8209-5fe92d2edcd5","","615","
                <div class=""stimulus-container"">
                    <img src=""images/causal_sequence/coin_causal/coin_causal_7.png"" class=""exp-image"">
                    <div class=""question-area"">
                        <p style=""font-size: 20px; font-weight: bold; margin: 0;"">Is there a person in this image?</p>
                    </div>
                </div>","1","main_experiment_trial","7","coin_causal","causal_sequence","chronological","","","","","","",""
"","","","","","html-keyboard-response","94","140844","0.0-94.0","814A0C4DDB3A47B5B2A1C5648BD274FB","019cfa24-6775-7cae-b9f6-15199e63cd4d","019cfa18-54b6-74d4-8209-5fe92d2edcd5","","null","
                <div class=""stimulus-container"">
                    <img src=""images/causal_sequence/coin_causal/coin_causal_8.png"" class=""exp-image"">
                    <div class=""question-area""></div> 
                </div>","null","","","","","","","","","","","",""
"","","","","","html-button-response","95","141576","0.0-95.0","814A0C4DDB3A47B5B2A1C5648BD274FB","019cfa24-6775-7cae-b9f6-15199e63cd4d","019cfa18-54b6-74d4-8209-5fe92d2edcd5","","730","
                <div class=""stimulus-container"">
                    <img src=""images/causal_sequence/coin_causal/coin_causal_8.png"" class=""exp-image"">
                    <div class=""question-area"">
                        <p style=""font-size: 20px; font-weight: bold; margin: 0;"">Is there a person in this image?</p>
                    </div>
                </div>","0","main_experiment_trial","8","coin_causal","causal_sequence","chronological","","","","","","",""
"","","","","","html-keyboard-response","96","142577","0.0-96.0","814A0C4DDB3A47B5B2A1C5648BD274FB","019cfa24-6775-7cae-b9f6-15199e63cd4d","019cfa18-54b6-74d4-8209-5fe92d2edcd5","","null","
                <div class=""stimulus-container"">
                    <img src=""images/causal_sequence/coin_causal/coin_causal_9.png"" class=""exp-image"">
                    <div class=""question-area""></div> 
                </div>","null","","","","","","","","","","","",""
"","","","","","html-button-response","97","143209","0.0-97.0","814A0C4DDB3A47B5B2A1C5648BD274FB","019cfa24-6775-7cae-b9f6-15199e63cd4d","019cfa18-54b6-74d4-8209-5fe92d2edcd5","","631","
                <div class=""stimulus-container"">
                    <img src=""images/causal_sequence/coin_causal/coin_causal_9.png"" class=""exp-image"">
                    <div class=""question-area"">
                        <p style=""font-size: 20px; font-weight: bold; margin: 0;"">Is there a person in this image?</p>
                    </div>
                </div>","0","main_experiment_trial","9","coin_causal","causal_sequence","chronological","","","","","","",""
"","","","","","html-keyboard-response","98","144211","0.0-98.0","814A0C4DDB3A47B5B2A1C5648BD274FB","019cfa24-6775-7cae-b9f6-15199e63cd4d","019cfa18-54b6-74d4-8209-5fe92d2edcd5","","null","
                <div class=""stimulus-container"">
                    <img src=""images/causal_sequence/coin_causal/coin_causal_ten.png"" class=""exp-image"">
                    <div class=""question-area""></div> 
                </div>","null","","","","","","","","","","","",""
"","","","","","html-button-response","99","144793","0.0-99.0","814A0C4DDB3A47B5B2A1C5648BD274FB","019cfa24-6775-7cae-b9f6-15199e63cd4d","019cfa18-54b6-74d4-8209-5fe92d2edcd5","","580","
                <div class=""stimulus-container"">
                    <img src=""images/causal_sequence/coin_causal/coin_causal_ten.png"" class=""exp-image"">
                    <div class=""question-area"">
                        <p style=""font-size: 20px; font-weight: bold; margin: 0;"">Is there a person in this image?</p>
                    </div>
                </div>","0","main_experiment_trial","ten","coin_causal","causal_sequence","chronological","","","","","","",""
"","","","","","html-keyboard-response","100","149795","0.0-100.0","814A0C4DDB3A47B5B2A1C5648BD274FB","019cfa24-6775-7cae-b9f6-15199e63cd4d","019cfa18-54b6-74d4-8209-5fe92d2edcd5","","null","<div style=""background-color: white; width: 100vw; height: 100vh;""></div>","null","","","","","","","","","","","",""
"","","","","","html-keyboard-response","101","150797","0.0-101.0","814A0C4DDB3A47B5B2A1C5648BD274FB","019cfa24-6775-7cae-b9f6-15199e63cd4d","019cfa18-54b6-74d4-8209-5fe92d2edcd5","","null","
                <div class=""stimulus-container"">
                    <img src=""images/semantic_sequence/cat_care_semantic/cat_care_semantic_1.png"" class=""exp-image"">
                    <div class=""question-area""></div> 
                </div>","null","","","","","","","","","","","",""
"","","","","","html-button-response","102","151360","0.0-102.0","814A0C4DDB3A47B5B2A1C5648BD274FB","019cfa24-6775-7cae-b9f6-15199e63cd4d","019cfa18-54b6-74d4-8209-5fe92d2edcd5","","561","
                <div class=""stimulus-container"">
                    <img src=""images/semantic_sequence/cat_care_semantic/cat_care_semantic_1.png"" class=""exp-image"">
                    <div class=""question-area"">
                        <p style=""font-size: 20px; font-weight: bold; margin: 0;"">Is there a person in this image?</p>
                    </div>
                </div>","0","main_experiment_trial","1","cat_care_semantic","semantic_sequence","chronological","","","","","","",""
"","","","","","html-keyboard-response","103","152361","0.0-103.0","814A0C4DDB3A47B5B2A1C5648BD274FB","019cfa24-6775-7cae-b9f6-15199e63cd4d","019cfa18-54b6-74d4-8209-5fe92d2edcd5","","null","
                <div class=""stimulus-container"">
                    <img src=""images/semantic_sequence/cat_care_semantic/cat_care_semantic_2.png"" class=""exp-image"">
                    <div class=""question-area""></div> 
                </div>","null","","","","","","","","","","","",""
"","","","","","html-button-response","104","153974","0.0-104.0","814A0C4DDB3A47B5B2A1C5648BD274FB","019cfa24-6775-7cae-b9f6-15199e63cd4d","019cfa18-54b6-74d4-8209-5fe92d2edcd5","","1612","
                <div class=""stimulus-container"">
                    <img src=""images/semantic_sequence/cat_care_semantic/cat_care_semantic_2.png"" class=""exp-image"">
                    <div class=""question-area"">
                        <p style=""font-size: 20px; font-weight: bold; margin: 0;"">Is there a person in this image?</p>
                    </div>
                </div>","1","main_experiment_trial","2","cat_care_semantic","semantic_sequence","chronological","","","","","","",""
"","","","","","html-keyboard-response","105","154977","0.0-105.0","814A0C4DDB3A47B5B2A1C5648BD274FB","019cfa24-6775-7cae-b9f6-15199e63cd4d","019cfa18-54b6-74d4-8209-5fe92d2edcd5","","null","
                <div class=""stimulus-container"">
                    <img src=""images/semantic_sequence/cat_care_semantic/cat_care_semantic_3.png"" class=""exp-image"">
                    <div class=""question-area""></div> 
                </div>","null","","","","","","","","","","","",""
"","","","","","html-button-response","106","156060","0.0-106.0","814A0C4DDB3A47B5B2A1C5648BD274FB","019cfa24-6775-7cae-b9f6-15199e63cd4d","019cfa18-54b6-74d4-8209-5fe92d2edcd5","","1081","
                <div class=""stimulus-container"">
                    <img src=""images/semantic_sequence/cat_care_semantic/cat_care_semantic_3.png"" class=""exp-image"">
                    <div class=""question-area"">
                        <p style=""font-size: 20px; font-weight: bold; margin: 0;"">Is there a person in this image?</p>
                    </div>
                </div>","0","main_experiment_trial","3","cat_care_semantic","semantic_sequence","chronological","","","","","","",""
"","","","","","html-keyboard-response","107","157061","0.0-107.0","814A0C4DDB3A47B5B2A1C5648BD274FB","019cfa24-6775-7cae-b9f6-15199e63cd4d","019cfa18-54b6-74d4-8209-5fe92d2edcd5","","null","
                <div class=""stimulus-container"">
                    <img src=""images/semantic_sequence/cat_care_semantic/cat_care_semantic_4.png"" class=""exp-image"">
                    <div class=""question-area""></div> 
                </div>","null","","","","","","","","","","","",""
"","","","","","html-button-response","108","157943","0.0-108.0","814A0C4DDB3A47B5B2A1C5648BD274FB","019cfa24-6775-7cae-b9f6-15199e63cd4d","019cfa18-54b6-74d4-8209-5fe92d2edcd5","","881","
                <div class=""stimulus-container"">
                    <img src=""images/semantic_sequence/cat_care_semantic/cat_care_semantic_4.png"" class=""exp-image"">
                    <div class=""question-area"">
                        <p style=""font-size: 20px; font-weight: bold; margin: 0;"">Is there a person in this image?</p>
                    </div>
                </div>","0","main_experiment_trial","4","cat_care_semantic","semantic_sequence","chronological","","","","","","",""
"","","","","","html-keyboard-response","109","158945","0.0-109.0","814A0C4DDB3A47B5B2A1C5648BD274FB","019cfa24-6775-7cae-b9f6-15199e63cd4d","019cfa18-54b6-74d4-8209-5fe92d2edcd5","","null","
                <div class=""stimulus-container"">
                    <img src=""images/semantic_sequence/cat_care_semantic/cat_care_semantic_5.png"" class=""exp-image"">
                    <div class=""question-area""></div> 
                </div>","null","","","","","","","","","","","",""
"","","","","","html-button-response","110","159510","0.0-110.0","814A0C4DDB3A47B5B2A1C5648BD274FB","019cfa24-6775-7cae-b9f6-15199e63cd4d","019cfa18-54b6-74d4-8209-5fe92d2edcd5","","564","
                <div class=""stimulus-container"">
                    <img src=""images/semantic_sequence/cat_care_semantic/cat_care_semantic_5.png"" class=""exp-image"">
                    <div class=""question-area"">
                        <p style=""font-size: 20px; font-weight: bold; margin: 0;"">Is there a person in this image?</p>
                    </div>
                </div>","0","main_experiment_trial","5","cat_care_semantic","semantic_sequence","chronological","","","","","","",""
"","","","","","html-keyboard-response","111","160511","0.0-111.0","814A0C4DDB3A47B5B2A1C5648BD274FB","019cfa24-6775-7cae-b9f6-15199e63cd4d","019cfa18-54b6-74d4-8209-5fe92d2edcd5","","null","
                <div class=""stimulus-container"">
                    <img src=""images/semantic_sequence/cat_care_semantic/cat_care_semantic_6.png"" class=""exp-image"">
                    <div class=""question-area""></div> 
                </div>","null","","","","","","","","","","","",""
"","","","","","html-button-response","112","161193","0.0-112.0","814A0C4DDB3A47B5B2A1C5648BD274FB","019cfa24-6775-7cae-b9f6-15199e63cd4d","019cfa18-54b6-74d4-8209-5fe92d2edcd5","","680","
                <div class=""stimulus-container"">
                    <img src=""images/semantic_sequence/cat_care_semantic/cat_care_semantic_6.png"" class=""exp-image"">
                    <div class=""question-area"">
                        <p style=""font-size: 20px; font-weight: bold; margin: 0;"">Is there a person in this image?</p>
                    </div>
                </div>","0","main_experiment_trial","6","cat_care_semantic","semantic_sequence","chronological","","","","","","",""
"","","","","","html-keyboard-response","113","162195","0.0-113.0","814A0C4DDB3A47B5B2A1C5648BD274FB","019cfa24-6775-7cae-b9f6-15199e63cd4d","019cfa18-54b6-74d4-8209-5fe92d2edcd5","","null","
                <div class=""stimulus-container"">
                    <img src=""images/semantic_sequence/cat_care_semantic/cat_care_semantic_7.png"" class=""exp-image"">
                    <div class=""question-area""></div> 
                </div>","null","","","","","","","","","","","",""
"","","","","","html-button-response","114","162790","0.0-114.0","814A0C4DDB3A47B5B2A1C5648BD274FB","019cfa24-6775-7cae-b9f6-15199e63cd4d","019cfa18-54b6-74d4-8209-5fe92d2edcd5","","594","
                <div class=""stimulus-container"">
                    <img src=""images/semantic_sequence/cat_care_semantic/cat_care_semantic_7.png"" class=""exp-image"">
                    <div class=""question-area"">
                        <p style=""font-size: 20px; font-weight: bold; margin: 0;"">Is there a person in this image?</p>
                    </div>
                </div>","0","main_experiment_trial","7","cat_care_semantic","semantic_sequence","chronological","","","","","","",""
"","","","","","html-keyboard-response","115","163791","0.0-115.0","814A0C4DDB3A47B5B2A1C5648BD274FB","019cfa24-6775-7cae-b9f6-15199e63cd4d","019cfa18-54b6-74d4-8209-5fe92d2edcd5","","null","
                <div class=""stimulus-container"">
                    <img src=""images/semantic_sequence/cat_care_semantic/cat_care_semantic_8.png"" class=""exp-image"">
                    <div class=""question-area""></div> 
                </div>","null","","","","","","","","","","","",""
"","","","","","html-button-response","116","164410","0.0-116.0","814A0C4DDB3A47B5B2A1C5648BD274FB","019cfa24-6775-7cae-b9f6-15199e63cd4d","019cfa18-54b6-74d4-8209-5fe92d2edcd5","","617","
                <div class=""stimulus-container"">
                    <img src=""images/semantic_sequence/cat_care_semantic/cat_care_semantic_8.png"" class=""exp-image"">
                    <div class=""question-area"">
                        <p style=""font-size: 20px; font-weight: bold; margin: 0;"">Is there a person in this image?</p>
                    </div>
                </div>","0","main_experiment_trial","8","cat_care_semantic","semantic_sequence","chronological","","","","","","",""
"","","","","","html-keyboard-response","117","165412","0.0-117.0","814A0C4DDB3A47B5B2A1C5648BD274FB","019cfa24-6775-7cae-b9f6-15199e63cd4d","019cfa18-54b6-74d4-8209-5fe92d2edcd5","","null","
                <div class=""stimulus-container"">
                    <img src=""images/semantic_sequence/cat_care_semantic/cat_care_semantic_9.png"" class=""exp-image"">
                    <div class=""question-area""></div> 
                </div>","null","","","","","","","","","","","",""
"","","","","","html-button-response","118","166044","0.0-118.0","814A0C4DDB3A47B5B2A1C5648BD274FB","019cfa24-6775-7cae-b9f6-15199e63cd4d","019cfa18-54b6-74d4-8209-5fe92d2edcd5","","630","
                <div class=""stimulus-container"">
                    <img src=""images/semantic_sequence/cat_care_semantic/cat_care_semantic_9.png"" class=""exp-image"">
                    <div class=""question-area"">
                        <p style=""font-size: 20px; font-weight: bold; margin: 0;"">Is there a person in this image?</p>
                    </div>
                </div>","0","main_experiment_trial","9","cat_care_semantic","semantic_sequence","chronological","","","","","","",""
"","","","","","html-keyboard-response","119","167045","0.0-119.0","814A0C4DDB3A47B5B2A1C5648BD274FB","019cfa24-6775-7cae-b9f6-15199e63cd4d","019cfa18-54b6-74d4-8209-5fe92d2edcd5","","null","
                <div class=""stimulus-container"">
                    <img src=""images/semantic_sequence/cat_care_semantic/cat_care_semantic_ten.png"" class=""exp-image"">
                    <div class=""question-area""></div> 
                </div>","null","","","","","","","","","","","",""
"","","","","","html-button-response","120","167642","0.0-120.0","814A0C4DDB3A47B5B2A1C5648BD274FB","019cfa24-6775-7cae-b9f6-15199e63cd4d","019cfa18-54b6-74d4-8209-5fe92d2edcd5","","596","
                <div class=""stimulus-container"">
                    <img src=""images/semantic_sequence/cat_care_semantic/cat_care_semantic_ten.png"" class=""exp-image"">
                    <div class=""question-area"">
                        <p style=""font-size: 20px; font-weight: bold; margin: 0;"">Is there a person in this image?</p>
                    </div>
                </div>","1","main_experiment_trial","ten","cat_care_semantic","semantic_sequence","chronological","","","","","","",""
"","","","","","html-keyboard-response","121","172644","0.0-121.0","814A0C4DDB3A47B5B2A1C5648BD274FB","019cfa24-6775-7cae-b9f6-15199e63cd4d","019cfa18-54b6-74d4-8209-5fe92d2edcd5","","null","<div style=""background-color: white; width: 100vw; height: 100vh;""></div>","null","","","","","","","","","","","",""
"","","","","","html-keyboard-response","122","173645","0.0-122.0","814A0C4DDB3A47B5B2A1C5648BD274FB","019cfa24-6775-7cae-b9f6-15199e63cd4d","019cfa18-54b6-74d4-8209-5fe92d2edcd5","","null","
                <div class=""stimulus-container"">
                    <img src=""images/semantic_sequence/exploring_nature_semantic/exploring_nature_semantic_1.png"" class=""exp-image"">
                    <div class=""question-area""></div> 
                </div>","null","","","","","","","","","","","",""
"","","","","","html-button-response","123","174160","0.0-123.0","814A0C4DDB3A47B5B2A1C5648BD274FB","019cfa24-6775-7cae-b9f6-15199e63cd4d","019cfa18-54b6-74d4-8209-5fe92d2edcd5","","513","
                <div class=""stimulus-container"">
                    <img src=""images/semantic_sequence/exploring_nature_semantic/exploring_nature_semantic_1.png"" class=""exp-image"">
                    <div class=""question-area"">
                        <p style=""font-size: 20px; font-weight: bold; margin: 0;"">Is there a person in this image?</p>
                    </div>
                </div>","0","main_experiment_trial","1","exploring_nature_semantic","semantic_sequence","chronological","","","","","","",""
"","","","","","html-keyboard-response","124","175161","0.0-124.0","814A0C4DDB3A47B5B2A1C5648BD274FB","019cfa24-6775-7cae-b9f6-15199e63cd4d","019cfa18-54b6-74d4-8209-5fe92d2edcd5","","null","
                <div class=""stimulus-container"">
                    <img src=""images/semantic_sequence/exploring_nature_semantic/exploring_nature_semantic_2.png"" class=""exp-image"">
                    <div class=""question-area""></div> 
                </div>","null","","","","","","","","","","","",""
"","","","","","html-button-response","125","175676","0.0-125.0","814A0C4DDB3A47B5B2A1C5648BD274FB","019cfa24-6775-7cae-b9f6-15199e63cd4d","019cfa18-54b6-74d4-8209-5fe92d2edcd5","","514","
                <div class=""stimulus-container"">
                    <img src=""images/semantic_sequence/exploring_nature_semantic/exploring_nature_semantic_2.png"" class=""exp-image"">
                    <div class=""question-area"">
                        <p style=""font-size: 20px; font-weight: bold; margin: 0;"">Is there a person in this image?</p>
                    </div>
                </div>","0","main_experiment_trial","2","exploring_nature_semantic","semantic_sequence","chronological","","","","","","",""
"","","","","","html-keyboard-response","126","176678","0.0-126.0","814A0C4DDB3A47B5B2A1C5648BD274FB","019cfa24-6775-7cae-b9f6-15199e63cd4d","019cfa18-54b6-74d4-8209-5fe92d2edcd5","","null","
                <div class=""stimulus-container"">
                    <img src=""images/semantic_sequence/exploring_nature_semantic/exploring_nature_semantic_3.png"" class=""exp-image"">
                    <div class=""question-area""></div> 
                </div>","null","","","","","","","","","","","",""
"","","","","","html-button-response","127","177243","0.0-127.0","814A0C4DDB3A47B5B2A1C5648BD274FB","019cfa24-6775-7cae-b9f6-15199e63cd4d","019cfa18-54b6-74d4-8209-5fe92d2edcd5","","564","
                <div class=""stimulus-container"">
                    <img src=""images/semantic_sequence/exploring_nature_semantic/exploring_nature_semantic_3.png"" class=""exp-image"">
                    <div class=""question-area"">
                        <p style=""font-size: 20px; font-weight: bold; margin: 0;"">Is there a person in this image?</p>
                    </div>
                </div>","0","main_experiment_trial","3","exploring_nature_semantic","semantic_sequence","chronological","","","","","","",""
"","","","","","html-keyboard-response","128","178245","0.0-128.0","814A0C4DDB3A47B5B2A1C5648BD274FB","019cfa24-6775-7cae-b9f6-15199e63cd4d","019cfa18-54b6-74d4-8209-5fe92d2edcd5","","null","
                <div class=""stimulus-container"">
                    <img src=""images/semantic_sequence/exploring_nature_semantic/exploring_nature_semantic_4.png"" class=""exp-image"">
                    <div class=""question-area""></div> 
                </div>","null","","","","","","","","","","","",""
"","","","","","html-button-response","129","179143","0.0-129.0","814A0C4DDB3A47B5B2A1C5648BD274FB","019cfa24-6775-7cae-b9f6-15199e63cd4d","019cfa18-54b6-74d4-8209-5fe92d2edcd5","","897","
                <div class=""stimulus-container"">
                    <img src=""images/semantic_sequence/exploring_nature_semantic/exploring_nature_semantic_4.png"" class=""exp-image"">
                    <div class=""question-area"">
                        <p style=""font-size: 20px; font-weight: bold; margin: 0;"">Is there a person in this image?</p>
                    </div>
                </div>","0","main_experiment_trial","4","exploring_nature_semantic","semantic_sequence","chronological","","","","","","",""
"","","","","","html-keyboard-response","130","180144","0.0-130.0","814A0C4DDB3A47B5B2A1C5648BD274FB","019cfa24-6775-7cae-b9f6-15199e63cd4d","019cfa18-54b6-74d4-8209-5fe92d2edcd5","","null","
                <div class=""stimulus-container"">
                    <img src=""images/semantic_sequence/exploring_nature_semantic/exploring_nature_semantic_5.png"" class=""exp-image"">
                    <div class=""question-area""></div> 
                </div>","null","","","","","","","","","","","",""
"","","","","","html-button-response","131","180742","0.0-131.0","814A0C4DDB3A47B5B2A1C5648BD274FB","019cfa24-6775-7cae-b9f6-15199e63cd4d","019cfa18-54b6-74d4-8209-5fe92d2edcd5","","596","
                <div class=""stimulus-container"">
                    <img src=""images/semantic_sequence/exploring_nature_semantic/exploring_nature_semantic_5.png"" class=""exp-image"">
                    <div class=""question-area"">
                        <p style=""font-size: 20px; font-weight: bold; margin: 0;"">Is there a person in this image?</p>
                    </div>
                </div>","0","main_experiment_trial","5","exploring_nature_semantic","semantic_sequence","chronological","","","","","","",""
"","","","","","html-keyboard-response","132","181744","0.0-132.0","814A0C4DDB3A47B5B2A1C5648BD274FB","019cfa24-6775-7cae-b9f6-15199e63cd4d","019cfa18-54b6-74d4-8209-5fe92d2edcd5","","null","
                <div class=""stimulus-container"">
                    <img src=""images/semantic_sequence/exploring_nature_semantic/exploring_nature_semantic_6.png"" class=""exp-image"">
                    <div class=""question-area""></div> 
                </div>","null","","","","","","","","","","","",""
"","","","","","html-button-response","133","182260","0.0-133.0","814A0C4DDB3A47B5B2A1C5648BD274FB","019cfa24-6775-7cae-b9f6-15199e63cd4d","019cfa18-54b6-74d4-8209-5fe92d2edcd5","","514","
                <div class=""stimulus-container"">
                    <img src=""images/semantic_sequence/exploring_nature_semantic/exploring_nature_semantic_6.png"" class=""exp-image"">
                    <div class=""question-area"">
                        <p style=""font-size: 20px; font-weight: bold; margin: 0;"">Is there a person in this image?</p>
                    </div>
                </div>","0","main_experiment_trial","6","exploring_nature_semantic","semantic_sequence","chronological","","","","","","",""
"","","","","","html-keyboard-response","134","183261","0.0-134.0","814A0C4DDB3A47B5B2A1C5648BD274FB","019cfa24-6775-7cae-b9f6-15199e63cd4d","019cfa18-54b6-74d4-8209-5fe92d2edcd5","","null","
                <div class=""stimulus-container"">
                    <img src=""images/semantic_sequence/exploring_nature_semantic/exploring_nature_semantic_7.png"" class=""exp-image"">
                    <div class=""question-area""></div> 
                </div>","null","","","","","","","","","","","",""
"","","","","","html-button-response","135","183793","0.0-135.0","814A0C4DDB3A47B5B2A1C5648BD274FB","019cfa24-6775-7cae-b9f6-15199e63cd4d","019cfa18-54b6-74d4-8209-5fe92d2edcd5","","531","
                <div class=""stimulus-container"">
                    <img src=""images/semantic_sequence/exploring_nature_semantic/exploring_nature_semantic_7.png"" class=""exp-image"">
                    <div class=""question-area"">
                        <p style=""font-size: 20px; font-weight: bold; margin: 0;"">Is there a person in this image?</p>
                    </div>
                </div>","0","main_experiment_trial","7","exploring_nature_semantic","semantic_sequence","chronological","","","","","","",""
"","","","","","html-keyboard-response","136","184794","0.0-136.0","814A0C4DDB3A47B5B2A1C5648BD274FB","019cfa24-6775-7cae-b9f6-15199e63cd4d","019cfa18-54b6-74d4-8209-5fe92d2edcd5","","null","
                <div class=""stimulus-container"">
                    <img src=""images/semantic_sequence/exploring_nature_semantic/exploring_nature_semantic_8.png"" class=""exp-image"">
                    <div class=""question-area""></div> 
                </div>","null","","","","","","","","","","","",""
"","","","","","html-button-response","137","185310","0.0-137.0","814A0C4DDB3A47B5B2A1C5648BD274FB","019cfa24-6775-7cae-b9f6-15199e63cd4d","019cfa18-54b6-74d4-8209-5fe92d2edcd5","","514","
                <div class=""stimulus-container"">
                    <img src=""images/semantic_sequence/exploring_nature_semantic/exploring_nature_semantic_8.png"" class=""exp-image"">
                    <div class=""question-area"">
                        <p style=""font-size: 20px; font-weight: bold; margin: 0;"">Is there a person in this image?</p>
                    </div>
                </div>","0","main_experiment_trial","8","exploring_nature_semantic","semantic_sequence","chronological","","","","","","",""
"","","","","","html-keyboard-response","138","186312","0.0-138.0","814A0C4DDB3A47B5B2A1C5648BD274FB","019cfa24-6775-7cae-b9f6-15199e63cd4d","019cfa18-54b6-74d4-8209-5fe92d2edcd5","","null","
                <div class=""stimulus-container"">
                    <img src=""images/semantic_sequence/exploring_nature_semantic/exploring_nature_semantic_9.png"" class=""exp-image"">
                    <div class=""question-area""></div> 
                </div>","null","","","","","","","","","","","",""
"","","","","","html-button-response","139","186859","0.0-139.0","814A0C4DDB3A47B5B2A1C5648BD274FB","019cfa24-6775-7cae-b9f6-15199e63cd4d","019cfa18-54b6-74d4-8209-5fe92d2edcd5","","546","
                <div class=""stimulus-container"">
                    <img src=""images/semantic_sequence/exploring_nature_semantic/exploring_nature_semantic_9.png"" class=""exp-image"">
                    <div class=""question-area"">
                        <p style=""font-size: 20px; font-weight: bold; margin: 0;"">Is there a person in this image?</p>
                    </div>
                </div>","0","main_experiment_trial","9","exploring_nature_semantic","semantic_sequence","chronological","","","","","","",""
"","","","","","html-keyboard-response","140","187861","0.0-140.0","814A0C4DDB3A47B5B2A1C5648BD274FB","019cfa24-6775-7cae-b9f6-15199e63cd4d","019cfa18-54b6-74d4-8209-5fe92d2edcd5","","null","
                <div class=""stimulus-container"">
                    <img src=""images/semantic_sequence/exploring_nature_semantic/exploring_nature_semantic_ten.png"" class=""exp-image"">
                    <div class=""question-area""></div> 
                </div>","null","","","","","","","","","","","",""
"","","","","","html-button-response","141","188544","0.0-141.0","814A0C4DDB3A47B5B2A1C5648BD274FB","019cfa24-6775-7cae-b9f6-15199e63cd4d","019cfa18-54b6-74d4-8209-5fe92d2edcd5","","681","
                <div class=""stimulus-container"">
                    <img src=""images/semantic_sequence/exploring_nature_semantic/exploring_nature_semantic_ten.png"" class=""exp-image"">
                    <div class=""question-area"">
                        <p style=""font-size: 20px; font-weight: bold; margin: 0;"">Is there a person in this image?</p>
                    </div>
                </div>","0","main_experiment_trial","ten","exploring_nature_semantic","semantic_sequence","chronological","","","","","","",""
"","","","","","html-keyboard-response","142","193546","0.0-142.0","814A0C4DDB3A47B5B2A1C5648BD274FB","019cfa24-6775-7cae-b9f6-15199e63cd4d","019cfa18-54b6-74d4-8209-5fe92d2edcd5","","null","<div style=""background-color: white; width: 100vw; height: 100vh;""></div>","null","","","","","","","","","","","",""
"","","","","","html-keyboard-response","143","194548","0.0-143.0","814A0C4DDB3A47B5B2A1C5648BD274FB","019cfa24-6775-7cae-b9f6-15199e63cd4d","019cfa18-54b6-74d4-8209-5fe92d2edcd5","","null","
                <div class=""stimulus-container"">
                    <img src=""images/semantic_sequence/creative_activities_semantic/creative_activities_semantic_1.png"" class=""exp-image"">
                    <div class=""question-area""></div> 
                </div>","null","","","","","","","","","","","",""
"","","","","","html-button-response","144","195393","0.0-144.0","814A0C4DDB3A47B5B2A1C5648BD274FB","019cfa24-6775-7cae-b9f6-15199e63cd4d","019cfa18-54b6-74d4-8209-5fe92d2edcd5","","843","
                <div class=""stimulus-container"">
                    <img src=""images/semantic_sequence/creative_activities_semantic/creative_activities_semantic_1.png"" class=""exp-image"">
                    <div class=""question-area"">
                        <p style=""font-size: 20px; font-weight: bold; margin: 0;"">Is there a person in this image?</p>
                    </div>
                </div>","0","main_experiment_trial","1","creative_activities_semantic","semantic_sequence","chronological","","","","","","",""
"","","","","","html-keyboard-response","145","196395","0.0-145.0","814A0C4DDB3A47B5B2A1C5648BD274FB","019cfa24-6775-7cae-b9f6-15199e63cd4d","019cfa18-54b6-74d4-8209-5fe92d2edcd5","","null","
                <div class=""stimulus-container"">
                    <img src=""images/semantic_sequence/creative_activities_semantic/creative_activities_semantic_2.png"" class=""exp-image"">
                    <div class=""question-area""></div> 
                </div>","null","","","","","","","","","","","",""
"","","","","","html-button-response","146","196959","0.0-146.0","814A0C4DDB3A47B5B2A1C5648BD274FB","019cfa24-6775-7cae-b9f6-15199e63cd4d","019cfa18-54b6-74d4-8209-5fe92d2edcd5","","563","
                <div class=""stimulus-container"">
                    <img src=""images/semantic_sequence/creative_activities_semantic/creative_activities_semantic_2.png"" class=""exp-image"">
                    <div class=""question-area"">
                        <p style=""font-size: 20px; font-weight: bold; margin: 0;"">Is there a person in this image?</p>
                    </div>
                </div>","0","main_experiment_trial","2","creative_activities_semantic","semantic_sequence","chronological","","","","","","",""
"","","","","","html-keyboard-response","147","197960","0.0-147.0","814A0C4DDB3A47B5B2A1C5648BD274FB","019cfa24-6775-7cae-b9f6-15199e63cd4d","019cfa18-54b6-74d4-8209-5fe92d2edcd5","","null","
                <div class=""stimulus-container"">
                    <img src=""images/semantic_sequence/creative_activities_semantic/creative_activities_semantic_3.png"" class=""exp-image"">
                    <div class=""question-area""></div> 
                </div>","null","","","","","","","","","","","",""
"","","","","","html-button-response","148","199241","0.0-148.0","814A0C4DDB3A47B5B2A1C5648BD274FB","019cfa24-6775-7cae-b9f6-15199e63cd4d","019cfa18-54b6-74d4-8209-5fe92d2edcd5","","1279","
                <div class=""stimulus-container"">
                    <img src=""images/semantic_sequence/creative_activities_semantic/creative_activities_semantic_3.png"" class=""exp-image"">
                    <div class=""question-area"">
                        <p style=""font-size: 20px; font-weight: bold; margin: 0;"">Is there a person in this image?</p>
                    </div>
                </div>","0","main_experiment_trial","3","creative_activities_semantic","semantic_sequence","chronological","","","","","","",""
"","","","","","html-keyboard-response","149","200244","0.0-149.0","814A0C4DDB3A47B5B2A1C5648BD274FB","019cfa24-6775-7cae-b9f6-15199e63cd4d","019cfa18-54b6-74d4-8209-5fe92d2edcd5","","null","
                <div class=""stimulus-container"">
                    <img src=""images/semantic_sequence/creative_activities_semantic/creative_activities_semantic_4.png"" class=""exp-image"">
                    <div class=""question-area""></div> 
                </div>","null","","","","","","","","","","","",""
"","","","","","html-button-response","150","200859","0.0-150.0","814A0C4DDB3A47B5B2A1C5648BD274FB","019cfa24-6775-7cae-b9f6-15199e63cd4d","019cfa18-54b6-74d4-8209-5fe92d2edcd5","","614","
                <div class=""stimulus-container"">
                    <img src=""images/semantic_sequence/creative_activities_semantic/creative_activities_semantic_4.png"" class=""exp-image"">
                    <div class=""question-area"">
                        <p style=""font-size: 20px; font-weight: bold; margin: 0;"">Is there a person in this image?</p>
                    </div>
                </div>","0","main_experiment_trial","4","creative_activities_semantic","semantic_sequence","chronological","","","","","","",""
"","","","","","html-keyboard-response","151","201861","0.0-151.0","814A0C4DDB3A47B5B2A1C5648BD274FB","019cfa24-6775-7cae-b9f6-15199e63cd4d","019cfa18-54b6-74d4-8209-5fe92d2edcd5","","null","
                <div class=""stimulus-container"">
                    <img src=""images/semantic_sequence/creative_activities_semantic/creative_activities_semantic_5.png"" class=""exp-image"">
                    <div class=""question-area""></div> 
                </div>","null","","","","","","","","","","","",""
"","","","","","html-button-response","152","202427","0.0-152.0","814A0C4DDB3A47B5B2A1C5648BD274FB","019cfa24-6775-7cae-b9f6-15199e63cd4d","019cfa18-54b6-74d4-8209-5fe92d2edcd5","","565","
                <div class=""stimulus-container"">
                    <img src=""images/semantic_sequence/creative_activities_semantic/creative_activities_semantic_5.png"" class=""exp-image"">
                    <div class=""question-area"">
                        <p style=""font-size: 20px; font-weight: bold; margin: 0;"">Is there a person in this image?</p>
                    </div>
                </div>","0","main_experiment_trial","5","creative_activities_semantic","semantic_sequence","chronological","","","","","","",""
"","","","","","html-keyboard-response","153","203428","0.0-153.0","814A0C4DDB3A47B5B2A1C5648BD274FB","019cfa24-6775-7cae-b9f6-15199e63cd4d","019cfa18-54b6-74d4-8209-5fe92d2edcd5","","null","
                <div class=""stimulus-container"">
                    <img src=""images/semantic_sequence/creative_activities_semantic/creative_activities_semantic_6.png"" class=""exp-image"">
                    <div class=""question-area""></div> 
                </div>","null","","","","","","","","","","","",""
"","","","","","html-button-response","154","204010","0.0-154.0","814A0C4DDB3A47B5B2A1C5648BD274FB","019cfa24-6775-7cae-b9f6-15199e63cd4d","019cfa18-54b6-74d4-8209-5fe92d2edcd5","","580","
                <div class=""stimulus-container"">
                    <img src=""images/semantic_sequence/creative_activities_semantic/creative_activities_semantic_6.png"" class=""exp-image"">
                    <div class=""question-area"">
                        <p style=""font-size: 20px; font-weight: bold; margin: 0;"">Is there a person in this image?</p>
                    </div>
                </div>","0","main_experiment_trial","6","creative_activities_semantic","semantic_sequence","chronological","","","","","","",""
"","","","","","html-keyboard-response","155","205012","0.0-155.0","814A0C4DDB3A47B5B2A1C5648BD274FB","019cfa24-6775-7cae-b9f6-15199e63cd4d","019cfa18-54b6-74d4-8209-5fe92d2edcd5","","null","
                <div class=""stimulus-container"">
                    <img src=""images/semantic_sequence/creative_activities_semantic/creative_activities_semantic_7.png"" class=""exp-image"">
                    <div class=""question-area""></div> 
                </div>","null","","","","","","","","","","","",""
"","","","","","html-button-response","156","205526","0.0-156.0","814A0C4DDB3A47B5B2A1C5648BD274FB","019cfa24-6775-7cae-b9f6-15199e63cd4d","019cfa18-54b6-74d4-8209-5fe92d2edcd5","","512","
                <div class=""stimulus-container"">
                    <img src=""images/semantic_sequence/creative_activities_semantic/creative_activities_semantic_7.png"" class=""exp-image"">
                    <div class=""question-area"">
                        <p style=""font-size: 20px; font-weight: bold; margin: 0;"">Is there a person in this image?</p>
                    </div>
                </div>","0","main_experiment_trial","7","creative_activities_semantic","semantic_sequence","chronological","","","","","","",""
"","","","","","html-keyboard-response","157","206528","0.0-157.0","814A0C4DDB3A47B5B2A1C5648BD274FB","019cfa24-6775-7cae-b9f6-15199e63cd4d","019cfa18-54b6-74d4-8209-5fe92d2edcd5","","null","
                <div class=""stimulus-container"">
                    <img src=""images/semantic_sequence/creative_activities_semantic/creative_activities_semantic_8.png"" class=""exp-image"">
                    <div class=""question-area""></div> 
                </div>","null","","","","","","","","","","","",""
"","","","","","html-button-response","158","207076","0.0-158.0","814A0C4DDB3A47B5B2A1C5648BD274FB","019cfa24-6775-7cae-b9f6-15199e63cd4d","019cfa18-54b6-74d4-8209-5fe92d2edcd5","","547","
                <div class=""stimulus-container"">
                    <img src=""images/semantic_sequence/creative_activities_semantic/creative_activities_semantic_8.png"" class=""exp-image"">
                    <div class=""question-area"">
                        <p style=""font-size: 20px; font-weight: bold; margin: 0;"">Is there a person in this image?</p>
                    </div>
                </div>","0","main_experiment_trial","8","creative_activities_semantic","semantic_sequence","chronological","","","","","","",""
"","","","","","html-keyboard-response","159","208078","0.0-159.0","814A0C4DDB3A47B5B2A1C5648BD274FB","019cfa24-6775-7cae-b9f6-15199e63cd4d","019cfa18-54b6-74d4-8209-5fe92d2edcd5","","null","
                <div class=""stimulus-container"">
                    <img src=""images/semantic_sequence/creative_activities_semantic/creative_activities_semantic_9.png"" class=""exp-image"">
                    <div class=""question-area""></div> 
                </div>","null","","","","","","","","","","","",""
"","","","","","html-button-response","160","208560","0.0-160.0","814A0C4DDB3A47B5B2A1C5648BD274FB","019cfa24-6775-7cae-b9f6-15199e63cd4d","019cfa18-54b6-74d4-8209-5fe92d2edcd5","","481","
                <div class=""stimulus-container"">
                    <img src=""images/semantic_sequence/creative_activities_semantic/creative_activities_semantic_9.png"" class=""exp-image"">
                    <div class=""question-area"">
                        <p style=""font-size: 20px; font-weight: bold; margin: 0;"">Is there a person in this image?</p>
                    </div>
                </div>","0","main_experiment_trial","9","creative_activities_semantic","semantic_sequence","chronological","","","","","","",""
"","","","","","html-keyboard-response","161","209562","0.0-161.0","814A0C4DDB3A47B5B2A1C5648BD274FB","019cfa24-6775-7cae-b9f6-15199e63cd4d","019cfa18-54b6-74d4-8209-5fe92d2edcd5","","null","
                <div class=""stimulus-container"">
                    <img src=""images/semantic_sequence/creative_activities_semantic/creative_activities_semantic_ten.png"" class=""exp-image"">
                    <div class=""question-area""></div> 
                </div>","null","","","","","","","","","","","",""
"","","","","","html-button-response","162","210026","0.0-162.0","814A0C4DDB3A47B5B2A1C5648BD274FB","019cfa24-6775-7cae-b9f6-15199e63cd4d","019cfa18-54b6-74d4-8209-5fe92d2edcd5","","462","
                <div class=""stimulus-container"">
                    <img src=""images/semantic_sequence/creative_activities_semantic/creative_activities_semantic_ten.png"" class=""exp-image"">
                    <div class=""question-area"">
                        <p style=""font-size: 20px; font-weight: bold; margin: 0;"">Is there a person in this image?</p>
                    </div>
                </div>","0","main_experiment_trial","ten","creative_activities_semantic","semantic_sequence","chronological","","","","","","",""
"","","","","","html-keyboard-response","163","215028","0.0-163.0","814A0C4DDB3A47B5B2A1C5648BD274FB","019cfa24-6775-7cae-b9f6-15199e63cd4d","019cfa18-54b6-74d4-8209-5fe92d2edcd5","","null","<div style=""background-color: white; width: 100vw; height: 100vh;""></div>","null","","","","","","","","","","","",""
"","","","","","html-keyboard-response","164","216031","0.0-164.0","814A0C4DDB3A47B5B2A1C5648BD274FB","019cfa24-6775-7cae-b9f6-15199e63cd4d","019cfa18-54b6-74d4-8209-5fe92d2edcd5","","null","
                <div class=""stimulus-container"">
                    <img src=""images/causal_sequence/dog_causal/dog_causal_1.png"" class=""exp-image"">
                    <div class=""question-area""></div> 
                </div>","null","","","","","","","","","","","",""
"","","","","","html-button-response","165","216510","0.0-165.0","814A0C4DDB3A47B5B2A1C5648BD274FB","019cfa24-6775-7cae-b9f6-15199e63cd4d","019cfa18-54b6-74d4-8209-5fe92d2edcd5","","478","
                <div class=""stimulus-container"">
                    <img src=""images/causal_sequence/dog_causal/dog_causal_1.png"" class=""exp-image"">
                    <div class=""question-area"">
                        <p style=""font-size: 20px; font-weight: bold; margin: 0;"">Is there a person in this image?</p>
                    </div>
                </div>","0","main_experiment_trial","1","dog_causal","causal_sequence","chronological","","","","","","",""
"","","","","","html-keyboard-response","166","217512","0.0-166.0","814A0C4DDB3A47B5B2A1C5648BD274FB","019cfa24-6775-7cae-b9f6-15199e63cd4d","019cfa18-54b6-74d4-8209-5fe92d2edcd5","","null","
                <div class=""stimulus-container"">
                    <img src=""images/causal_sequence/dog_causal/dog_causal_2.png"" class=""exp-image"">
                    <div class=""question-area""></div> 
                </div>","null","","","","","","","","","","","",""
"","","","","","html-button-response","167","218077","0.0-167.0","814A0C4DDB3A47B5B2A1C5648BD274FB","019cfa24-6775-7cae-b9f6-15199e63cd4d","019cfa18-54b6-74d4-8209-5fe92d2edcd5","","564","
                <div class=""stimulus-container"">
                    <img src=""images/causal_sequence/dog_causal/dog_causal_2.png"" class=""exp-image"">
                    <div class=""question-area"">
                        <p style=""font-size: 20px; font-weight: bold; margin: 0;"">Is there a person in this image?</p>
                    </div>
                </div>","0","main_experiment_trial","2","dog_causal","causal_sequence","chronological","","","","","","",""
"","","","","","html-keyboard-response","168","219079","0.0-168.0","814A0C4DDB3A47B5B2A1C5648BD274FB","019cfa24-6775-7cae-b9f6-15199e63cd4d","019cfa18-54b6-74d4-8209-5fe92d2edcd5","","null","
                <div class=""stimulus-container"">
                    <img src=""images/causal_sequence/dog_causal/dog_causal_3.png"" class=""exp-image"">
                    <div class=""question-area""></div> 
                </div>","null","","","","","","","","","","","",""
"","","","","","html-button-response","169","219844","0.0-169.0","814A0C4DDB3A47B5B2A1C5648BD274FB","019cfa24-6775-7cae-b9f6-15199e63cd4d","019cfa18-54b6-74d4-8209-5fe92d2edcd5","","763","
                <div class=""stimulus-container"">
                    <img src=""images/causal_sequence/dog_causal/dog_causal_3.png"" class=""exp-image"">
                    <div class=""question-area"">
                        <p style=""font-size: 20px; font-weight: bold; margin: 0;"">Is there a person in this image?</p>
                    </div>
                </div>","0","main_experiment_trial","3","dog_causal","causal_sequence","chronological","","","","","","",""
"","","","","","html-keyboard-response","170","220845","0.0-170.0","814A0C4DDB3A47B5B2A1C5648BD274FB","019cfa24-6775-7cae-b9f6-15199e63cd4d","019cfa18-54b6-74d4-8209-5fe92d2edcd5","","null","
                <div class=""stimulus-container"">
                    <img src=""images/causal_sequence/dog_causal/dog_causal_4.png"" class=""exp-image"">
                    <div class=""question-area""></div> 
                </div>","null","","","","","","","","","","","",""
"","","","","","html-button-response","171","221394","0.0-171.0","814A0C4DDB3A47B5B2A1C5648BD274FB","019cfa24-6775-7cae-b9f6-15199e63cd4d","019cfa18-54b6-74d4-8209-5fe92d2edcd5","","547","
                <div class=""stimulus-container"">
                    <img src=""images/causal_sequence/dog_causal/dog_causal_4.png"" class=""exp-image"">
                    <div class=""question-area"">
                        <p style=""font-size: 20px; font-weight: bold; margin: 0;"">Is there a person in this image?</p>
                    </div>
                </div>","0","main_experiment_trial","4","dog_causal","causal_sequence","chronological","","","","","","",""
"","","","","","html-keyboard-response","172","222396","0.0-172.0","814A0C4DDB3A47B5B2A1C5648BD274FB","019cfa24-6775-7cae-b9f6-15199e63cd4d","019cfa18-54b6-74d4-8209-5fe92d2edcd5","","null","
                <div class=""stimulus-container"">
                    <img src=""images/causal_sequence/dog_causal/dog_causal_5.png"" class=""exp-image"">
                    <div class=""question-area""></div> 
                </div>","null","","","","","","","","","","","",""
"","","","","","html-button-response","173","222977","0.0-173.0","814A0C4DDB3A47B5B2A1C5648BD274FB","019cfa24-6775-7cae-b9f6-15199e63cd4d","019cfa18-54b6-74d4-8209-5fe92d2edcd5","","580","
                <div class=""stimulus-container"">
                    <img src=""images/causal_sequence/dog_causal/dog_causal_5.png"" class=""exp-image"">
                    <div class=""question-area"">
                        <p style=""font-size: 20px; font-weight: bold; margin: 0;"">Is there a person in this image?</p>
                    </div>
                </div>","0","main_experiment_trial","5","dog_causal","causal_sequence","chronological","","","","","","",""
"","","","","","html-keyboard-response","174","223979","0.0-174.0","814A0C4DDB3A47B5B2A1C5648BD274FB","019cfa24-6775-7cae-b9f6-15199e63cd4d","019cfa18-54b6-74d4-8209-5fe92d2edcd5","","null","
                <div class=""stimulus-container"">
                    <img src=""images/causal_sequence/dog_causal/dog_causal_6.png"" class=""exp-image"">
                    <div class=""question-area""></div> 
                </div>","null","","","","","","","","","","","",""
"","","","","","html-button-response","175","224543","0.0-175.0","814A0C4DDB3A47B5B2A1C5648BD274FB","019cfa24-6775-7cae-b9f6-15199e63cd4d","019cfa18-54b6-74d4-8209-5fe92d2edcd5","","563","
                <div class=""stimulus-container"">
                    <img src=""images/causal_sequence/dog_causal/dog_causal_6.png"" class=""exp-image"">
                    <div class=""question-area"">
                        <p style=""font-size: 20px; font-weight: bold; margin: 0;"">Is there a person in this image?</p>
                    </div>
                </div>","0","main_experiment_trial","6","dog_causal","causal_sequence","chronological","","","","","","",""
"","","","","","html-keyboard-response","176","225545","0.0-176.0","814A0C4DDB3A47B5B2A1C5648BD274FB","019cfa24-6775-7cae-b9f6-15199e63cd4d","019cfa18-54b6-74d4-8209-5fe92d2edcd5","","null","
                <div class=""stimulus-container"">
                    <img src=""images/causal_sequence/dog_causal/dog_causal_7.png"" class=""exp-image"">
                    <div class=""question-area""></div> 
                </div>","null","","","","","","","","","","","",""
"","","","","","html-button-response","177","226144","0.0-177.0","814A0C4DDB3A47B5B2A1C5648BD274FB","019cfa24-6775-7cae-b9f6-15199e63cd4d","019cfa18-54b6-74d4-8209-5fe92d2edcd5","","598","
                <div class=""stimulus-container"">
                    <img src=""images/causal_sequence/dog_causal/dog_causal_7.png"" class=""exp-image"">
                    <div class=""question-area"">
                        <p style=""font-size: 20px; font-weight: bold; margin: 0;"">Is there a person in this image?</p>
                    </div>
                </div>","0","main_experiment_trial","7","dog_causal","causal_sequence","chronological","","","","","","",""
