"success","timeout","failed_images","failed_audio","failed_video","trial_type","trial_index","time_elapsed","internal_node_id","subject_id","study_id","session_id","view_history","rt","stimulus","response","task","image_index","folder","sequence_type","valuable_image_index","reward_type","chosen_image_index","target_X","correct_choice"
"true","false","[]","[]","[]","preload","0","6167","0.0-0.0","7837F092ABDB4696B653011B7481CCF5","019cf065-efd9-75d4-b57e-25a23f38dc2a","019ceff9-9f67-7034-9722-02cda2445e09","","","","","","","","","","","","",""
"","","","","","instructions","1","8108","0.0-1.0","7837F092ABDB4696B653011B7481CCF5","019cf065-efd9-75d4-b57e-25a23f38dc2a","019ceff9-9f67-7034-9722-02cda2445e09","[{""page_index"":0,""viewing_time"":1939}]","1939","","","","","","","","","","",""
"","","","","","instructions","2","11938","0.0-2.0","7837F092ABDB4696B653011B7481CCF5","019cf065-efd9-75d4-b57e-25a23f38dc2a","019ceff9-9f67-7034-9722-02cda2445e09","[{""page_index"":0,""viewing_time"":3828}]","3828","","","","","","","","","","",""
"true","","","","","fullscreen","3","14481","0.0-3.0","7837F092ABDB4696B653011B7481CCF5","019cf065-efd9-75d4-b57e-25a23f38dc2a","019ceff9-9f67-7034-9722-02cda2445e09","","1540","","","","","","","","","","",""
"","","","","","instructions","4","21704","0.0-4.0","7837F092ABDB4696B653011B7481CCF5","019cf065-efd9-75d4-b57e-25a23f38dc2a","019ceff9-9f67-7034-9722-02cda2445e09","[{""page_index"":0,""viewing_time"":7222}]","7222","","","","","","","","","","",""
"","","","","","instructions","5","26646","0.0-5.0","7837F092ABDB4696B653011B7481CCF5","019cf065-efd9-75d4-b57e-25a23f38dc2a","019ceff9-9f67-7034-9722-02cda2445e09","[{""page_index"":0,""viewing_time"":4941}]","4941","","","","","","","","","","",""
"","","","","","html-keyboard-response","6","30652","0.0-6.0","7837F092ABDB4696B653011B7481CCF5","019cf065-efd9-75d4-b57e-25a23f38dc2a","019ceff9-9f67-7034-9722-02cda2445e09","","null","
                <div class=""stimulus-container"">
                    <img src=""images/instructions/movie_1.png"" class=""exp-image"">
                    <div class=""question-area""></div> 
                </div>","null","","","","","","","","",""
"","","","","","html-button-response","7","33486","0.0-7.0","7837F092ABDB4696B653011B7481CCF5","019cf065-efd9-75d4-b57e-25a23f38dc2a","019ceff9-9f67-7034-9722-02cda2445e09","","2829","
                <div class=""stimulus-container"">
                    <img src=""images/instructions/movie_1.png"" class=""exp-image"">
                    <div class=""question-area"">
                        <p style=""font-size: 20px; font-weight: bold; margin: 0;"">Was there a person in this image?</p>
                    </div>
                </div>","0","example_question","1","","","","","","",""
"","","","","","html-keyboard-response","8","37488","0.0-8.0","7837F092ABDB4696B653011B7481CCF5","019cf065-efd9-75d4-b57e-25a23f38dc2a","019ceff9-9f67-7034-9722-02cda2445e09","","null","
                <div class=""stimulus-container"">
                    <img src=""images/instructions/movie_2.png"" class=""exp-image"">
                    <div class=""question-area""></div> 
                </div>","null","","","","","","","","",""
"","","","","","html-button-response","9","38636","0.0-9.0","7837F092ABDB4696B653011B7481CCF5","019cf065-efd9-75d4-b57e-25a23f38dc2a","019ceff9-9f67-7034-9722-02cda2445e09","","1147","
                <div class=""stimulus-container"">
                    <img src=""images/instructions/movie_2.png"" class=""exp-image"">
                    <div class=""question-area"">
                        <p style=""font-size: 20px; font-weight: bold; margin: 0;"">Was there a person in this image?</p>
                    </div>
                </div>","0","example_question","2","","","","","","",""
"","","","","","html-keyboard-response","10","42638","0.0-10.0","7837F092ABDB4696B653011B7481CCF5","019cf065-efd9-75d4-b57e-25a23f38dc2a","019ceff9-9f67-7034-9722-02cda2445e09","","null","
                <div class=""stimulus-container"">
                    <img src=""images/instructions/movie_3.png"" class=""exp-image"">
                    <div class=""question-area""></div> 
                </div>","null","","","","","","","","",""
"","","","","","html-button-response","11","43121","0.0-11.0","7837F092ABDB4696B653011B7481CCF5","019cf065-efd9-75d4-b57e-25a23f38dc2a","019ceff9-9f67-7034-9722-02cda2445e09","","482","
                <div class=""stimulus-container"">
                    <img src=""images/instructions/movie_3.png"" class=""exp-image"">
                    <div class=""question-area"">
                        <p style=""font-size: 20px; font-weight: bold; margin: 0;"">Was there a person in this image?</p>
                    </div>
                </div>","0","example_question","3","","","","","","",""
"","","","","","html-keyboard-response","12","47123","0.0-12.0","7837F092ABDB4696B653011B7481CCF5","019cf065-efd9-75d4-b57e-25a23f38dc2a","019ceff9-9f67-7034-9722-02cda2445e09","","null","
                <div class=""stimulus-container"">
                    <img src=""images/instructions/movie_4.png"" class=""exp-image"">
                    <div class=""question-area""></div> 
                </div>","null","","","","","","","","",""
"","","","","","html-button-response","13","47528","0.0-13.0","7837F092ABDB4696B653011B7481CCF5","019cf065-efd9-75d4-b57e-25a23f38dc2a","019ceff9-9f67-7034-9722-02cda2445e09","","401","
                <div class=""stimulus-container"">
                    <img src=""images/instructions/movie_4.png"" class=""exp-image"">
                    <div class=""question-area"">
                        <p style=""font-size: 20px; font-weight: bold; margin: 0;"">Was there a person in this image?</p>
                    </div>
                </div>","0","example_question","4","","","","","","",""
"","","","","","instructions","14","49299","0.0-14.0","7837F092ABDB4696B653011B7481CCF5","019cf065-efd9-75d4-b57e-25a23f38dc2a","019ceff9-9f67-7034-9722-02cda2445e09","[{""page_index"":0,""viewing_time"":1769}]","1769","","","","","","","","","","",""
"","","","","","instructions","15","55128","0.0-15.0","7837F092ABDB4696B653011B7481CCF5","019cf065-efd9-75d4-b57e-25a23f38dc2a","019ceff9-9f67-7034-9722-02cda2445e09","[{""page_index"":0,""viewing_time"":5827}]","5828","","","","","","","","","","",""
"","","","","","html-keyboard-response","16","56129","0.0-16.0","7837F092ABDB4696B653011B7481CCF5","019cf065-efd9-75d4-b57e-25a23f38dc2a","019ceff9-9f67-7034-9722-02cda2445e09","","null","<div style=""background-color: white; width: 100vw; height: 100vh;""></div>","null","","","","","","","","",""
"","","","","","html-keyboard-response","17","61131","0.0-17.0","7837F092ABDB4696B653011B7481CCF5","019cf065-efd9-75d4-b57e-25a23f38dc2a","019ceff9-9f67-7034-9722-02cda2445e09","","null","
                <div class=""stimulus-container"">
                    <img src=""images/causal_sequence/package_causal/package_causal_1.png"" class=""exp-image"">
                    <div class=""question-area""></div> 
                </div>","null","","","","","","","","",""
"","","","","","html-button-response","18","62216","0.0-18.0","7837F092ABDB4696B653011B7481CCF5","019cf065-efd9-75d4-b57e-25a23f38dc2a","019ceff9-9f67-7034-9722-02cda2445e09","","1083","
                <div class=""stimulus-container"">
                    <img src=""images/causal_sequence/package_causal/package_causal_1.png"" class=""exp-image"">
                    <div class=""question-area"">
                        <p style=""font-size: 20px; font-weight: bold; margin: 0;"">Is there a person in this image?</p>
                    </div>
                </div>","0","main_experiment_trial","1","package_causal","causal_sequence","","","","",""
"","","","","","html-keyboard-response","19","67217","0.0-19.0","7837F092ABDB4696B653011B7481CCF5","019cf065-efd9-75d4-b57e-25a23f38dc2a","019ceff9-9f67-7034-9722-02cda2445e09","","null","
                <div class=""stimulus-container"">
                    <img src=""images/causal_sequence/package_causal/package_causal_2.png"" class=""exp-image"">
                    <div class=""question-area""></div> 
                </div>","null","","","","","","","","",""
"","","","","","html-button-response","20","68557","0.0-20.0","7837F092ABDB4696B653011B7481CCF5","019cf065-efd9-75d4-b57e-25a23f38dc2a","019ceff9-9f67-7034-9722-02cda2445e09","","1338","
                <div class=""stimulus-container"">
                    <img src=""images/causal_sequence/package_causal/package_causal_2.png"" class=""exp-image"">
                    <div class=""question-area"">
                        <p style=""font-size: 20px; font-weight: bold; margin: 0;"">Is there a person in this image?</p>
                    </div>
                </div>","0","main_experiment_trial","2","package_causal","causal_sequence","","","","",""
"","","","","","html-keyboard-response","21","73558","0.0-21.0","7837F092ABDB4696B653011B7481CCF5","019cf065-efd9-75d4-b57e-25a23f38dc2a","019ceff9-9f67-7034-9722-02cda2445e09","","null","
                <div class=""stimulus-container"">
                    <img src=""images/causal_sequence/package_causal/package_causal_3.png"" class=""exp-image"">
                    <div class=""question-area""></div> 
                </div>","null","","","","","","","","",""
"","","","","","html-button-response","22","74408","0.0-22.0","7837F092ABDB4696B653011B7481CCF5","019cf065-efd9-75d4-b57e-25a23f38dc2a","019ceff9-9f67-7034-9722-02cda2445e09","","849","
                <div class=""stimulus-container"">
                    <img src=""images/causal_sequence/package_causal/package_causal_3.png"" class=""exp-image"">
                    <div class=""question-area"">
                        <p style=""font-size: 20px; font-weight: bold; margin: 0;"">Is there a person in this image?</p>
                    </div>
                </div>","0","main_experiment_trial","3","package_causal","causal_sequence","","","","",""
"","","","","","html-keyboard-response","23","79410","0.0-23.0","7837F092ABDB4696B653011B7481CCF5","019cf065-efd9-75d4-b57e-25a23f38dc2a","019ceff9-9f67-7034-9722-02cda2445e09","","null","
                <div class=""stimulus-container"">
                    <img src=""images/causal_sequence/package_causal/package_causal_4.png"" class=""exp-image"">
                    <div class=""question-area""></div> 
                </div>","null","","","","","","","","",""
"","","","","","html-button-response","24","81725","0.0-24.0","7837F092ABDB4696B653011B7481CCF5","019cf065-efd9-75d4-b57e-25a23f38dc2a","019ceff9-9f67-7034-9722-02cda2445e09","","2314","
                <div class=""stimulus-container"">
                    <img src=""images/causal_sequence/package_causal/package_causal_4.png"" class=""exp-image"">
                    <div class=""question-area"">
                        <p style=""font-size: 20px; font-weight: bold; margin: 0;"">Is there a person in this image?</p>
                    </div>
                </div>","1","main_experiment_trial","4","package_causal","causal_sequence","","","","",""
"","","","","","html-keyboard-response","25","86727","0.0-25.0","7837F092ABDB4696B653011B7481CCF5","019cf065-efd9-75d4-b57e-25a23f38dc2a","019ceff9-9f67-7034-9722-02cda2445e09","","null","
                <div class=""stimulus-container"">
                    <img src=""images/causal_sequence/package_causal/package_causal_5.png"" class=""exp-image"">
                    <div class=""question-area""></div> 
                </div>","null","","","","","","","","",""
"","","","","","html-button-response","26","88004","0.0-26.0","7837F092ABDB4696B653011B7481CCF5","019cf065-efd9-75d4-b57e-25a23f38dc2a","019ceff9-9f67-7034-9722-02cda2445e09","","1275","
                <div class=""stimulus-container"">
                    <img src=""images/causal_sequence/package_causal/package_causal_5.png"" class=""exp-image"">
                    <div class=""question-area"">
                        <p style=""font-size: 20px; font-weight: bold; margin: 0;"">Is there a person in this image?</p>
                    </div>
                </div>","0","main_experiment_trial","5","package_causal","causal_sequence","","","","",""
"","","","","","html-keyboard-response","27","93006","0.0-27.0","7837F092ABDB4696B653011B7481CCF5","019cf065-efd9-75d4-b57e-25a23f38dc2a","019ceff9-9f67-7034-9722-02cda2445e09","","null","
                <div class=""stimulus-container"">
                    <img src=""images/causal_sequence/package_causal/package_causal_6.png"" class=""exp-image"">
                    <div class=""question-area""></div> 
                </div>","null","","","","","","","","",""
"","","","","","html-button-response","28","93458","0.0-28.0","7837F092ABDB4696B653011B7481CCF5","019cf065-efd9-75d4-b57e-25a23f38dc2a","019ceff9-9f67-7034-9722-02cda2445e09","","448","
                <div class=""stimulus-container"">
                    <img src=""images/causal_sequence/package_causal/package_causal_6.png"" class=""exp-image"">
                    <div class=""question-area"">
                        <p style=""font-size: 20px; font-weight: bold; margin: 0;"">Is there a person in this image?</p>
                    </div>
                </div>","0","main_experiment_trial","6","package_causal","causal_sequence","","","","",""
"","","","","","html-keyboard-response","29","98459","0.0-29.0","7837F092ABDB4696B653011B7481CCF5","019cf065-efd9-75d4-b57e-25a23f38dc2a","019ceff9-9f67-7034-9722-02cda2445e09","","null","
                <div class=""stimulus-container"">
                    <img src=""images/causal_sequence/package_causal/package_causal_7.png"" class=""exp-image"">
                    <div class=""question-area""></div> 
                </div>","null","","","","","","","","",""
"","","","","","html-button-response","30","99223","0.0-30.0","7837F092ABDB4696B653011B7481CCF5","019cf065-efd9-75d4-b57e-25a23f38dc2a","019ceff9-9f67-7034-9722-02cda2445e09","","763","
                <div class=""stimulus-container"">
                    <img src=""images/causal_sequence/package_causal/package_causal_7.png"" class=""exp-image"">
                    <div class=""question-area"">
                        <p style=""font-size: 20px; font-weight: bold; margin: 0;"">Is there a person in this image?</p>
                    </div>
                </div>","0","main_experiment_trial","7","package_causal","causal_sequence","","","","",""
"","","","","","html-keyboard-response","31","104225","0.0-31.0","7837F092ABDB4696B653011B7481CCF5","019cf065-efd9-75d4-b57e-25a23f38dc2a","019ceff9-9f67-7034-9722-02cda2445e09","","null","
                <div class=""stimulus-container"">
                    <img src=""images/causal_sequence/package_causal/package_causal_8.png"" class=""exp-image"">
                    <div class=""question-area""></div> 
                </div>","null","","","","","","","","",""
"","","","","","html-button-response","32","104751","0.0-32.0","7837F092ABDB4696B653011B7481CCF5","019cf065-efd9-75d4-b57e-25a23f38dc2a","019ceff9-9f67-7034-9722-02cda2445e09","","524","
                <div class=""stimulus-container"">
                    <img src=""images/causal_sequence/package_causal/package_causal_8.png"" class=""exp-image"">
                    <div class=""question-area"">
                        <p style=""font-size: 20px; font-weight: bold; margin: 0;"">Is there a person in this image?</p>
                    </div>
                </div>","0","main_experiment_trial","8","package_causal","causal_sequence","","","","",""
"","","","","","html-keyboard-response","33","109754","0.0-33.0","7837F092ABDB4696B653011B7481CCF5","019cf065-efd9-75d4-b57e-25a23f38dc2a","019ceff9-9f67-7034-9722-02cda2445e09","","null","
                <div class=""stimulus-container"">
                    <img src=""images/causal_sequence/package_causal/package_causal_9.png"" class=""exp-image"">
                    <div class=""question-area""></div> 
                </div>","null","","","","","","","","",""
"","","","","","html-button-response","34","110487","0.0-34.0","7837F092ABDB4696B653011B7481CCF5","019cf065-efd9-75d4-b57e-25a23f38dc2a","019ceff9-9f67-7034-9722-02cda2445e09","","731","
                <div class=""stimulus-container"">
                    <img src=""images/causal_sequence/package_causal/package_causal_9.png"" class=""exp-image"">
                    <div class=""question-area"">
                        <p style=""font-size: 20px; font-weight: bold; margin: 0;"">Is there a person in this image?</p>
                    </div>
                </div>","0","main_experiment_trial","9","package_causal","causal_sequence","","","","",""
"","","","","","html-keyboard-response","35","115489","0.0-35.0","7837F092ABDB4696B653011B7481CCF5","019cf065-efd9-75d4-b57e-25a23f38dc2a","019ceff9-9f67-7034-9722-02cda2445e09","","null","
                <div class=""stimulus-container"">
                    <img src=""images/causal_sequence/package_causal/package_causal_ten.png"" class=""exp-image"">
                    <div class=""question-area""></div> 
                </div>","null","","","","","","","","",""
"","","","","","html-button-response","36","116355","0.0-36.0","7837F092ABDB4696B653011B7481CCF5","019cf065-efd9-75d4-b57e-25a23f38dc2a","019ceff9-9f67-7034-9722-02cda2445e09","","863","
                <div class=""stimulus-container"">
                    <img src=""images/causal_sequence/package_causal/package_causal_ten.png"" class=""exp-image"">
                    <div class=""question-area"">
                        <p style=""font-size: 20px; font-weight: bold; margin: 0;"">Is there a person in this image?</p>
                    </div>
                </div>","0","main_experiment_trial","ten","package_causal","causal_sequence","","","","",""
"","","","","","html-keyboard-response","37","117357","0.0-37.0","7837F092ABDB4696B653011B7481CCF5","019cf065-efd9-75d4-b57e-25a23f38dc2a","019ceff9-9f67-7034-9722-02cda2445e09","","null","<div style=""background-color: white; width: 100vw; height: 100vh;""></div>","null","","","","","","","","",""
"","","","","","html-keyboard-response","38","122359","0.0-38.0","7837F092ABDB4696B653011B7481CCF5","019cf065-efd9-75d4-b57e-25a23f38dc2a","019ceff9-9f67-7034-9722-02cda2445e09","","null","
                <div class=""stimulus-container"">
                    <img src=""images/causal_sequence/coin_causal/coin_causal_1.png"" class=""exp-image"">
                    <div class=""question-area""></div> 
                </div>","null","","","","","","","","",""
"","","","","","html-button-response","39","123432","0.0-39.0","7837F092ABDB4696B653011B7481CCF5","019cf065-efd9-75d4-b57e-25a23f38dc2a","019ceff9-9f67-7034-9722-02cda2445e09","","1070","
                <div class=""stimulus-container"">
                    <img src=""images/causal_sequence/coin_causal/coin_causal_1.png"" class=""exp-image"">
                    <div class=""question-area"">
                        <p style=""font-size: 20px; font-weight: bold; margin: 0;"">Is there a person in this image?</p>
                    </div>
                </div>","0","main_experiment_trial","1","coin_causal","causal_sequence","","","","",""
"","","","","","html-keyboard-response","40","128435","0.0-40.0","7837F092ABDB4696B653011B7481CCF5","019cf065-efd9-75d4-b57e-25a23f38dc2a","019ceff9-9f67-7034-9722-02cda2445e09","","null","
                <div class=""stimulus-container"">
                    <img src=""images/causal_sequence/coin_causal/coin_causal_2.png"" class=""exp-image"">
                    <div class=""question-area""></div> 
                </div>","null","","","","","","","","",""
"","","","","","html-button-response","41","129728","0.0-41.0","7837F092ABDB4696B653011B7481CCF5","019cf065-efd9-75d4-b57e-25a23f38dc2a","019ceff9-9f67-7034-9722-02cda2445e09","","1291","
                <div class=""stimulus-container"">
                    <img src=""images/causal_sequence/coin_causal/coin_causal_2.png"" class=""exp-image"">
                    <div class=""question-area"">
                        <p style=""font-size: 20px; font-weight: bold; margin: 0;"">Is there a person in this image?</p>
                    </div>
                </div>","0","main_experiment_trial","2","coin_causal","causal_sequence","","","","",""
"","","","","","html-keyboard-response","42","134730","0.0-42.0","7837F092ABDB4696B653011B7481CCF5","019cf065-efd9-75d4-b57e-25a23f38dc2a","019ceff9-9f67-7034-9722-02cda2445e09","","null","
                <div class=""stimulus-container"">
                    <img src=""images/causal_sequence/coin_causal/coin_causal_3.png"" class=""exp-image"">
                    <div class=""question-area""></div> 
                </div>","null","","","","","","","","",""
"","","","","","html-button-response","43","135655","0.0-43.0","7837F092ABDB4696B653011B7481CCF5","019cf065-efd9-75d4-b57e-25a23f38dc2a","019ceff9-9f67-7034-9722-02cda2445e09","","923","
                <div class=""stimulus-container"">
                    <img src=""images/causal_sequence/coin_causal/coin_causal_3.png"" class=""exp-image"">
                    <div class=""question-area"">
                        <p style=""font-size: 20px; font-weight: bold; margin: 0;"">Is there a person in this image?</p>
                    </div>
                </div>","0","main_experiment_trial","3","coin_causal","causal_sequence","","","","",""
"","","","","","html-keyboard-response","44","140657","0.0-44.0","7837F092ABDB4696B653011B7481CCF5","019cf065-efd9-75d4-b57e-25a23f38dc2a","019ceff9-9f67-7034-9722-02cda2445e09","","null","
                <div class=""stimulus-container"">
                    <img src=""images/causal_sequence/coin_causal/coin_causal_4.png"" class=""exp-image"">
                    <div class=""question-area""></div> 
                </div>","null","","","","","","","","",""
"","","","","","html-button-response","45","141741","0.0-45.0","7837F092ABDB4696B653011B7481CCF5","019cf065-efd9-75d4-b57e-25a23f38dc2a","019ceff9-9f67-7034-9722-02cda2445e09","","1083","
                <div class=""stimulus-container"">
                    <img src=""images/causal_sequence/coin_causal/coin_causal_4.png"" class=""exp-image"">
                    <div class=""question-area"">
                        <p style=""font-size: 20px; font-weight: bold; margin: 0;"">Is there a person in this image?</p>
                    </div>
                </div>","0","main_experiment_trial","4","coin_causal","causal_sequence","","","","",""
"","","","","","html-keyboard-response","46","146743","0.0-46.0","7837F092ABDB4696B653011B7481CCF5","019cf065-efd9-75d4-b57e-25a23f38dc2a","019ceff9-9f67-7034-9722-02cda2445e09","","null","
                <div class=""stimulus-container"">
                    <img src=""images/causal_sequence/coin_causal/coin_causal_5.png"" class=""exp-image"">
                    <div class=""question-area""></div> 
                </div>","null","","","","","","","","",""
"","","","","","html-button-response","47","147848","0.0-47.0","7837F092ABDB4696B653011B7481CCF5","019cf065-efd9-75d4-b57e-25a23f38dc2a","019ceff9-9f67-7034-9722-02cda2445e09","","1104","
                <div class=""stimulus-container"">
                    <img src=""images/causal_sequence/coin_causal/coin_causal_5.png"" class=""exp-image"">
                    <div class=""question-area"">
                        <p style=""font-size: 20px; font-weight: bold; margin: 0;"">Is there a person in this image?</p>
                    </div>
                </div>","0","main_experiment_trial","5","coin_causal","causal_sequence","","","","",""
"","","","","","html-keyboard-response","48","152850","0.0-48.0","7837F092ABDB4696B653011B7481CCF5","019cf065-efd9-75d4-b57e-25a23f38dc2a","019ceff9-9f67-7034-9722-02cda2445e09","","null","
                <div class=""stimulus-container"">
                    <img src=""images/causal_sequence/coin_causal/coin_causal_6.png"" class=""exp-image"">
                    <div class=""question-area""></div> 
                </div>","null","","","","","","","","",""
"","","","","","html-button-response","49","154244","0.0-49.0","7837F092ABDB4696B653011B7481CCF5","019cf065-efd9-75d4-b57e-25a23f38dc2a","019ceff9-9f67-7034-9722-02cda2445e09","","1393","
                <div class=""stimulus-container"">
                    <img src=""images/causal_sequence/coin_causal/coin_causal_6.png"" class=""exp-image"">
                    <div class=""question-area"">
                        <p style=""font-size: 20px; font-weight: bold; margin: 0;"">Is there a person in this image?</p>
                    </div>
                </div>","0","main_experiment_trial","6","coin_causal","causal_sequence","","","","",""
"","","","","","html-keyboard-response","50","159246","0.0-50.0","7837F092ABDB4696B653011B7481CCF5","019cf065-efd9-75d4-b57e-25a23f38dc2a","019ceff9-9f67-7034-9722-02cda2445e09","","null","
                <div class=""stimulus-container"">
                    <img src=""images/causal_sequence/coin_causal/coin_causal_7.png"" class=""exp-image"">
                    <div class=""question-area""></div> 
                </div>","null","","","","","","","","",""
"","","","","","html-button-response","51","159973","0.0-51.0","7837F092ABDB4696B653011B7481CCF5","019cf065-efd9-75d4-b57e-25a23f38dc2a","019ceff9-9f67-7034-9722-02cda2445e09","","726","
                <div class=""stimulus-container"">
                    <img src=""images/causal_sequence/coin_causal/coin_causal_7.png"" class=""exp-image"">
                    <div class=""question-area"">
                        <p style=""font-size: 20px; font-weight: bold; margin: 0;"">Is there a person in this image?</p>
                    </div>
                </div>","1","main_experiment_trial","7","coin_causal","causal_sequence","","","","",""
"","","","","","html-keyboard-response","52","164974","0.0-52.0","7837F092ABDB4696B653011B7481CCF5","019cf065-efd9-75d4-b57e-25a23f38dc2a","019ceff9-9f67-7034-9722-02cda2445e09","","null","
                <div class=""stimulus-container"">
                    <img src=""images/causal_sequence/coin_causal/coin_causal_8.png"" class=""exp-image"">
                    <div class=""question-area""></div> 
                </div>","null","","","","","","","","",""
"","","","","","html-button-response","53","165719","0.0-53.0","7837F092ABDB4696B653011B7481CCF5","019cf065-efd9-75d4-b57e-25a23f38dc2a","019ceff9-9f67-7034-9722-02cda2445e09","","742","
                <div class=""stimulus-container"">
                    <img src=""images/causal_sequence/coin_causal/coin_causal_8.png"" class=""exp-image"">
                    <div class=""question-area"">
                        <p style=""font-size: 20px; font-weight: bold; margin: 0;"">Is there a person in this image?</p>
                    </div>
                </div>","0","main_experiment_trial","8","coin_causal","causal_sequence","","","","",""
"","","","","","html-keyboard-response","54","170720","0.0-54.0","7837F092ABDB4696B653011B7481CCF5","019cf065-efd9-75d4-b57e-25a23f38dc2a","019ceff9-9f67-7034-9722-02cda2445e09","","null","
                <div class=""stimulus-container"">
                    <img src=""images/causal_sequence/coin_causal/coin_causal_9.png"" class=""exp-image"">
                    <div class=""question-area""></div> 
                </div>","null","","","","","","","","",""
"","","","","","html-button-response","55","171256","0.0-55.0","7837F092ABDB4696B653011B7481CCF5","019cf065-efd9-75d4-b57e-25a23f38dc2a","019ceff9-9f67-7034-9722-02cda2445e09","","535","
                <div class=""stimulus-container"">
                    <img src=""images/causal_sequence/coin_causal/coin_causal_9.png"" class=""exp-image"">
                    <div class=""question-area"">
                        <p style=""font-size: 20px; font-weight: bold; margin: 0;"">Is there a person in this image?</p>
                    </div>
                </div>","0","main_experiment_trial","9","coin_causal","causal_sequence","","","","",""
"","","","","","html-keyboard-response","56","176258","0.0-56.0","7837F092ABDB4696B653011B7481CCF5","019cf065-efd9-75d4-b57e-25a23f38dc2a","019ceff9-9f67-7034-9722-02cda2445e09","","null","
                <div class=""stimulus-container"">
                    <img src=""images/causal_sequence/coin_causal/coin_causal_ten.png"" class=""exp-image"">
                    <div class=""question-area""></div> 
                </div>","null","","","","","","","","",""
"","","","","","html-button-response","57","176802","0.0-57.0","7837F092ABDB4696B653011B7481CCF5","019cf065-efd9-75d4-b57e-25a23f38dc2a","019ceff9-9f67-7034-9722-02cda2445e09","","543","
                <div class=""stimulus-container"">
                    <img src=""images/causal_sequence/coin_causal/coin_causal_ten.png"" class=""exp-image"">
                    <div class=""question-area"">
                        <p style=""font-size: 20px; font-weight: bold; margin: 0;"">Is there a person in this image?</p>
                    </div>
                </div>","0","main_experiment_trial","ten","coin_causal","causal_sequence","","","","",""
"","","","","","html-keyboard-response","58","177805","0.0-58.0","7837F092ABDB4696B653011B7481CCF5","019cf065-efd9-75d4-b57e-25a23f38dc2a","019ceff9-9f67-7034-9722-02cda2445e09","","null","<div style=""background-color: white; width: 100vw; height: 100vh;""></div>","null","","","","","","","","",""
"","","","","","html-keyboard-response","59","182807","0.0-59.0","7837F092ABDB4696B653011B7481CCF5","019cf065-efd9-75d4-b57e-25a23f38dc2a","019ceff9-9f67-7034-9722-02cda2445e09","","null","
                <div class=""stimulus-container"">
                    <img src=""images/schematic_sequence/interview_scheme/interview_scheme_1.png"" class=""exp-image"">
                    <div class=""question-area""></div> 
                </div>","null","","","","","","","","",""
"","","","","","html-button-response","60","183995","0.0-60.0","7837F092ABDB4696B653011B7481CCF5","019cf065-efd9-75d4-b57e-25a23f38dc2a","019ceff9-9f67-7034-9722-02cda2445e09","","1186","
                <div class=""stimulus-container"">
                    <img src=""images/schematic_sequence/interview_scheme/interview_scheme_1.png"" class=""exp-image"">
                    <div class=""question-area"">
                        <p style=""font-size: 20px; font-weight: bold; margin: 0;"">Is there a person in this image?</p>
                    </div>
                </div>","1","main_experiment_trial","1","interview_scheme","schematic_sequence","","","","",""
"","","","","","html-keyboard-response","61","188996","0.0-61.0","7837F092ABDB4696B653011B7481CCF5","019cf065-efd9-75d4-b57e-25a23f38dc2a","019ceff9-9f67-7034-9722-02cda2445e09","","null","
                <div class=""stimulus-container"">
                    <img src=""images/schematic_sequence/interview_scheme/interview_scheme_2.png"" class=""exp-image"">
                    <div class=""question-area""></div> 
                </div>","null","","","","","","","","",""
"","","","","","html-button-response","62","190714","0.0-62.0","7837F092ABDB4696B653011B7481CCF5","019cf065-efd9-75d4-b57e-25a23f38dc2a","019ceff9-9f67-7034-9722-02cda2445e09","","1716","
                <div class=""stimulus-container"">
                    <img src=""images/schematic_sequence/interview_scheme/interview_scheme_2.png"" class=""exp-image"">
                    <div class=""question-area"">
                        <p style=""font-size: 20px; font-weight: bold; margin: 0;"">Is there a person in this image?</p>
                    </div>
                </div>","1","main_experiment_trial","2","interview_scheme","schematic_sequence","","","","",""
"","","","","","html-keyboard-response","63","195716","0.0-63.0","7837F092ABDB4696B653011B7481CCF5","019cf065-efd9-75d4-b57e-25a23f38dc2a","019ceff9-9f67-7034-9722-02cda2445e09","","null","
                <div class=""stimulus-container"">
                    <img src=""images/schematic_sequence/interview_scheme/interview_scheme_3.png"" class=""exp-image"">
                    <div class=""question-area""></div> 
                </div>","null","","","","","","","","",""
"","","","","","html-button-response","64","196260","0.0-64.0","7837F092ABDB4696B653011B7481CCF5","019cf065-efd9-75d4-b57e-25a23f38dc2a","019ceff9-9f67-7034-9722-02cda2445e09","","542","
                <div class=""stimulus-container"">
                    <img src=""images/schematic_sequence/interview_scheme/interview_scheme_3.png"" class=""exp-image"">
                    <div class=""question-area"">
                        <p style=""font-size: 20px; font-weight: bold; margin: 0;"">Is there a person in this image?</p>
                    </div>
                </div>","1","main_experiment_trial","3","interview_scheme","schematic_sequence","","","","",""
"","","","","","html-keyboard-response","65","201262","0.0-65.0","7837F092ABDB4696B653011B7481CCF5","019cf065-efd9-75d4-b57e-25a23f38dc2a","019ceff9-9f67-7034-9722-02cda2445e09","","null","
                <div class=""stimulus-container"">
                    <img src=""images/schematic_sequence/interview_scheme/interview_scheme_4.png"" class=""exp-image"">
                    <div class=""question-area""></div> 
                </div>","null","","","","","","","","",""
"","","","","","html-button-response","66","201698","0.0-66.0","7837F092ABDB4696B653011B7481CCF5","019cf065-efd9-75d4-b57e-25a23f38dc2a","019ceff9-9f67-7034-9722-02cda2445e09","","434","
                <div class=""stimulus-container"">
                    <img src=""images/schematic_sequence/interview_scheme/interview_scheme_4.png"" class=""exp-image"">
                    <div class=""question-area"">
                        <p style=""font-size: 20px; font-weight: bold; margin: 0;"">Is there a person in this image?</p>
                    </div>
                </div>","1","main_experiment_trial","4","interview_scheme","schematic_sequence","","","","",""
"","","","","","html-keyboard-response","67","206700","0.0-67.0","7837F092ABDB4696B653011B7481CCF5","019cf065-efd9-75d4-b57e-25a23f38dc2a","019ceff9-9f67-7034-9722-02cda2445e09","","null","
                <div class=""stimulus-container"">
                    <img src=""images/schematic_sequence/interview_scheme/interview_scheme_5.png"" class=""exp-image"">
                    <div class=""question-area""></div> 
                </div>","null","","","","","","","","",""
"","","","","","html-button-response","68","207246","0.0-68.0","7837F092ABDB4696B653011B7481CCF5","019cf065-efd9-75d4-b57e-25a23f38dc2a","019ceff9-9f67-7034-9722-02cda2445e09","","545","
                <div class=""stimulus-container"">
                    <img src=""images/schematic_sequence/interview_scheme/interview_scheme_5.png"" class=""exp-image"">
                    <div class=""question-area"">
                        <p style=""font-size: 20px; font-weight: bold; margin: 0;"">Is there a person in this image?</p>
                    </div>
                </div>","0","main_experiment_trial","5","interview_scheme","schematic_sequence","","","","",""
"","","","","","html-keyboard-response","69","212248","0.0-69.0","7837F092ABDB4696B653011B7481CCF5","019cf065-efd9-75d4-b57e-25a23f38dc2a","019ceff9-9f67-7034-9722-02cda2445e09","","null","
                <div class=""stimulus-container"">
                    <img src=""images/schematic_sequence/interview_scheme/interview_scheme_6.png"" class=""exp-image"">
                    <div class=""question-area""></div> 
                </div>","null","","","","","","","","",""
"","","","","","html-button-response","70","212664","0.0-70.0","7837F092ABDB4696B653011B7481CCF5","019cf065-efd9-75d4-b57e-25a23f38dc2a","019ceff9-9f67-7034-9722-02cda2445e09","","414","
                <div class=""stimulus-container"">
                    <img src=""images/schematic_sequence/interview_scheme/interview_scheme_6.png"" class=""exp-image"">
                    <div class=""question-area"">
                        <p style=""font-size: 20px; font-weight: bold; margin: 0;"">Is there a person in this image?</p>
                    </div>
                </div>","0","main_experiment_trial","6","interview_scheme","schematic_sequence","","","","",""
"","","","","","html-keyboard-response","71","217667","0.0-71.0","7837F092ABDB4696B653011B7481CCF5","019cf065-efd9-75d4-b57e-25a23f38dc2a","019ceff9-9f67-7034-9722-02cda2445e09","","null","
                <div class=""stimulus-container"">
                    <img src=""images/schematic_sequence/interview_scheme/interview_scheme_7.png"" class=""exp-image"">
                    <div class=""question-area""></div> 
                </div>","null","","","","","","","","",""
"","","","","","html-button-response","72","218382","0.0-72.0","7837F092ABDB4696B653011B7481CCF5","019cf065-efd9-75d4-b57e-25a23f38dc2a","019ceff9-9f67-7034-9722-02cda2445e09","","714","
                <div class=""stimulus-container"">
                    <img src=""images/schematic_sequence/interview_scheme/interview_scheme_7.png"" class=""exp-image"">
                    <div class=""question-area"">
                        <p style=""font-size: 20px; font-weight: bold; margin: 0;"">Is there a person in this image?</p>
                    </div>
                </div>","0","main_experiment_trial","7","interview_scheme","schematic_sequence","","","","",""
"","","","","","html-keyboard-response","73","223384","0.0-73.0","7837F092ABDB4696B653011B7481CCF5","019cf065-efd9-75d4-b57e-25a23f38dc2a","019ceff9-9f67-7034-9722-02cda2445e09","","null","
                <div class=""stimulus-container"">
                    <img src=""images/schematic_sequence/interview_scheme/interview_scheme_8.png"" class=""exp-image"">
                    <div class=""question-area""></div> 
                </div>","null","","","","","","","","",""
"","","","","","html-button-response","74","224370","0.0-74.0","7837F092ABDB4696B653011B7481CCF5","019cf065-efd9-75d4-b57e-25a23f38dc2a","019ceff9-9f67-7034-9722-02cda2445e09","","984","
                <div class=""stimulus-container"">
                    <img src=""images/schematic_sequence/interview_scheme/interview_scheme_8.png"" class=""exp-image"">
                    <div class=""question-area"">
                        <p style=""font-size: 20px; font-weight: bold; margin: 0;"">Is there a person in this image?</p>
                    </div>
                </div>","0","main_experiment_trial","8","interview_scheme","schematic_sequence","","","","",""
"","","","","","html-keyboard-response","75","229373","0.0-75.0","7837F092ABDB4696B653011B7481CCF5","019cf065-efd9-75d4-b57e-25a23f38dc2a","019ceff9-9f67-7034-9722-02cda2445e09","","null","
                <div class=""stimulus-container"">
                    <img src=""images/schematic_sequence/interview_scheme/interview_scheme_9.png"" class=""exp-image"">
                    <div class=""question-area""></div> 
                </div>","null","","","","","","","","",""
"","","","","","html-button-response","76","229918","0.0-76.0","7837F092ABDB4696B653011B7481CCF5","019cf065-efd9-75d4-b57e-25a23f38dc2a","019ceff9-9f67-7034-9722-02cda2445e09","","543","
                <div class=""stimulus-container"">
                    <img src=""images/schematic_sequence/interview_scheme/interview_scheme_9.png"" class=""exp-image"">
                    <div class=""question-area"">
                        <p style=""font-size: 20px; font-weight: bold; margin: 0;"">Is there a person in this image?</p>
                    </div>
                </div>","0","main_experiment_trial","9","interview_scheme","schematic_sequence","","","","",""
"","","","","","html-keyboard-response","77","234920","0.0-77.0","7837F092ABDB4696B653011B7481CCF5","019cf065-efd9-75d4-b57e-25a23f38dc2a","019ceff9-9f67-7034-9722-02cda2445e09","","null","
                <div class=""stimulus-container"">
                    <img src=""images/schematic_sequence/interview_scheme/interview_scheme_ten.png"" class=""exp-image"">
                    <div class=""question-area""></div> 
                </div>","null","","","","","","","","",""
"","","","","","html-button-response","78","235305","0.0-78.0","7837F092ABDB4696B653011B7481CCF5","019cf065-efd9-75d4-b57e-25a23f38dc2a","019ceff9-9f67-7034-9722-02cda2445e09","","384","
                <div class=""stimulus-container"">
                    <img src=""images/schematic_sequence/interview_scheme/interview_scheme_ten.png"" class=""exp-image"">
                    <div class=""question-area"">
                        <p style=""font-size: 20px; font-weight: bold; margin: 0;"">Is there a person in this image?</p>
                    </div>
                </div>","0","main_experiment_trial","ten","interview_scheme","schematic_sequence","","","","",""
"","","","","","html-keyboard-response","79","236306","0.0-79.0","7837F092ABDB4696B653011B7481CCF5","019cf065-efd9-75d4-b57e-25a23f38dc2a","019ceff9-9f67-7034-9722-02cda2445e09","","null","<div style=""background-color: white; width: 100vw; height: 100vh;""></div>","null","","","","","","","","",""
"","","","","","html-keyboard-response","80","241309","0.0-80.0","7837F092ABDB4696B653011B7481CCF5","019cf065-efd9-75d4-b57e-25a23f38dc2a","019ceff9-9f67-7034-9722-02cda2445e09","","null","
                <div class=""stimulus-container"">
                    <img src=""images/causal_sequence/saving_a_cat_causal/saving_a_cat_causal_1.png"" class=""exp-image"">
                    <div class=""question-area""></div> 
                </div>","null","","","","","","","","",""
"","","","","","html-button-response","81","241752","0.0-81.0","7837F092ABDB4696B653011B7481CCF5","019cf065-efd9-75d4-b57e-25a23f38dc2a","019ceff9-9f67-7034-9722-02cda2445e09","","441","
                <div class=""stimulus-container"">
                    <img src=""images/causal_sequence/saving_a_cat_causal/saving_a_cat_causal_1.png"" class=""exp-image"">
                    <div class=""question-area"">
                        <p style=""font-size: 20px; font-weight: bold; margin: 0;"">Is there a person in this image?</p>
                    </div>
                </div>","0","main_experiment_trial","1","saving_a_cat_causal","causal_sequence","","","","",""
"","","","","","html-keyboard-response","82","246753","0.0-82.0","7837F092ABDB4696B653011B7481CCF5","019cf065-efd9-75d4-b57e-25a23f38dc2a","019ceff9-9f67-7034-9722-02cda2445e09","","null","
                <div class=""stimulus-container"">
                    <img src=""images/causal_sequence/saving_a_cat_causal/saving_a_cat_causal_2.png"" class=""exp-image"">
                    <div class=""question-area""></div> 
                </div>","null","","","","","","","","",""
"","","","","","html-button-response","83","248031","0.0-83.0","7837F092ABDB4696B653011B7481CCF5","019cf065-efd9-75d4-b57e-25a23f38dc2a","019ceff9-9f67-7034-9722-02cda2445e09","","1276","
                <div class=""stimulus-container"">
                    <img src=""images/causal_sequence/saving_a_cat_causal/saving_a_cat_causal_2.png"" class=""exp-image"">
                    <div class=""question-area"">
                        <p style=""font-size: 20px; font-weight: bold; margin: 0;"">Is there a person in this image?</p>
                    </div>
                </div>","1","main_experiment_trial","2","saving_a_cat_causal","causal_sequence","","","","",""
"","","","","","html-keyboard-response","84","253033","0.0-84.0","7837F092ABDB4696B653011B7481CCF5","019cf065-efd9-75d4-b57e-25a23f38dc2a","019ceff9-9f67-7034-9722-02cda2445e09","","null","
                <div class=""stimulus-container"">
                    <img src=""images/causal_sequence/saving_a_cat_causal/saving_a_cat_causal_3.png"" class=""exp-image"">
                    <div class=""question-area""></div> 
                </div>","null","","","","","","","","",""
"","","","","","html-button-response","85","253808","0.0-85.0","7837F092ABDB4696B653011B7481CCF5","019cf065-efd9-75d4-b57e-25a23f38dc2a","019ceff9-9f67-7034-9722-02cda2445e09","","773","
                <div class=""stimulus-container"">
                    <img src=""images/causal_sequence/saving_a_cat_causal/saving_a_cat_causal_3.png"" class=""exp-image"">
                    <div class=""question-area"">
                        <p style=""font-size: 20px; font-weight: bold; margin: 0;"">Is there a person in this image?</p>
                    </div>
                </div>","1","main_experiment_trial","3","saving_a_cat_causal","causal_sequence","","","","",""
"","","","","","html-keyboard-response","86","258811","0.0-86.0","7837F092ABDB4696B653011B7481CCF5","019cf065-efd9-75d4-b57e-25a23f38dc2a","019ceff9-9f67-7034-9722-02cda2445e09","","null","
                <div class=""stimulus-container"">
                    <img src=""images/causal_sequence/saving_a_cat_causal/saving_a_cat_causal_4.png"" class=""exp-image"">
                    <div class=""question-area""></div> 
                </div>","null","","","","","","","","",""
"","","","","","html-button-response","87","259718","0.0-87.0","7837F092ABDB4696B653011B7481CCF5","019cf065-efd9-75d4-b57e-25a23f38dc2a","019ceff9-9f67-7034-9722-02cda2445e09","","906","
                <div class=""stimulus-container"">
                    <img src=""images/causal_sequence/saving_a_cat_causal/saving_a_cat_causal_4.png"" class=""exp-image"">
                    <div class=""question-area"">
                        <p style=""font-size: 20px; font-weight: bold; margin: 0;"">Is there a person in this image?</p>
                    </div>
                </div>","0","main_experiment_trial","4","saving_a_cat_causal","causal_sequence","","","","",""
"","","","","","html-keyboard-response","88","264720","0.0-88.0","7837F092ABDB4696B653011B7481CCF5","019cf065-efd9-75d4-b57e-25a23f38dc2a","019ceff9-9f67-7034-9722-02cda2445e09","","null","
                <div class=""stimulus-container"">
                    <img src=""images/causal_sequence/saving_a_cat_causal/saving_a_cat_causal_5.png"" class=""exp-image"">
                    <div class=""question-area""></div> 
                </div>","null","","","","","","","","",""
"","","","","","html-button-response","89","265725","0.0-89.0","7837F092ABDB4696B653011B7481CCF5","019cf065-efd9-75d4-b57e-25a23f38dc2a","019ceff9-9f67-7034-9722-02cda2445e09","","1003","
                <div class=""stimulus-container"">
                    <img src=""images/causal_sequence/saving_a_cat_causal/saving_a_cat_causal_5.png"" class=""exp-image"">
                    <div class=""question-area"">
                        <p style=""font-size: 20px; font-weight: bold; margin: 0;"">Is there a person in this image?</p>
                    </div>
                </div>","0","main_experiment_trial","5","saving_a_cat_causal","causal_sequence","","","","",""
"","","","","","html-keyboard-response","90","270727","0.0-90.0","7837F092ABDB4696B653011B7481CCF5","019cf065-efd9-75d4-b57e-25a23f38dc2a","019ceff9-9f67-7034-9722-02cda2445e09","","null","
                <div class=""stimulus-container"">
                    <img src=""images/causal_sequence/saving_a_cat_causal/saving_a_cat_causal_6.png"" class=""exp-image"">
                    <div class=""question-area""></div> 
                </div>","null","","","","","","","","",""
"","","","","","html-button-response","91","271320","0.0-91.0","7837F092ABDB4696B653011B7481CCF5","019cf065-efd9-75d4-b57e-25a23f38dc2a","019ceff9-9f67-7034-9722-02cda2445e09","","591","
                <div class=""stimulus-container"">
                    <img src=""images/causal_sequence/saving_a_cat_causal/saving_a_cat_causal_6.png"" class=""exp-image"">
                    <div class=""question-area"">
                        <p style=""font-size: 20px; font-weight: bold; margin: 0;"">Is there a person in this image?</p>
                    </div>
                </div>","0","main_experiment_trial","6","saving_a_cat_causal","causal_sequence","","","","",""
"","","","","","html-keyboard-response","92","276323","0.0-92.0","7837F092ABDB4696B653011B7481CCF5","019cf065-efd9-75d4-b57e-25a23f38dc2a","019ceff9-9f67-7034-9722-02cda2445e09","","null","
                <div class=""stimulus-container"">
                    <img src=""images/causal_sequence/saving_a_cat_causal/saving_a_cat_causal_7.png"" class=""exp-image"">
                    <div class=""question-area""></div> 
                </div>","null","","","","","","","","",""
"","","","","","html-button-response","93","277104","0.0-93.0","7837F092ABDB4696B653011B7481CCF5","019cf065-efd9-75d4-b57e-25a23f38dc2a","019ceff9-9f67-7034-9722-02cda2445e09","","780","
                <div class=""stimulus-container"">
                    <img src=""images/causal_sequence/saving_a_cat_causal/saving_a_cat_causal_7.png"" class=""exp-image"">
                    <div class=""question-area"">
                        <p style=""font-size: 20px; font-weight: bold; margin: 0;"">Is there a person in this image?</p>
                    </div>
                </div>","0","main_experiment_trial","7","saving_a_cat_causal","causal_sequence","","","","",""
"","","","","","html-keyboard-response","94","282108","0.0-94.0","7837F092ABDB4696B653011B7481CCF5","019cf065-efd9-75d4-b57e-25a23f38dc2a","019ceff9-9f67-7034-9722-02cda2445e09","","null","
                <div class=""stimulus-container"">
                    <img src=""images/causal_sequence/saving_a_cat_causal/saving_a_cat_causal_8.png"" class=""exp-image"">
                    <div class=""question-area""></div> 
                </div>","null","","","","","","","","",""
"","","","","","html-button-response","95","283141","0.0-95.0","7837F092ABDB4696B653011B7481CCF5","019cf065-efd9-75d4-b57e-25a23f38dc2a","019ceff9-9f67-7034-9722-02cda2445e09","","1032","
                <div class=""stimulus-container"">
                    <img src=""images/causal_sequence/saving_a_cat_causal/saving_a_cat_causal_8.png"" class=""exp-image"">
                    <div class=""question-area"">
                        <p style=""font-size: 20px; font-weight: bold; margin: 0;"">Is there a person in this image?</p>
                    </div>
                </div>","0","main_experiment_trial","8","saving_a_cat_causal","causal_sequence","","","","",""
"","","","","","html-keyboard-response","96","288143","0.0-96.0","7837F092ABDB4696B653011B7481CCF5","019cf065-efd9-75d4-b57e-25a23f38dc2a","019ceff9-9f67-7034-9722-02cda2445e09","","null","
                <div class=""stimulus-container"">
                    <img src=""images/causal_sequence/saving_a_cat_causal/saving_a_cat_causal_9.png"" class=""exp-image"">
                    <div class=""question-area""></div> 
                </div>","null","","","","","","","","",""
"","","","","","html-button-response","97","289697","0.0-97.0","7837F092ABDB4696B653011B7481CCF5","019cf065-efd9-75d4-b57e-25a23f38dc2a","019ceff9-9f67-7034-9722-02cda2445e09","","1552","
                <div class=""stimulus-container"">
                    <img src=""images/causal_sequence/saving_a_cat_causal/saving_a_cat_causal_9.png"" class=""exp-image"">
                    <div class=""question-area"">
                        <p style=""font-size: 20px; font-weight: bold; margin: 0;"">Is there a person in this image?</p>
                    </div>
                </div>","0","main_experiment_trial","9","saving_a_cat_causal","causal_sequence","","","","",""
"","","","","","html-keyboard-response","98","294700","0.0-98.0","7837F092ABDB4696B653011B7481CCF5","019cf065-efd9-75d4-b57e-25a23f38dc2a","019ceff9-9f67-7034-9722-02cda2445e09","","null","
                <div class=""stimulus-container"">
                    <img src=""images/causal_sequence/saving_a_cat_causal/saving_a_cat_causal_ten.png"" class=""exp-image"">
                    <div class=""question-area""></div> 
                </div>","null","","","","","","","","",""
"","","","","","html-button-response","99","295665","0.0-99.0","7837F092ABDB4696B653011B7481CCF5","019cf065-efd9-75d4-b57e-25a23f38dc2a","019ceff9-9f67-7034-9722-02cda2445e09","","964","
                <div class=""stimulus-container"">
                    <img src=""images/causal_sequence/saving_a_cat_causal/saving_a_cat_causal_ten.png"" class=""exp-image"">
                    <div class=""question-area"">
                        <p style=""font-size: 20px; font-weight: bold; margin: 0;"">Is there a person in this image?</p>
                    </div>
                </div>","0","main_experiment_trial","ten","saving_a_cat_causal","causal_sequence","","","","",""
"","","","","","html-keyboard-response","100","296667","0.0-100.0","7837F092ABDB4696B653011B7481CCF5","019cf065-efd9-75d4-b57e-25a23f38dc2a","019ceff9-9f67-7034-9722-02cda2445e09","","null","<div style=""background-color: white; width: 100vw; height: 100vh;""></div>","null","","","","","","","","",""
"","","","","","html-keyboard-response","101","301669","0.0-101.0","7837F092ABDB4696B653011B7481CCF5","019cf065-efd9-75d4-b57e-25a23f38dc2a","019ceff9-9f67-7034-9722-02cda2445e09","","null","
                <div class=""stimulus-container"">
                    <img src=""images/schematic_sequence/restaurant_scheme/restaurant_scheme_1.png"" class=""exp-image"">
                    <div class=""question-area""></div> 
                </div>","null","","","","","","","","",""
"","","","","","html-button-response","102","302151","0.0-102.0","7837F092ABDB4696B653011B7481CCF5","019cf065-efd9-75d4-b57e-25a23f38dc2a","019ceff9-9f67-7034-9722-02cda2445e09","","480","
                <div class=""stimulus-container"">
                    <img src=""images/schematic_sequence/restaurant_scheme/restaurant_scheme_1.png"" class=""exp-image"">
                    <div class=""question-area"">
                        <p style=""font-size: 20px; font-weight: bold; margin: 0;"">Is there a person in this image?</p>
                    </div>
                </div>","0","main_experiment_trial","1","restaurant_scheme","schematic_sequence","","","","",""
"","","","","","html-keyboard-response","103","307152","0.0-103.0","7837F092ABDB4696B653011B7481CCF5","019cf065-efd9-75d4-b57e-25a23f38dc2a","019ceff9-9f67-7034-9722-02cda2445e09","","null","
                <div class=""stimulus-container"">
                    <img src=""images/schematic_sequence/restaurant_scheme/restaurant_scheme_2.png"" class=""exp-image"">
                    <div class=""question-area""></div> 
                </div>","null","","","","","","","","",""
"","","","","","html-button-response","104","307936","0.0-104.0","7837F092ABDB4696B653011B7481CCF5","019cf065-efd9-75d4-b57e-25a23f38dc2a","019ceff9-9f67-7034-9722-02cda2445e09","","783","
                <div class=""stimulus-container"">
                    <img src=""images/schematic_sequence/restaurant_scheme/restaurant_scheme_2.png"" class=""exp-image"">
                    <div class=""question-area"">
                        <p style=""font-size: 20px; font-weight: bold; margin: 0;"">Is there a person in this image?</p>
                    </div>
                </div>","1","main_experiment_trial","2","restaurant_scheme","schematic_sequence","","","","",""
"","","","","","html-keyboard-response","105","312938","0.0-105.0","7837F092ABDB4696B653011B7481CCF5","019cf065-efd9-75d4-b57e-25a23f38dc2a","019ceff9-9f67-7034-9722-02cda2445e09","","null","
                <div class=""stimulus-container"">
                    <img src=""images/schematic_sequence/restaurant_scheme/restaurant_scheme_3.png"" class=""exp-image"">
                    <div class=""question-area""></div> 
                </div>","null","","","","","","","","",""
"","","","","","html-button-response","106","313457","0.0-106.0","7837F092ABDB4696B653011B7481CCF5","019cf065-efd9-75d4-b57e-25a23f38dc2a","019ceff9-9f67-7034-9722-02cda2445e09","","517","
                <div class=""stimulus-container"">
                    <img src=""images/schematic_sequence/restaurant_scheme/restaurant_scheme_3.png"" class=""exp-image"">
                    <div class=""question-area"">
                        <p style=""font-size: 20px; font-weight: bold; margin: 0;"">Is there a person in this image?</p>
                    </div>
                </div>","1","main_experiment_trial","3","restaurant_scheme","schematic_sequence","","","","",""
"","","","","","html-keyboard-response","107","318460","0.0-107.0","7837F092ABDB4696B653011B7481CCF5","019cf065-efd9-75d4-b57e-25a23f38dc2a","019ceff9-9f67-7034-9722-02cda2445e09","","null","
                <div class=""stimulus-container"">
                    <img src=""images/schematic_sequence/restaurant_scheme/restaurant_scheme_4.png"" class=""exp-image"">
                    <div class=""question-area""></div> 
                </div>","null","","","","","","","","",""
"","","","","","html-button-response","108","319439","0.0-108.0","7837F092ABDB4696B653011B7481CCF5","019cf065-efd9-75d4-b57e-25a23f38dc2a","019ceff9-9f67-7034-9722-02cda2445e09","","979","
                <div class=""stimulus-container"">
                    <img src=""images/schematic_sequence/restaurant_scheme/restaurant_scheme_4.png"" class=""exp-image"">
                    <div class=""question-area"">
                        <p style=""font-size: 20px; font-weight: bold; margin: 0;"">Is there a person in this image?</p>
                    </div>
                </div>","0","main_experiment_trial","4","restaurant_scheme","schematic_sequence","","","","",""
"","","","","","html-keyboard-response","109","324441","0.0-109.0","7837F092ABDB4696B653011B7481CCF5","019cf065-efd9-75d4-b57e-25a23f38dc2a","019ceff9-9f67-7034-9722-02cda2445e09","","null","
                <div class=""stimulus-container"">
                    <img src=""images/schematic_sequence/restaurant_scheme/restaurant_scheme_5.png"" class=""exp-image"">
                    <div class=""question-area""></div> 
                </div>","null","","","","","","","","",""
"","","","","","html-button-response","110","324865","0.0-110.0","7837F092ABDB4696B653011B7481CCF5","019cf065-efd9-75d4-b57e-25a23f38dc2a","019ceff9-9f67-7034-9722-02cda2445e09","","422","
                <div class=""stimulus-container"">
                    <img src=""images/schematic_sequence/restaurant_scheme/restaurant_scheme_5.png"" class=""exp-image"">
                    <div class=""question-area"">
                        <p style=""font-size: 20px; font-weight: bold; margin: 0;"">Is there a person in this image?</p>
                    </div>
                </div>","0","main_experiment_trial","5","restaurant_scheme","schematic_sequence","","","","",""
"","","","","","html-keyboard-response","111","329868","0.0-111.0","7837F092ABDB4696B653011B7481CCF5","019cf065-efd9-75d4-b57e-25a23f38dc2a","019ceff9-9f67-7034-9722-02cda2445e09","","null","
                <div class=""stimulus-container"">
                    <img src=""images/schematic_sequence/restaurant_scheme/restaurant_scheme_6.png"" class=""exp-image"">
                    <div class=""question-area""></div> 
                </div>","null","","","","","","","","",""
"","","","","","html-button-response","112","330542","0.0-112.0","7837F092ABDB4696B653011B7481CCF5","019cf065-efd9-75d4-b57e-25a23f38dc2a","019ceff9-9f67-7034-9722-02cda2445e09","","673","
                <div class=""stimulus-container"">
                    <img src=""images/schematic_sequence/restaurant_scheme/restaurant_scheme_6.png"" class=""exp-image"">
                    <div class=""question-area"">
                        <p style=""font-size: 20px; font-weight: bold; margin: 0;"">Is there a person in this image?</p>
                    </div>
                </div>","1","main_experiment_trial","6","restaurant_scheme","schematic_sequence","","","","",""
"","","","","","html-keyboard-response","113","335545","0.0-113.0","7837F092ABDB4696B653011B7481CCF5","019cf065-efd9-75d4-b57e-25a23f38dc2a","019ceff9-9f67-7034-9722-02cda2445e09","","null","
                <div class=""stimulus-container"">
                    <img src=""images/schematic_sequence/restaurant_scheme/restaurant_scheme_7.png"" class=""exp-image"">
                    <div class=""question-area""></div> 
                </div>","null","","","","","","","","",""
"","","","","","html-button-response","114","336125","0.0-114.0","7837F092ABDB4696B653011B7481CCF5","019cf065-efd9-75d4-b57e-25a23f38dc2a","019ceff9-9f67-7034-9722-02cda2445e09","","578","
                <div class=""stimulus-container"">
                    <img src=""images/schematic_sequence/restaurant_scheme/restaurant_scheme_7.png"" class=""exp-image"">
                    <div class=""question-area"">
                        <p style=""font-size: 20px; font-weight: bold; margin: 0;"">Is there a person in this image?</p>
                    </div>
                </div>","1","main_experiment_trial","7","restaurant_scheme","schematic_sequence","","","","",""
"","","","","","html-keyboard-response","115","341126","0.0-115.0","7837F092ABDB4696B653011B7481CCF5","019cf065-efd9-75d4-b57e-25a23f38dc2a","019ceff9-9f67-7034-9722-02cda2445e09","","null","
                <div class=""stimulus-container"">
                    <img src=""images/schematic_sequence/restaurant_scheme/restaurant_scheme_8.png"" class=""exp-image"">
                    <div class=""question-area""></div> 
                </div>","null","","","","","","","","",""
"","","","","","html-button-response","116","342343","0.0-116.0","7837F092ABDB4696B653011B7481CCF5","019cf065-efd9-75d4-b57e-25a23f38dc2a","019ceff9-9f67-7034-9722-02cda2445e09","","1216","
                <div class=""stimulus-container"">
                    <img src=""images/schematic_sequence/restaurant_scheme/restaurant_scheme_8.png"" class=""exp-image"">
                    <div class=""question-area"">
                        <p style=""font-size: 20px; font-weight: bold; margin: 0;"">Is there a person in this image?</p>
                    </div>
                </div>","0","main_experiment_trial","8","restaurant_scheme","schematic_sequence","","","","",""
"","","","","","html-keyboard-response","117","347345","0.0-117.0","7837F092ABDB4696B653011B7481CCF5","019cf065-efd9-75d4-b57e-25a23f38dc2a","019ceff9-9f67-7034-9722-02cda2445e09","","null","
                <div class=""stimulus-container"">
                    <img src=""images/schematic_sequence/restaurant_scheme/restaurant_scheme_9.png"" class=""exp-image"">
                    <div class=""question-area""></div> 
                </div>","null","","","","","","","","",""
"","","","","","html-button-response","118","348150","0.0-118.0","7837F092ABDB4696B653011B7481CCF5","019cf065-efd9-75d4-b57e-25a23f38dc2a","019ceff9-9f67-7034-9722-02cda2445e09","","803","
                <div class=""stimulus-container"">
                    <img src=""images/schematic_sequence/restaurant_scheme/restaurant_scheme_9.png"" class=""exp-image"">
                    <div class=""question-area"">
                        <p style=""font-size: 20px; font-weight: bold; margin: 0;"">Is there a person in this image?</p>
                    </div>
                </div>","0","main_experiment_trial","9","restaurant_scheme","schematic_sequence","","","","",""
"","","","","","html-keyboard-response","119","353154","0.0-119.0","7837F092ABDB4696B653011B7481CCF5","019cf065-efd9-75d4-b57e-25a23f38dc2a","019ceff9-9f67-7034-9722-02cda2445e09","","null","
                <div class=""stimulus-container"">
                    <img src=""images/schematic_sequence/restaurant_scheme/restaurant_scheme_ten.png"" class=""exp-image"">
                    <div class=""question-area""></div> 
                </div>","null","","","","","","","","",""
"","","","","","html-button-response","120","353554","0.0-120.0","7837F092ABDB4696B653011B7481CCF5","019cf065-efd9-75d4-b57e-25a23f38dc2a","019ceff9-9f67-7034-9722-02cda2445e09","","398","
                <div class=""stimulus-container"">
                    <img src=""images/schematic_sequence/restaurant_scheme/restaurant_scheme_ten.png"" class=""exp-image"">
                    <div class=""question-area"">
                        <p style=""font-size: 20px; font-weight: bold; margin: 0;"">Is there a person in this image?</p>
                    </div>
                </div>","0","main_experiment_trial","ten","restaurant_scheme","schematic_sequence","","","","",""
"","","","","","html-keyboard-response","121","354555","0.0-121.0","7837F092ABDB4696B653011B7481CCF5","019cf065-efd9-75d4-b57e-25a23f38dc2a","019ceff9-9f67-7034-9722-02cda2445e09","","null","<div style=""background-color: white; width: 100vw; height: 100vh;""></div>","null","","","","","","","","",""
"","","","","","html-keyboard-response","122","359558","0.0-122.0","7837F092ABDB4696B653011B7481CCF5","019cf065-efd9-75d4-b57e-25a23f38dc2a","019ceff9-9f67-7034-9722-02cda2445e09","","null","
                <div class=""stimulus-container"">
                    <img src=""images/causal_sequence/dog_causal/dog_causal_1.png"" class=""exp-image"">
                    <div class=""question-area""></div> 
                </div>","null","","","","","","","","",""
"","","","","","html-button-response","123","360010","0.0-123.0","7837F092ABDB4696B653011B7481CCF5","019cf065-efd9-75d4-b57e-25a23f38dc2a","019ceff9-9f67-7034-9722-02cda2445e09","","451","
                <div class=""stimulus-container"">
                    <img src=""images/causal_sequence/dog_causal/dog_causal_1.png"" class=""exp-image"">
                    <div class=""question-area"">
                        <p style=""font-size: 20px; font-weight: bold; margin: 0;"">Is there a person in this image?</p>
                    </div>
                </div>","0","main_experiment_trial","1","dog_causal","causal_sequence","","","","",""
"","","","","","html-keyboard-response","124","365012","0.0-124.0","7837F092ABDB4696B653011B7481CCF5","019cf065-efd9-75d4-b57e-25a23f38dc2a","019ceff9-9f67-7034-9722-02cda2445e09","","null","
                <div class=""stimulus-container"">
                    <img src=""images/causal_sequence/dog_causal/dog_causal_2.png"" class=""exp-image"">
                    <div class=""question-area""></div> 
                </div>","null","","","","","","","","",""
"","","","","","html-button-response","125","365757","0.0-125.0","7837F092ABDB4696B653011B7481CCF5","019cf065-efd9-75d4-b57e-25a23f38dc2a","019ceff9-9f67-7034-9722-02cda2445e09","","744","
                <div class=""stimulus-container"">
                    <img src=""images/causal_sequence/dog_causal/dog_causal_2.png"" class=""exp-image"">
                    <div class=""question-area"">
                        <p style=""font-size: 20px; font-weight: bold; margin: 0;"">Is there a person in this image?</p>
                    </div>
                </div>","0","main_experiment_trial","2","dog_causal","causal_sequence","","","","",""
"","","","","","html-keyboard-response","126","370760","0.0-126.0","7837F092ABDB4696B653011B7481CCF5","019cf065-efd9-75d4-b57e-25a23f38dc2a","019ceff9-9f67-7034-9722-02cda2445e09","","null","
                <div class=""stimulus-container"">
                    <img src=""images/causal_sequence/dog_causal/dog_causal_3.png"" class=""exp-image"">
                    <div class=""question-area""></div> 
                </div>","null","","","","","","","","",""
"","","","","","html-button-response","127","371383","0.0-127.0","7837F092ABDB4696B653011B7481CCF5","019cf065-efd9-75d4-b57e-25a23f38dc2a","019ceff9-9f67-7034-9722-02cda2445e09","","622","
                <div class=""stimulus-container"">
                    <img src=""images/causal_sequence/dog_causal/dog_causal_3.png"" class=""exp-image"">
                    <div class=""question-area"">
                        <p style=""font-size: 20px; font-weight: bold; margin: 0;"">Is there a person in this image?</p>
                    </div>
                </div>","0","main_experiment_trial","3","dog_causal","causal_sequence","","","","",""
"","","","","","html-keyboard-response","128","376384","0.0-128.0","7837F092ABDB4696B653011B7481CCF5","019cf065-efd9-75d4-b57e-25a23f38dc2a","019ceff9-9f67-7034-9722-02cda2445e09","","null","
                <div class=""stimulus-container"">
                    <img src=""images/causal_sequence/dog_causal/dog_causal_4.png"" class=""exp-image"">
                    <div class=""question-area""></div> 
                </div>","null","","","","","","","","",""
"","","","","","html-button-response","129","377061","0.0-129.0","7837F092ABDB4696B653011B7481CCF5","019cf065-efd9-75d4-b57e-25a23f38dc2a","019ceff9-9f67-7034-9722-02cda2445e09","","675","
                <div class=""stimulus-container"">
                    <img src=""images/causal_sequence/dog_causal/dog_causal_4.png"" class=""exp-image"">
                    <div class=""question-area"">
                        <p style=""font-size: 20px; font-weight: bold; margin: 0;"">Is there a person in this image?</p>
                    </div>
                </div>","0","main_experiment_trial","4","dog_causal","causal_sequence","","","","",""
"","","","","","html-keyboard-response","130","382062","0.0-130.0","7837F092ABDB4696B653011B7481CCF5","019cf065-efd9-75d4-b57e-25a23f38dc2a","019ceff9-9f67-7034-9722-02cda2445e09","","null","
                <div class=""stimulus-container"">
                    <img src=""images/causal_sequence/dog_causal/dog_causal_5.png"" class=""exp-image"">
                    <div class=""question-area""></div> 
                </div>","null","","","","","","","","",""
"","","","","","html-button-response","131","382787","0.0-131.0","7837F092ABDB4696B653011B7481CCF5","019cf065-efd9-75d4-b57e-25a23f38dc2a","019ceff9-9f67-7034-9722-02cda2445e09","","724","
                <div class=""stimulus-container"">
                    <img src=""images/causal_sequence/dog_causal/dog_causal_5.png"" class=""exp-image"">
                    <div class=""question-area"">
                        <p style=""font-size: 20px; font-weight: bold; margin: 0;"">Is there a person in this image?</p>
                    </div>
                </div>","0","main_experiment_trial","5","dog_causal","causal_sequence","","","","",""
"","","","","","html-keyboard-response","132","387789","0.0-132.0","7837F092ABDB4696B653011B7481CCF5","019cf065-efd9-75d4-b57e-25a23f38dc2a","019ceff9-9f67-7034-9722-02cda2445e09","","null","
                <div class=""stimulus-container"">
                    <img src=""images/causal_sequence/dog_causal/dog_causal_6.png"" class=""exp-image"">
                    <div class=""question-area""></div> 
                </div>","null","","","","","","","","",""
"","","","","","html-button-response","133","388245","0.0-133.0","7837F092ABDB4696B653011B7481CCF5","019cf065-efd9-75d4-b57e-25a23f38dc2a","019ceff9-9f67-7034-9722-02cda2445e09","","454","
                <div class=""stimulus-container"">
                    <img src=""images/causal_sequence/dog_causal/dog_causal_6.png"" class=""exp-image"">
                    <div class=""question-area"">
                        <p style=""font-size: 20px; font-weight: bold; margin: 0;"">Is there a person in this image?</p>
                    </div>
                </div>","0","main_experiment_trial","6","dog_causal","causal_sequence","","","","",""
"","","","","","html-keyboard-response","134","393246","0.0-134.0","7837F092ABDB4696B653011B7481CCF5","019cf065-efd9-75d4-b57e-25a23f38dc2a","019ceff9-9f67-7034-9722-02cda2445e09","","null","
                <div class=""stimulus-container"">
                    <img src=""images/causal_sequence/dog_causal/dog_causal_7.png"" class=""exp-image"">
                    <div class=""question-area""></div> 
                </div>","null","","","","","","","","",""
"","","","","","html-button-response","135","393702","0.0-135.0","7837F092ABDB4696B653011B7481CCF5","019cf065-efd9-75d4-b57e-25a23f38dc2a","019ceff9-9f67-7034-9722-02cda2445e09","","455","
                <div class=""stimulus-container"">
                    <img src=""images/causal_sequence/dog_causal/dog_causal_7.png"" class=""exp-image"">
                    <div class=""question-area"">
                        <p style=""font-size: 20px; font-weight: bold; margin: 0;"">Is there a person in this image?</p>
                    </div>
                </div>","0","main_experiment_trial","7","dog_causal","causal_sequence","","","","",""
"","","","","","html-keyboard-response","136","398704","0.0-136.0","7837F092ABDB4696B653011B7481CCF5","019cf065-efd9-75d4-b57e-25a23f38dc2a","019ceff9-9f67-7034-9722-02cda2445e09","","null","
                <div class=""stimulus-container"">
                    <img src=""images/causal_sequence/dog_causal/dog_causal_8.png"" class=""exp-image"">
                    <div class=""question-area""></div> 
                </div>","null","","","","","","","","",""
"","","","","","html-button-response","137","399269","0.0-137.0","7837F092ABDB4696B653011B7481CCF5","019cf065-efd9-75d4-b57e-25a23f38dc2a","019ceff9-9f67-7034-9722-02cda2445e09","","563","
                <div class=""stimulus-container"">
                    <img src=""images/causal_sequence/dog_causal/dog_causal_8.png"" class=""exp-image"">
                    <div class=""question-area"">
                        <p style=""font-size: 20px; font-weight: bold; margin: 0;"">Is there a person in this image?</p>
                    </div>
                </div>","0","main_experiment_trial","8","dog_causal","causal_sequence","","","","",""
"","","","","","html-keyboard-response","138","404270","0.0-138.0","7837F092ABDB4696B653011B7481CCF5","019cf065-efd9-75d4-b57e-25a23f38dc2a","019ceff9-9f67-7034-9722-02cda2445e09","","null","
                <div class=""stimulus-container"">
                    <img src=""images/causal_sequence/dog_causal/dog_causal_9.png"" class=""exp-image"">
                    <div class=""question-area""></div> 
                </div>","null","","","","","","","","",""
"","","","","","html-button-response","139","405317","0.0-139.0","7837F092ABDB4696B653011B7481CCF5","019cf065-efd9-75d4-b57e-25a23f38dc2a","019ceff9-9f67-7034-9722-02cda2445e09","","1045","
                <div class=""stimulus-container"">
                    <img src=""images/causal_sequence/dog_causal/dog_causal_9.png"" class=""exp-image"">
                    <div class=""question-area"">
                        <p style=""font-size: 20px; font-weight: bold; margin: 0;"">Is there a person in this image?</p>
                    </div>
                </div>","0","main_experiment_trial","9","dog_causal","causal_sequence","","","","",""
"","","","","","html-keyboard-response","140","410319","0.0-140.0","7837F092ABDB4696B653011B7481CCF5","019cf065-efd9-75d4-b57e-25a23f38dc2a","019ceff9-9f67-7034-9722-02cda2445e09","","null","
                <div class=""stimulus-container"">
                    <img src=""images/causal_sequence/dog_causal/dog_causal_ten.png"" class=""exp-image"">
                    <div class=""question-area""></div> 
                </div>","null","","","","","","","","",""
"","","","","","html-button-response","141","411156","0.0-141.0","7837F092ABDB4696B653011B7481CCF5","019cf065-efd9-75d4-b57e-25a23f38dc2a","019ceff9-9f67-7034-9722-02cda2445e09","","834","
                <div class=""stimulus-container"">
                    <img src=""images/causal_sequence/dog_causal/dog_causal_ten.png"" class=""exp-image"">
                    <div class=""question-area"">
                        <p style=""font-size: 20px; font-weight: bold; margin: 0;"">Is there a person in this image?</p>
                    </div>
                </div>","0","main_experiment_trial","ten","dog_causal","causal_sequence","","","","",""
"","","","","","html-keyboard-response","142","412158","0.0-142.0","7837F092ABDB4696B653011B7481CCF5","019cf065-efd9-75d4-b57e-25a23f38dc2a","019ceff9-9f67-7034-9722-02cda2445e09","","null","<div style=""background-color: white; width: 100vw; height: 100vh;""></div>","null","","","","","","","","",""
"","","","","","html-keyboard-response","143","417160","0.0-143.0","7837F092ABDB4696B653011B7481CCF5","019cf065-efd9-75d4-b57e-25a23f38dc2a","019ceff9-9f67-7034-9722-02cda2445e09","","null","
                <div class=""stimulus-container"">
                    <img src=""images/schematic_sequence/flight_scheme/flight_scheme_1.png"" class=""exp-image"">
                    <div class=""question-area""></div> 
                </div>","null","","","","","","","","",""
"","","","","","html-button-response","144","417523","0.0-144.0","7837F092ABDB4696B653011B7481CCF5","019cf065-efd9-75d4-b57e-25a23f38dc2a","019ceff9-9f67-7034-9722-02cda2445e09","","361","
                <div class=""stimulus-container"">
                    <img src=""images/schematic_sequence/flight_scheme/flight_scheme_1.png"" class=""exp-image"">
                    <div class=""question-area"">
                        <p style=""font-size: 20px; font-weight: bold; margin: 0;"">Is there a person in this image?</p>
                    </div>
                </div>","0","main_experiment_trial","1","flight_scheme","schematic_sequence","","","","",""
"","","","","","html-keyboard-response","145","422525","0.0-145.0","7837F092ABDB4696B653011B7481CCF5","019cf065-efd9-75d4-b57e-25a23f38dc2a","019ceff9-9f67-7034-9722-02cda2445e09","","null","
                <div class=""stimulus-container"">
                    <img src=""images/schematic_sequence/flight_scheme/flight_scheme_2.png"" class=""exp-image"">
                    <div class=""question-area""></div> 
                </div>","null","","","","","","","","",""
"","","","","","html-button-response","146","423364","0.0-146.0","7837F092ABDB4696B653011B7481CCF5","019cf065-efd9-75d4-b57e-25a23f38dc2a","019ceff9-9f67-7034-9722-02cda2445e09","","837","
                <div class=""stimulus-container"">
                    <img src=""images/schematic_sequence/flight_scheme/flight_scheme_2.png"" class=""exp-image"">
                    <div class=""question-area"">
                        <p style=""font-size: 20px; font-weight: bold; margin: 0;"">Is there a person in this image?</p>
                    </div>
                </div>","1","main_experiment_trial","2","flight_scheme","schematic_sequence","","","","",""
"","","","","","html-keyboard-response","147","428366","0.0-147.0","7837F092ABDB4696B653011B7481CCF5","019cf065-efd9-75d4-b57e-25a23f38dc2a","019ceff9-9f67-7034-9722-02cda2445e09","","null","
                <div class=""stimulus-container"">
                    <img src=""images/schematic_sequence/flight_scheme/flight_scheme_3.png"" class=""exp-image"">
                    <div class=""question-area""></div> 
                </div>","null","","","","","","","","",""
"","","","","","html-button-response","148","429539","0.0-148.0","7837F092ABDB4696B653011B7481CCF5","019cf065-efd9-75d4-b57e-25a23f38dc2a","019ceff9-9f67-7034-9722-02cda2445e09","","1171","
                <div class=""stimulus-container"">
                    <img src=""images/schematic_sequence/flight_scheme/flight_scheme_3.png"" class=""exp-image"">
                    <div class=""question-area"">
                        <p style=""font-size: 20px; font-weight: bold; margin: 0;"">Is there a person in this image?</p>
                    </div>
                </div>","0","main_experiment_trial","3","flight_scheme","schematic_sequence","","","","",""
"","","","","","html-keyboard-response","149","434541","0.0-149.0","7837F092ABDB4696B653011B7481CCF5","019cf065-efd9-75d4-b57e-25a23f38dc2a","019ceff9-9f67-7034-9722-02cda2445e09","","null","
                <div class=""stimulus-container"">
                    <img src=""images/schematic_sequence/flight_scheme/flight_scheme_4.png"" class=""exp-image"">
                    <div class=""question-area""></div> 
                </div>","null","","","","","","","","",""
"","","","","","html-button-response","150","435216","0.0-150.0","7837F092ABDB4696B653011B7481CCF5","019cf065-efd9-75d4-b57e-25a23f38dc2a","019ceff9-9f67-7034-9722-02cda2445e09","","673","
                <div class=""stimulus-container"">
                    <img src=""images/schematic_sequence/flight_scheme/flight_scheme_4.png"" class=""exp-image"">
                    <div class=""question-area"">
                        <p style=""font-size: 20px; font-weight: bold; margin: 0;"">Is there a person in this image?</p>
                    </div>
                </div>","0","main_experiment_trial","4","flight_scheme","schematic_sequence","","","","",""
"","","","","","html-keyboard-response","151","440218","0.0-151.0","7837F092ABDB4696B653011B7481CCF5","019cf065-efd9-75d4-b57e-25a23f38dc2a","019ceff9-9f67-7034-9722-02cda2445e09","","null","
                <div class=""stimulus-container"">
                    <img src=""images/schematic_sequence/flight_scheme/flight_scheme_5.png"" class=""exp-image"">
                    <div class=""question-area""></div> 
                </div>","null","","","","","","","","",""
"","","","","","html-button-response","152","440649","0.0-152.0","7837F092ABDB4696B653011B7481CCF5","019cf065-efd9-75d4-b57e-25a23f38dc2a","019ceff9-9f67-7034-9722-02cda2445e09","","430","
                <div class=""stimulus-container"">
                    <img src=""images/schematic_sequence/flight_scheme/flight_scheme_5.png"" class=""exp-image"">
                    <div class=""question-area"">
                        <p style=""font-size: 20px; font-weight: bold; margin: 0;"">Is there a person in this image?</p>
                    </div>
                </div>","0","main_experiment_trial","5","flight_scheme","schematic_sequence","","","","",""
"","","","","","html-keyboard-response","153","445651","0.0-153.0","7837F092ABDB4696B653011B7481CCF5","019cf065-efd9-75d4-b57e-25a23f38dc2a","019ceff9-9f67-7034-9722-02cda2445e09","","null","
                <div class=""stimulus-container"">
                    <img src=""images/schematic_sequence/flight_scheme/flight_scheme_6.png"" class=""exp-image"">
                    <div class=""question-area""></div> 
                </div>","null","","","","","","","","",""
"","","","","","html-button-response","154","446237","0.0-154.0","7837F092ABDB4696B653011B7481CCF5","019cf065-efd9-75d4-b57e-25a23f38dc2a","019ceff9-9f67-7034-9722-02cda2445e09","","585","
                <div class=""stimulus-container"">
                    <img src=""images/schematic_sequence/flight_scheme/flight_scheme_6.png"" class=""exp-image"">
                    <div class=""question-area"">
                        <p style=""font-size: 20px; font-weight: bold; margin: 0;"">Is there a person in this image?</p>
                    </div>
                </div>","1","main_experiment_trial","6","flight_scheme","schematic_sequence","","","","",""
"","","","","","html-keyboard-response","155","451240","0.0-155.0","7837F092ABDB4696B653011B7481CCF5","019cf065-efd9-75d4-b57e-25a23f38dc2a","019ceff9-9f67-7034-9722-02cda2445e09","","null","
                <div class=""stimulus-container"">
                    <img src=""images/schematic_sequence/flight_scheme/flight_scheme_7.png"" class=""exp-image"">
                    <div class=""question-area""></div> 
                </div>","null","","","","","","","","",""
"","","","","","html-button-response","156","451694","0.0-156.0","7837F092ABDB4696B653011B7481CCF5","019cf065-efd9-75d4-b57e-25a23f38dc2a","019ceff9-9f67-7034-9722-02cda2445e09","","452","
                <div class=""stimulus-container"">
                    <img src=""images/schematic_sequence/flight_scheme/flight_scheme_7.png"" class=""exp-image"">
                    <div class=""question-area"">
                        <p style=""font-size: 20px; font-weight: bold; margin: 0;"">Is there a person in this image?</p>
                    </div>
                </div>","0","main_experiment_trial","7","flight_scheme","schematic_sequence","","","","",""
"","","","","","html-keyboard-response","157","456696","0.0-157.0","7837F092ABDB4696B653011B7481CCF5","019cf065-efd9-75d4-b57e-25a23f38dc2a","019ceff9-9f67-7034-9722-02cda2445e09","","null","
                <div class=""stimulus-container"">
                    <img src=""images/schematic_sequence/flight_scheme/flight_scheme_8.png"" class=""exp-image"">
                    <div class=""question-area""></div> 
                </div>","null","","","","","","","","",""
"","","","","","html-button-response","158","457244","0.0-158.0","7837F092ABDB4696B653011B7481CCF5","019cf065-efd9-75d4-b57e-25a23f38dc2a","019ceff9-9f67-7034-9722-02cda2445e09","","546","
                <div class=""stimulus-container"">
                    <img src=""images/schematic_sequence/flight_scheme/flight_scheme_8.png"" class=""exp-image"">
                    <div class=""question-area"">
                        <p style=""font-size: 20px; font-weight: bold; margin: 0;"">Is there a person in this image?</p>
                    </div>
                </div>","1","main_experiment_trial","8","flight_scheme","schematic_sequence","","","","",""
"","","","","","html-keyboard-response","159","462245","0.0-159.0","7837F092ABDB4696B653011B7481CCF5","019cf065-efd9-75d4-b57e-25a23f38dc2a","019ceff9-9f67-7034-9722-02cda2445e09","","null","
                <div class=""stimulus-container"">
                    <img src=""images/schematic_sequence/flight_scheme/flight_scheme_9.png"" class=""exp-image"">
                    <div class=""question-area""></div> 
                </div>","null","","","","","","","","",""
"","","","","","html-button-response","160","462839","0.0-160.0","7837F092ABDB4696B653011B7481CCF5","019cf065-efd9-75d4-b57e-25a23f38dc2a","019ceff9-9f67-7034-9722-02cda2445e09","","593","
                <div class=""stimulus-container"">
                    <img src=""images/schematic_sequence/flight_scheme/flight_scheme_9.png"" class=""exp-image"">
                    <div class=""question-area"">
                        <p style=""font-size: 20px; font-weight: bold; margin: 0;"">Is there a person in this image?</p>
                    </div>
                </div>","0","main_experiment_trial","9","flight_scheme","schematic_sequence","","","","",""
"","","","","","html-keyboard-response","161","467841","0.0-161.0","7837F092ABDB4696B653011B7481CCF5","019cf065-efd9-75d4-b57e-25a23f38dc2a","019ceff9-9f67-7034-9722-02cda2445e09","","null","
                <div class=""stimulus-container"">
                    <img src=""images/schematic_sequence/flight_scheme/flight_scheme_ten.png"" class=""exp-image"">
                    <div class=""question-area""></div> 
                </div>","null","","","","","","","","",""
"","","","","","html-button-response","162","468865","0.0-162.0","7837F092ABDB4696B653011B7481CCF5","019cf065-efd9-75d4-b57e-25a23f38dc2a","019ceff9-9f67-7034-9722-02cda2445e09","","1022","
                <div class=""stimulus-container"">
                    <img src=""images/schematic_sequence/flight_scheme/flight_scheme_ten.png"" class=""exp-image"">
                    <div class=""question-area"">
                        <p style=""font-size: 20px; font-weight: bold; margin: 0;"">Is there a person in this image?</p>
                    </div>
                </div>","0","main_experiment_trial","ten","flight_scheme","schematic_sequence","","","","",""
"","","","","","html-keyboard-response","163","469866","0.0-163.0","7837F092ABDB4696B653011B7481CCF5","019cf065-efd9-75d4-b57e-25a23f38dc2a","019ceff9-9f67-7034-9722-02cda2445e09","","null","<div style=""background-color: white; width: 100vw; height: 100vh;""></div>","null","","","","","","","","",""
"","","","","","html-keyboard-response","164","474868","0.0-164.0","7837F092ABDB4696B653011B7481CCF5","019cf065-efd9-75d4-b57e-25a23f38dc2a","019ceff9-9f67-7034-9722-02cda2445e09","","null","
                <div class=""stimulus-container"">
                    <img src=""images/causal_sequence/the_performance_causal/the_performance_causal_1.png"" class=""exp-image"">
                    <div class=""question-area""></div> 
                </div>","null","","","","","","","","",""
"","","","","","html-button-response","165","475314","0.0-165.0","7837F092ABDB4696B653011B7481CCF5","019cf065-efd9-75d4-b57e-25a23f38dc2a","019ceff9-9f67-7034-9722-02cda2445e09","","444","
                <div class=""stimulus-container"">
                    <img src=""images/causal_sequence/the_performance_causal/the_performance_causal_1.png"" class=""exp-image"">
                    <div class=""question-area"">
                        <p style=""font-size: 20px; font-weight: bold; margin: 0;"">Is there a person in this image?</p>
                    </div>
                </div>","0","main_experiment_trial","1","the_performance_causal","causal_sequence","","","","",""
"","","","","","html-keyboard-response","166","480315","0.0-166.0","7837F092ABDB4696B653011B7481CCF5","019cf065-efd9-75d4-b57e-25a23f38dc2a","019ceff9-9f67-7034-9722-02cda2445e09","","null","
                <div class=""stimulus-container"">
                    <img src=""images/causal_sequence/the_performance_causal/the_performance_causal_2.png"" class=""exp-image"">
                    <div class=""question-area""></div> 
                </div>","null","","","","","","","","",""
"","","","","","html-button-response","167","481759","0.0-167.0","7837F092ABDB4696B653011B7481CCF5","019cf065-efd9-75d4-b57e-25a23f38dc2a","019ceff9-9f67-7034-9722-02cda2445e09","","1442","
                <div class=""stimulus-container"">
                    <img src=""images/causal_sequence/the_performance_causal/the_performance_causal_2.png"" class=""exp-image"">
                    <div class=""question-area"">
                        <p style=""font-size: 20px; font-weight: bold; margin: 0;"">Is there a person in this image?</p>
                    </div>
                </div>","0","main_experiment_trial","2","the_performance_causal","causal_sequence","","","","",""
"","","","","","html-keyboard-response","168","486761","0.0-168.0","7837F092ABDB4696B653011B7481CCF5","019cf065-efd9-75d4-b57e-25a23f38dc2a","019ceff9-9f67-7034-9722-02cda2445e09","","null","
                <div class=""stimulus-container"">
                    <img src=""images/causal_sequence/the_performance_causal/the_performance_causal_3.png"" class=""exp-image"">
                    <div class=""question-area""></div> 
                </div>","null","","","","","","","","",""
"","","","","","html-button-response","169","488187","0.0-169.0","7837F092ABDB4696B653011B7481CCF5","019cf065-efd9-75d4-b57e-25a23f38dc2a","019ceff9-9f67-7034-9722-02cda2445e09","","1424","
                <div class=""stimulus-container"">
                    <img src=""images/causal_sequence/the_performance_causal/the_performance_causal_3.png"" class=""exp-image"">
                    <div class=""question-area"">
                        <p style=""font-size: 20px; font-weight: bold; margin: 0;"">Is there a person in this image?</p>
                    </div>
                </div>","0","main_experiment_trial","3","the_performance_causal","causal_sequence","","","","",""
"","","","","","html-keyboard-response","170","493188","0.0-170.0","7837F092ABDB4696B653011B7481CCF5","019cf065-efd9-75d4-b57e-25a23f38dc2a","019ceff9-9f67-7034-9722-02cda2445e09","","null","
                <div class=""stimulus-container"">
                    <img src=""images/causal_sequence/the_performance_causal/the_performance_causal_4.png"" class=""exp-image"">
                    <div class=""question-area""></div> 
                </div>","null","","","","","","","","",""
"","","","","","html-button-response","171","494150","0.0-171.0","7837F092ABDB4696B653011B7481CCF5","019cf065-efd9-75d4-b57e-25a23f38dc2a","019ceff9-9f67-7034-9722-02cda2445e09","","961","
                <div class=""stimulus-container"">
                    <img src=""images/causal_sequence/the_performance_causal/the_performance_causal_4.png"" class=""exp-image"">
                    <div class=""question-area"">
                        <p style=""font-size: 20px; font-weight: bold; margin: 0;"">Is there a person in this image?</p>
                    </div>
                </div>","0","main_experiment_trial","4","the_performance_causal","causal_sequence","","","","",""
"","","","","","html-keyboard-response","172","499152","0.0-172.0","7837F092ABDB4696B653011B7481CCF5","019cf065-efd9-75d4-b57e-25a23f38dc2a","019ceff9-9f67-7034-9722-02cda2445e09","","null","
                <div class=""stimulus-container"">
                    <img src=""images/causal_sequence/the_performance_causal/the_performance_causal_5.png"" class=""exp-image"">
                    <div class=""question-area""></div> 
                </div>","null","","","","","","","","",""
"","","","","","html-button-response","173","500157","0.0-173.0","7837F092ABDB4696B653011B7481CCF5","019cf065-efd9-75d4-b57e-25a23f38dc2a","019ceff9-9f67-7034-9722-02cda2445e09","","1003","
                <div class=""stimulus-container"">
                    <img src=""images/causal_sequence/the_performance_causal/the_performance_causal_5.png"" class=""exp-image"">
                    <div class=""question-area"">
                        <p style=""font-size: 20px; font-weight: bold; margin: 0;"">Is there a person in this image?</p>
                    </div>
                </div>","0","main_experiment_trial","5","the_performance_causal","causal_sequence","","","","",""
"","","","","","html-keyboard-response","174","505159","0.0-174.0","7837F092ABDB4696B653011B7481CCF5","019cf065-efd9-75d4-b57e-25a23f38dc2a","019ceff9-9f67-7034-9722-02cda2445e09","","null","
                <div class=""stimulus-container"">
                    <img src=""images/causal_sequence/the_performance_causal/the_performance_causal_6.png"" class=""exp-image"">
                    <div class=""question-area""></div> 
                </div>","null","","","","","","","","",""
"","","","","","html-button-response","175","505953","0.0-175.0","7837F092ABDB4696B653011B7481CCF5","019cf065-efd9-75d4-b57e-25a23f38dc2a","019ceff9-9f67-7034-9722-02cda2445e09","","791","
                <div class=""stimulus-container"">
                    <img src=""images/causal_sequence/the_performance_causal/the_performance_causal_6.png"" class=""exp-image"">
                    <div class=""question-area"">
                        <p style=""font-size: 20px; font-weight: bold; margin: 0;"">Is there a person in this image?</p>
                    </div>
                </div>","0","main_experiment_trial","6","the_performance_causal","causal_sequence","","","","",""
"","","","","","html-keyboard-response","176","510954","0.0-176.0","7837F092ABDB4696B653011B7481CCF5","019cf065-efd9-75d4-b57e-25a23f38dc2a","019ceff9-9f67-7034-9722-02cda2445e09","","null","
                <div class=""stimulus-container"">
                    <img src=""images/causal_sequence/the_performance_causal/the_performance_causal_7.png"" class=""exp-image"">
                    <div class=""question-area""></div> 
                </div>","null","","","","","","","","",""
"","","","","","html-button-response","177","511959","0.0-177.0","7837F092ABDB4696B653011B7481CCF5","019cf065-efd9-75d4-b57e-25a23f38dc2a","019ceff9-9f67-7034-9722-02cda2445e09","","1003","
                <div class=""stimulus-container"">
                    <img src=""images/causal_sequence/the_performance_causal/the_performance_causal_7.png"" class=""exp-image"">
                    <div class=""question-area"">
                        <p style=""font-size: 20px; font-weight: bold; margin: 0;"">Is there a person in this image?</p>
                    </div>
                </div>","0","main_experiment_trial","7","the_performance_causal","causal_sequence","","","","",""
"","","","","","html-keyboard-response","178","516962","0.0-178.0","7837F092ABDB4696B653011B7481CCF5","019cf065-efd9-75d4-b57e-25a23f38dc2a","019ceff9-9f67-7034-9722-02cda2445e09","","null","
                <div class=""stimulus-container"">
                    <img src=""images/causal_sequence/the_performance_causal/the_performance_causal_8.png"" class=""exp-image"">
                    <div class=""question-area""></div> 
                </div>","null","","","","","","","","",""
"","","","","","html-button-response","179","517514","0.0-179.0","7837F092ABDB4696B653011B7481CCF5","019cf065-efd9-75d4-b57e-25a23f38dc2a","019ceff9-9f67-7034-9722-02cda2445e09","","552","
                <div class=""stimulus-container"">
                    <img src=""images/causal_sequence/the_performance_causal/the_performance_causal_8.png"" class=""exp-image"">
                    <div class=""question-area"">
                        <p style=""font-size: 20px; font-weight: bold; margin: 0;"">Is there a person in this image?</p>
                    </div>
                </div>","0","main_experiment_trial","8","the_performance_causal","causal_sequence","","","","",""
"","","","","","html-keyboard-response","180","522516","0.0-180.0","7837F092ABDB4696B653011B7481CCF5","019cf065-efd9-75d4-b57e-25a23f38dc2a","019ceff9-9f67-7034-9722-02cda2445e09","","null","
                <div class=""stimulus-container"">
                    <img src=""images/causal_sequence/the_performance_causal/the_performance_causal_9.png"" class=""exp-image"">
                    <div class=""question-area""></div> 
                </div>","null","","","","","","","","",""
"","","","","","html-button-response","181","522920","0.0-181.0","7837F092ABDB4696B653011B7481CCF5","019cf065-efd9-75d4-b57e-25a23f38dc2a","019ceff9-9f67-7034-9722-02cda2445e09","","403","
                <div class=""stimulus-container"">
                    <img src=""images/causal_sequence/the_performance_causal/the_performance_causal_9.png"" class=""exp-image"">
                    <div class=""question-area"">
                        <p style=""font-size: 20px; font-weight: bold; margin: 0;"">Is there a person in this image?</p>
                    </div>
                </div>","0","main_experiment_trial","9","the_performance_causal","causal_sequence","","","","",""
"","","","","","html-keyboard-response","182","527922","0.0-182.0","7837F092ABDB4696B653011B7481CCF5","019cf065-efd9-75d4-b57e-25a23f38dc2a","019ceff9-9f67-7034-9722-02cda2445e09","","null","
                <div class=""stimulus-container"">
                    <img src=""images/causal_sequence/the_performance_causal/the_performance_causal_ten.png"" class=""exp-image"">
                    <div class=""question-area""></div> 
                </div>","null","","","","","","","","",""
"","","","","","html-button-response","183","528606","0.0-183.0","7837F092ABDB4696B653011B7481CCF5","019cf065-efd9-75d4-b57e-25a23f38dc2a","019ceff9-9f67-7034-9722-02cda2445e09","","682","
                <div class=""stimulus-container"">
                    <img src=""images/causal_sequence/the_performance_causal/the_performance_causal_ten.png"" class=""exp-image"">
                    <div class=""question-area"">
                        <p style=""font-size: 20px; font-weight: bold; margin: 0;"">Is there a person in this image?</p>
                    </div>
                </div>","0","main_experiment_trial","ten","the_performance_causal","causal_sequence","","","","",""
