"success","timeout","failed_images","failed_audio","failed_video","trial_type","trial_index","time_elapsed","internal_node_id","subject_id","study_id","session_id","view_history","rt","stimulus","response","task","image_index","folder","sequence_type","valuable_image_index","reward_type","chosen_image_index","target_X","correct_choice"
"true","false","[]","[]","[]","preload","0","41224","0.0-0.0","0B40E708E84D44ED847F0DF4AB406A30","019cf861-ce21-7fe2-bf87-9cffe60f3c8c","019cf855-66fc-7d76-a612-8313d2c5c123","","","","","","","","","","","","",""
"","","","","","instructions","1","58191","0.0-1.0","0B40E708E84D44ED847F0DF4AB406A30","019cf861-ce21-7fe2-bf87-9cffe60f3c8c","019cf855-66fc-7d76-a612-8313d2c5c123","[{""page_index"":0,""viewing_time"":16967}]","16967","","","","","","","","","","",""
"","","","","","instructions","2","61090","0.0-2.0","0B40E708E84D44ED847F0DF4AB406A30","019cf861-ce21-7fe2-bf87-9cffe60f3c8c","019cf855-66fc-7d76-a612-8313d2c5c123","[{""page_index"":0,""viewing_time"":2898}]","2898","","","","","","","","","","",""
"true","","","","","fullscreen","3","63445","0.0-3.0","0B40E708E84D44ED847F0DF4AB406A30","019cf861-ce21-7fe2-bf87-9cffe60f3c8c","019cf855-66fc-7d76-a612-8313d2c5c123","","1351","","","","","","","","","","",""
"","","","","","instructions","4","68259","0.0-4.0","0B40E708E84D44ED847F0DF4AB406A30","019cf861-ce21-7fe2-bf87-9cffe60f3c8c","019cf855-66fc-7d76-a612-8313d2c5c123","[{""page_index"":0,""viewing_time"":4813}]","4813","","","","","","","","","","",""
"","","","","","instructions","5","73077","0.0-5.0","0B40E708E84D44ED847F0DF4AB406A30","019cf861-ce21-7fe2-bf87-9cffe60f3c8c","019cf855-66fc-7d76-a612-8313d2c5c123","[{""page_index"":0,""viewing_time"":4817}]","4818","","","","","","","","","","",""
"","","","","","html-keyboard-response","6","77081","0.0-6.0","0B40E708E84D44ED847F0DF4AB406A30","019cf861-ce21-7fe2-bf87-9cffe60f3c8c","019cf855-66fc-7d76-a612-8313d2c5c123","","null","
                <div class=""stimulus-container"">
                    <img src=""images/instructions/movie_1.png"" class=""exp-image"">
                    <div class=""question-area""></div> 
                </div>","null","","","","","","","","",""
"","","","","","html-button-response","7","79159","0.0-7.0","0B40E708E84D44ED847F0DF4AB406A30","019cf861-ce21-7fe2-bf87-9cffe60f3c8c","019cf855-66fc-7d76-a612-8313d2c5c123","","2075","
                <div class=""stimulus-container"">
                    <img src=""images/instructions/movie_1.png"" class=""exp-image"">
                    <div class=""question-area"">
                        <p style=""font-size: 20px; font-weight: bold; margin: 0;"">Was there a person in this image?</p>
                    </div>
                </div>","0","example_question","1","","","","","","",""
"","","","","","html-keyboard-response","8","83161","0.0-8.0","0B40E708E84D44ED847F0DF4AB406A30","019cf861-ce21-7fe2-bf87-9cffe60f3c8c","019cf855-66fc-7d76-a612-8313d2c5c123","","null","
                <div class=""stimulus-container"">
                    <img src=""images/instructions/movie_2.png"" class=""exp-image"">
                    <div class=""question-area""></div> 
                </div>","null","","","","","","","","",""
"","","","","","html-button-response","9","83759","0.0-9.0","0B40E708E84D44ED847F0DF4AB406A30","019cf861-ce21-7fe2-bf87-9cffe60f3c8c","019cf855-66fc-7d76-a612-8313d2c5c123","","596","
                <div class=""stimulus-container"">
                    <img src=""images/instructions/movie_2.png"" class=""exp-image"">
                    <div class=""question-area"">
                        <p style=""font-size: 20px; font-weight: bold; margin: 0;"">Was there a person in this image?</p>
                    </div>
                </div>","0","example_question","2","","","","","","",""
"","","","","","html-keyboard-response","10","87762","0.0-10.0","0B40E708E84D44ED847F0DF4AB406A30","019cf861-ce21-7fe2-bf87-9cffe60f3c8c","019cf855-66fc-7d76-a612-8313d2c5c123","","null","
                <div class=""stimulus-container"">
                    <img src=""images/instructions/movie_3.png"" class=""exp-image"">
                    <div class=""question-area""></div> 
                </div>","null","","","","","","","","",""
"","","","","","html-button-response","11","88259","0.0-11.0","0B40E708E84D44ED847F0DF4AB406A30","019cf861-ce21-7fe2-bf87-9cffe60f3c8c","019cf855-66fc-7d76-a612-8313d2c5c123","","495","
                <div class=""stimulus-container"">
                    <img src=""images/instructions/movie_3.png"" class=""exp-image"">
                    <div class=""question-area"">
                        <p style=""font-size: 20px; font-weight: bold; margin: 0;"">Was there a person in this image?</p>
                    </div>
                </div>","0","example_question","3","","","","","","",""
"","","","","","html-keyboard-response","12","92262","0.0-12.0","0B40E708E84D44ED847F0DF4AB406A30","019cf861-ce21-7fe2-bf87-9cffe60f3c8c","019cf855-66fc-7d76-a612-8313d2c5c123","","null","
                <div class=""stimulus-container"">
                    <img src=""images/instructions/movie_4.png"" class=""exp-image"">
                    <div class=""question-area""></div> 
                </div>","null","","","","","","","","",""
"","","","","","html-button-response","13","92715","0.0-13.0","0B40E708E84D44ED847F0DF4AB406A30","019cf861-ce21-7fe2-bf87-9cffe60f3c8c","019cf855-66fc-7d76-a612-8313d2c5c123","","453","
                <div class=""stimulus-container"">
                    <img src=""images/instructions/movie_4.png"" class=""exp-image"">
                    <div class=""question-area"">
                        <p style=""font-size: 20px; font-weight: bold; margin: 0;"">Was there a person in this image?</p>
                    </div>
                </div>","0","example_question","4","","","","","","",""
"","","","","","instructions","14","94009","0.0-14.0","0B40E708E84D44ED847F0DF4AB406A30","019cf861-ce21-7fe2-bf87-9cffe60f3c8c","019cf855-66fc-7d76-a612-8313d2c5c123","[{""page_index"":0,""viewing_time"":1293}]","1294","","","","","","","","","","",""
"","","","","","instructions","15","97076","0.0-15.0","0B40E708E84D44ED847F0DF4AB406A30","019cf861-ce21-7fe2-bf87-9cffe60f3c8c","019cf855-66fc-7d76-a612-8313d2c5c123","[{""page_index"":0,""viewing_time"":3066}]","3066","","","","","","","","","","",""
"","","","","","html-keyboard-response","16","98079","0.0-16.0","0B40E708E84D44ED847F0DF4AB406A30","019cf861-ce21-7fe2-bf87-9cffe60f3c8c","019cf855-66fc-7d76-a612-8313d2c5c123","","null","<div style=""background-color: white; width: 100vw; height: 100vh;""></div>","null","","","","","","","","",""
"","","","","","html-keyboard-response","17","103082","0.0-17.0","0B40E708E84D44ED847F0DF4AB406A30","019cf861-ce21-7fe2-bf87-9cffe60f3c8c","019cf855-66fc-7d76-a612-8313d2c5c123","","null","
                <div class=""stimulus-container"">
                    <img src=""images/schematic_sequence/hotel_scheme/hotel_scheme_1.png"" class=""exp-image"">
                    <div class=""question-area""></div> 
                </div>","null","","","","","","","","",""
"","","","","","html-button-response","18","103792","0.0-18.0","0B40E708E84D44ED847F0DF4AB406A30","019cf861-ce21-7fe2-bf87-9cffe60f3c8c","019cf855-66fc-7d76-a612-8313d2c5c123","","708","
                <div class=""stimulus-container"">
                    <img src=""images/schematic_sequence/hotel_scheme/hotel_scheme_1.png"" class=""exp-image"">
                    <div class=""question-area"">
                        <p style=""font-size: 20px; font-weight: bold; margin: 0;"">Is there a person in this image?</p>
                    </div>
                </div>","1","main_experiment_trial","1","hotel_scheme","schematic_sequence","","","","",""
"","","","","","html-keyboard-response","19","108794","0.0-19.0","0B40E708E84D44ED847F0DF4AB406A30","019cf861-ce21-7fe2-bf87-9cffe60f3c8c","019cf855-66fc-7d76-a612-8313d2c5c123","","null","
                <div class=""stimulus-container"">
                    <img src=""images/schematic_sequence/hotel_scheme/hotel_scheme_2.png"" class=""exp-image"">
                    <div class=""question-area""></div> 
                </div>","null","","","","","","","","",""
"","","","","","html-button-response","20","109309","0.0-20.0","0B40E708E84D44ED847F0DF4AB406A30","019cf861-ce21-7fe2-bf87-9cffe60f3c8c","019cf855-66fc-7d76-a612-8313d2c5c123","","513","
                <div class=""stimulus-container"">
                    <img src=""images/schematic_sequence/hotel_scheme/hotel_scheme_2.png"" class=""exp-image"">
                    <div class=""question-area"">
                        <p style=""font-size: 20px; font-weight: bold; margin: 0;"">Is there a person in this image?</p>
                    </div>
                </div>","0","main_experiment_trial","2","hotel_scheme","schematic_sequence","","","","",""
"","","","","","html-keyboard-response","21","114311","0.0-21.0","0B40E708E84D44ED847F0DF4AB406A30","019cf861-ce21-7fe2-bf87-9cffe60f3c8c","019cf855-66fc-7d76-a612-8313d2c5c123","","null","
                <div class=""stimulus-container"">
                    <img src=""images/schematic_sequence/hotel_scheme/hotel_scheme_3.png"" class=""exp-image"">
                    <div class=""question-area""></div> 
                </div>","null","","","","","","","","",""
"","","","","","html-button-response","22","114725","0.0-22.0","0B40E708E84D44ED847F0DF4AB406A30","019cf861-ce21-7fe2-bf87-9cffe60f3c8c","019cf855-66fc-7d76-a612-8313d2c5c123","","412","
                <div class=""stimulus-container"">
                    <img src=""images/schematic_sequence/hotel_scheme/hotel_scheme_3.png"" class=""exp-image"">
                    <div class=""question-area"">
                        <p style=""font-size: 20px; font-weight: bold; margin: 0;"">Is there a person in this image?</p>
                    </div>
                </div>","0","main_experiment_trial","3","hotel_scheme","schematic_sequence","","","","",""
"","","","","","html-keyboard-response","23","119727","0.0-23.0","0B40E708E84D44ED847F0DF4AB406A30","019cf861-ce21-7fe2-bf87-9cffe60f3c8c","019cf855-66fc-7d76-a612-8313d2c5c123","","null","
                <div class=""stimulus-container"">
                    <img src=""images/schematic_sequence/hotel_scheme/hotel_scheme_4.png"" class=""exp-image"">
                    <div class=""question-area""></div> 
                </div>","null","","","","","","","","",""
"","","","","","html-button-response","24","120208","0.0-24.0","0B40E708E84D44ED847F0DF4AB406A30","019cf861-ce21-7fe2-bf87-9cffe60f3c8c","019cf855-66fc-7d76-a612-8313d2c5c123","","478","
                <div class=""stimulus-container"">
                    <img src=""images/schematic_sequence/hotel_scheme/hotel_scheme_4.png"" class=""exp-image"">
                    <div class=""question-area"">
                        <p style=""font-size: 20px; font-weight: bold; margin: 0;"">Is there a person in this image?</p>
                    </div>
                </div>","1","main_experiment_trial","4","hotel_scheme","schematic_sequence","","","","",""
"","","","","","html-keyboard-response","25","125211","0.0-25.0","0B40E708E84D44ED847F0DF4AB406A30","019cf861-ce21-7fe2-bf87-9cffe60f3c8c","019cf855-66fc-7d76-a612-8313d2c5c123","","null","
                <div class=""stimulus-container"">
                    <img src=""images/schematic_sequence/hotel_scheme/hotel_scheme_5.png"" class=""exp-image"">
                    <div class=""question-area""></div> 
                </div>","null","","","","","","","","",""
"","","","","","html-button-response","26","125758","0.0-26.0","0B40E708E84D44ED847F0DF4AB406A30","019cf861-ce21-7fe2-bf87-9cffe60f3c8c","019cf855-66fc-7d76-a612-8313d2c5c123","","546","
                <div class=""stimulus-container"">
                    <img src=""images/schematic_sequence/hotel_scheme/hotel_scheme_5.png"" class=""exp-image"">
                    <div class=""question-area"">
                        <p style=""font-size: 20px; font-weight: bold; margin: 0;"">Is there a person in this image?</p>
                    </div>
                </div>","0","main_experiment_trial","5","hotel_scheme","schematic_sequence","","","","",""
"","","","","","html-keyboard-response","27","130761","0.0-27.0","0B40E708E84D44ED847F0DF4AB406A30","019cf861-ce21-7fe2-bf87-9cffe60f3c8c","019cf855-66fc-7d76-a612-8313d2c5c123","","null","
                <div class=""stimulus-container"">
                    <img src=""images/schematic_sequence/hotel_scheme/hotel_scheme_6.png"" class=""exp-image"">
                    <div class=""question-area""></div> 
                </div>","null","","","","","","","","",""
"","","","","","html-button-response","28","131774","0.0-28.0","0B40E708E84D44ED847F0DF4AB406A30","019cf861-ce21-7fe2-bf87-9cffe60f3c8c","019cf855-66fc-7d76-a612-8313d2c5c123","","1010","
                <div class=""stimulus-container"">
                    <img src=""images/schematic_sequence/hotel_scheme/hotel_scheme_6.png"" class=""exp-image"">
                    <div class=""question-area"">
                        <p style=""font-size: 20px; font-weight: bold; margin: 0;"">Is there a person in this image?</p>
                    </div>
                </div>","0","main_experiment_trial","6","hotel_scheme","schematic_sequence","","","","",""
"","","","","","html-keyboard-response","29","136775","0.0-29.0","0B40E708E84D44ED847F0DF4AB406A30","019cf861-ce21-7fe2-bf87-9cffe60f3c8c","019cf855-66fc-7d76-a612-8313d2c5c123","","null","
                <div class=""stimulus-container"">
                    <img src=""images/schematic_sequence/hotel_scheme/hotel_scheme_7.png"" class=""exp-image"">
                    <div class=""question-area""></div> 
                </div>","null","","","","","","","","",""
"","","","","","html-button-response","30","137675","0.0-30.0","0B40E708E84D44ED847F0DF4AB406A30","019cf861-ce21-7fe2-bf87-9cffe60f3c8c","019cf855-66fc-7d76-a612-8313d2c5c123","","897","
                <div class=""stimulus-container"">
                    <img src=""images/schematic_sequence/hotel_scheme/hotel_scheme_7.png"" class=""exp-image"">
                    <div class=""question-area"">
                        <p style=""font-size: 20px; font-weight: bold; margin: 0;"">Is there a person in this image?</p>
                    </div>
                </div>","0","main_experiment_trial","7","hotel_scheme","schematic_sequence","","","","",""
"","","","","","html-keyboard-response","31","142678","0.0-31.0","0B40E708E84D44ED847F0DF4AB406A30","019cf861-ce21-7fe2-bf87-9cffe60f3c8c","019cf855-66fc-7d76-a612-8313d2c5c123","","null","
                <div class=""stimulus-container"">
                    <img src=""images/schematic_sequence/hotel_scheme/hotel_scheme_8.png"" class=""exp-image"">
                    <div class=""question-area""></div> 
                </div>","null","","","","","","","","",""
"","","","","","html-button-response","32","143311","0.0-32.0","0B40E708E84D44ED847F0DF4AB406A30","019cf861-ce21-7fe2-bf87-9cffe60f3c8c","019cf855-66fc-7d76-a612-8313d2c5c123","","631","
                <div class=""stimulus-container"">
                    <img src=""images/schematic_sequence/hotel_scheme/hotel_scheme_8.png"" class=""exp-image"">
                    <div class=""question-area"">
                        <p style=""font-size: 20px; font-weight: bold; margin: 0;"">Is there a person in this image?</p>
                    </div>
                </div>","0","main_experiment_trial","8","hotel_scheme","schematic_sequence","","","","",""
"","","","","","html-keyboard-response","33","148314","0.0-33.0","0B40E708E84D44ED847F0DF4AB406A30","019cf861-ce21-7fe2-bf87-9cffe60f3c8c","019cf855-66fc-7d76-a612-8313d2c5c123","","null","
                <div class=""stimulus-container"">
                    <img src=""images/schematic_sequence/hotel_scheme/hotel_scheme_9.png"" class=""exp-image"">
                    <div class=""question-area""></div> 
                </div>","null","","","","","","","","",""
"","","","","","html-button-response","34","150560","0.0-34.0","0B40E708E84D44ED847F0DF4AB406A30","019cf861-ce21-7fe2-bf87-9cffe60f3c8c","019cf855-66fc-7d76-a612-8313d2c5c123","","2244","
                <div class=""stimulus-container"">
                    <img src=""images/schematic_sequence/hotel_scheme/hotel_scheme_9.png"" class=""exp-image"">
                    <div class=""question-area"">
                        <p style=""font-size: 20px; font-weight: bold; margin: 0;"">Is there a person in this image?</p>
                    </div>
                </div>","0","main_experiment_trial","9","hotel_scheme","schematic_sequence","","","","",""
"","","","","","html-keyboard-response","35","155563","0.0-35.0","0B40E708E84D44ED847F0DF4AB406A30","019cf861-ce21-7fe2-bf87-9cffe60f3c8c","019cf855-66fc-7d76-a612-8313d2c5c123","","null","
                <div class=""stimulus-container"">
                    <img src=""images/schematic_sequence/hotel_scheme/hotel_scheme_ten.png"" class=""exp-image"">
                    <div class=""question-area""></div> 
                </div>","null","","","","","","","","",""
"","","","","","html-button-response","36","156493","0.0-36.0","0B40E708E84D44ED847F0DF4AB406A30","019cf861-ce21-7fe2-bf87-9cffe60f3c8c","019cf855-66fc-7d76-a612-8313d2c5c123","","928","
                <div class=""stimulus-container"">
                    <img src=""images/schematic_sequence/hotel_scheme/hotel_scheme_ten.png"" class=""exp-image"">
                    <div class=""question-area"">
                        <p style=""font-size: 20px; font-weight: bold; margin: 0;"">Is there a person in this image?</p>
                    </div>
                </div>","0","main_experiment_trial","ten","hotel_scheme","schematic_sequence","","","","",""
"","","","","","html-keyboard-response","37","157495","0.0-37.0","0B40E708E84D44ED847F0DF4AB406A30","019cf861-ce21-7fe2-bf87-9cffe60f3c8c","019cf855-66fc-7d76-a612-8313d2c5c123","","null","<div style=""background-color: white; width: 100vw; height: 100vh;""></div>","null","","","","","","","","",""
"","","","","","html-keyboard-response","38","162498","0.0-38.0","0B40E708E84D44ED847F0DF4AB406A30","019cf861-ce21-7fe2-bf87-9cffe60f3c8c","019cf855-66fc-7d76-a612-8313d2c5c123","","null","
                <div class=""stimulus-container"">
                    <img src=""images/semantic_sequence/housework_semantic/housework_semantic_1.png"" class=""exp-image"">
                    <div class=""question-area""></div> 
                </div>","null","","","","","","","","",""
"","","","","","html-button-response","39","164871","0.0-39.0","0B40E708E84D44ED847F0DF4AB406A30","019cf861-ce21-7fe2-bf87-9cffe60f3c8c","019cf855-66fc-7d76-a612-8313d2c5c123","","2373","
                <div class=""stimulus-container"">
                    <img src=""images/semantic_sequence/housework_semantic/housework_semantic_1.png"" class=""exp-image"">
                    <div class=""question-area"">
                        <p style=""font-size: 20px; font-weight: bold; margin: 0;"">Is there a person in this image?</p>
                    </div>
                </div>","0","main_experiment_trial","1","housework_semantic","semantic_sequence","","","","",""
"","","","","","html-keyboard-response","40","169873","0.0-40.0","0B40E708E84D44ED847F0DF4AB406A30","019cf861-ce21-7fe2-bf87-9cffe60f3c8c","019cf855-66fc-7d76-a612-8313d2c5c123","","null","
                <div class=""stimulus-container"">
                    <img src=""images/semantic_sequence/housework_semantic/housework_semantic_2.png"" class=""exp-image"">
                    <div class=""question-area""></div> 
                </div>","null","","","","","","","","",""
"","","","","","html-button-response","41","172412","0.0-41.0","0B40E708E84D44ED847F0DF4AB406A30","019cf861-ce21-7fe2-bf87-9cffe60f3c8c","019cf855-66fc-7d76-a612-8313d2c5c123","","2537","
                <div class=""stimulus-container"">
                    <img src=""images/semantic_sequence/housework_semantic/housework_semantic_2.png"" class=""exp-image"">
                    <div class=""question-area"">
                        <p style=""font-size: 20px; font-weight: bold; margin: 0;"">Is there a person in this image?</p>
                    </div>
                </div>","0","main_experiment_trial","2","housework_semantic","semantic_sequence","","","","",""
"","","","","","html-keyboard-response","42","177414","0.0-42.0","0B40E708E84D44ED847F0DF4AB406A30","019cf861-ce21-7fe2-bf87-9cffe60f3c8c","019cf855-66fc-7d76-a612-8313d2c5c123","","null","
                <div class=""stimulus-container"">
                    <img src=""images/semantic_sequence/housework_semantic/housework_semantic_3.png"" class=""exp-image"">
                    <div class=""question-area""></div> 
                </div>","null","","","","","","","","",""
"","","","","","html-button-response","43","179059","0.0-43.0","0B40E708E84D44ED847F0DF4AB406A30","019cf861-ce21-7fe2-bf87-9cffe60f3c8c","019cf855-66fc-7d76-a612-8313d2c5c123","","1642","
                <div class=""stimulus-container"">
                    <img src=""images/semantic_sequence/housework_semantic/housework_semantic_3.png"" class=""exp-image"">
                    <div class=""question-area"">
                        <p style=""font-size: 20px; font-weight: bold; margin: 0;"">Is there a person in this image?</p>
                    </div>
                </div>","0","main_experiment_trial","3","housework_semantic","semantic_sequence","","","","",""
"","","","","","html-keyboard-response","44","184061","0.0-44.0","0B40E708E84D44ED847F0DF4AB406A30","019cf861-ce21-7fe2-bf87-9cffe60f3c8c","019cf855-66fc-7d76-a612-8313d2c5c123","","null","
                <div class=""stimulus-container"">
                    <img src=""images/semantic_sequence/housework_semantic/housework_semantic_4.png"" class=""exp-image"">
                    <div class=""question-area""></div> 
                </div>","null","","","","","","","","",""
"","","","","","html-button-response","45","185907","0.0-45.0","0B40E708E84D44ED847F0DF4AB406A30","019cf861-ce21-7fe2-bf87-9cffe60f3c8c","019cf855-66fc-7d76-a612-8313d2c5c123","","1844","
                <div class=""stimulus-container"">
                    <img src=""images/semantic_sequence/housework_semantic/housework_semantic_4.png"" class=""exp-image"">
                    <div class=""question-area"">
                        <p style=""font-size: 20px; font-weight: bold; margin: 0;"">Is there a person in this image?</p>
                    </div>
                </div>","0","main_experiment_trial","4","housework_semantic","semantic_sequence","","","","",""
"","","","","","html-keyboard-response","46","190909","0.0-46.0","0B40E708E84D44ED847F0DF4AB406A30","019cf861-ce21-7fe2-bf87-9cffe60f3c8c","019cf855-66fc-7d76-a612-8313d2c5c123","","null","
                <div class=""stimulus-container"">
                    <img src=""images/semantic_sequence/housework_semantic/housework_semantic_5.png"" class=""exp-image"">
                    <div class=""question-area""></div> 
                </div>","null","","","","","","","","",""
"","","","","","html-button-response","47","192076","0.0-47.0","0B40E708E84D44ED847F0DF4AB406A30","019cf861-ce21-7fe2-bf87-9cffe60f3c8c","019cf855-66fc-7d76-a612-8313d2c5c123","","1166","
                <div class=""stimulus-container"">
                    <img src=""images/semantic_sequence/housework_semantic/housework_semantic_5.png"" class=""exp-image"">
                    <div class=""question-area"">
                        <p style=""font-size: 20px; font-weight: bold; margin: 0;"">Is there a person in this image?</p>
                    </div>
                </div>","0","main_experiment_trial","5","housework_semantic","semantic_sequence","","","","",""
"","","","","","html-keyboard-response","48","197078","0.0-48.0","0B40E708E84D44ED847F0DF4AB406A30","019cf861-ce21-7fe2-bf87-9cffe60f3c8c","019cf855-66fc-7d76-a612-8313d2c5c123","","null","
                <div class=""stimulus-container"">
                    <img src=""images/semantic_sequence/housework_semantic/housework_semantic_6.png"" class=""exp-image"">
                    <div class=""question-area""></div> 
                </div>","null","","","","","","","","",""
"","","","","","html-button-response","49","197610","0.0-49.0","0B40E708E84D44ED847F0DF4AB406A30","019cf861-ce21-7fe2-bf87-9cffe60f3c8c","019cf855-66fc-7d76-a612-8313d2c5c123","","529","
                <div class=""stimulus-container"">
                    <img src=""images/semantic_sequence/housework_semantic/housework_semantic_6.png"" class=""exp-image"">
                    <div class=""question-area"">
                        <p style=""font-size: 20px; font-weight: bold; margin: 0;"">Is there a person in this image?</p>
                    </div>
                </div>","0","main_experiment_trial","6","housework_semantic","semantic_sequence","","","","",""
"","","","","","html-keyboard-response","50","202611","0.0-50.0","0B40E708E84D44ED847F0DF4AB406A30","019cf861-ce21-7fe2-bf87-9cffe60f3c8c","019cf855-66fc-7d76-a612-8313d2c5c123","","null","
                <div class=""stimulus-container"">
                    <img src=""images/semantic_sequence/housework_semantic/housework_semantic_7.png"" class=""exp-image"">
                    <div class=""question-area""></div> 
                </div>","null","","","","","","","","",""
"","","","","","html-button-response","51","204323","0.0-51.0","0B40E708E84D44ED847F0DF4AB406A30","019cf861-ce21-7fe2-bf87-9cffe60f3c8c","019cf855-66fc-7d76-a612-8313d2c5c123","","1709","
                <div class=""stimulus-container"">
                    <img src=""images/semantic_sequence/housework_semantic/housework_semantic_7.png"" class=""exp-image"">
                    <div class=""question-area"">
                        <p style=""font-size: 20px; font-weight: bold; margin: 0;"">Is there a person in this image?</p>
                    </div>
                </div>","0","main_experiment_trial","7","housework_semantic","semantic_sequence","","","","",""
"","","","","","html-keyboard-response","52","209325","0.0-52.0","0B40E708E84D44ED847F0DF4AB406A30","019cf861-ce21-7fe2-bf87-9cffe60f3c8c","019cf855-66fc-7d76-a612-8313d2c5c123","","null","
                <div class=""stimulus-container"">
                    <img src=""images/semantic_sequence/housework_semantic/housework_semantic_8.png"" class=""exp-image"">
                    <div class=""question-area""></div> 
                </div>","null","","","","","","","","",""
"","","","","","html-button-response","53","210656","0.0-53.0","0B40E708E84D44ED847F0DF4AB406A30","019cf861-ce21-7fe2-bf87-9cffe60f3c8c","019cf855-66fc-7d76-a612-8313d2c5c123","","1330","
                <div class=""stimulus-container"">
                    <img src=""images/semantic_sequence/housework_semantic/housework_semantic_8.png"" class=""exp-image"">
                    <div class=""question-area"">
                        <p style=""font-size: 20px; font-weight: bold; margin: 0;"">Is there a person in this image?</p>
                    </div>
                </div>","0","main_experiment_trial","8","housework_semantic","semantic_sequence","","","","",""
"","","","","","html-keyboard-response","54","215658","0.0-54.0","0B40E708E84D44ED847F0DF4AB406A30","019cf861-ce21-7fe2-bf87-9cffe60f3c8c","019cf855-66fc-7d76-a612-8313d2c5c123","","null","
                <div class=""stimulus-container"">
                    <img src=""images/semantic_sequence/housework_semantic/housework_semantic_9.png"" class=""exp-image"">
                    <div class=""question-area""></div> 
                </div>","null","","","","","","","","",""
"","","","","","html-button-response","55","216926","0.0-55.0","0B40E708E84D44ED847F0DF4AB406A30","019cf861-ce21-7fe2-bf87-9cffe60f3c8c","019cf855-66fc-7d76-a612-8313d2c5c123","","1266","
                <div class=""stimulus-container"">
                    <img src=""images/semantic_sequence/housework_semantic/housework_semantic_9.png"" class=""exp-image"">
                    <div class=""question-area"">
                        <p style=""font-size: 20px; font-weight: bold; margin: 0;"">Is there a person in this image?</p>
                    </div>
                </div>","0","main_experiment_trial","9","housework_semantic","semantic_sequence","","","","",""
"","","","","","html-keyboard-response","56","221928","0.0-56.0","0B40E708E84D44ED847F0DF4AB406A30","019cf861-ce21-7fe2-bf87-9cffe60f3c8c","019cf855-66fc-7d76-a612-8313d2c5c123","","null","
                <div class=""stimulus-container"">
                    <img src=""images/semantic_sequence/housework_semantic/housework_semantic_ten.png"" class=""exp-image"">
                    <div class=""question-area""></div> 
                </div>","null","","","","","","","","",""
"","","","","","html-button-response","57","222444","0.0-57.0","0B40E708E84D44ED847F0DF4AB406A30","019cf861-ce21-7fe2-bf87-9cffe60f3c8c","019cf855-66fc-7d76-a612-8313d2c5c123","","514","
                <div class=""stimulus-container"">
                    <img src=""images/semantic_sequence/housework_semantic/housework_semantic_ten.png"" class=""exp-image"">
                    <div class=""question-area"">
                        <p style=""font-size: 20px; font-weight: bold; margin: 0;"">Is there a person in this image?</p>
                    </div>
                </div>","0","main_experiment_trial","ten","housework_semantic","semantic_sequence","","","","",""
"","","","","","html-keyboard-response","58","223446","0.0-58.0","0B40E708E84D44ED847F0DF4AB406A30","019cf861-ce21-7fe2-bf87-9cffe60f3c8c","019cf855-66fc-7d76-a612-8313d2c5c123","","null","<div style=""background-color: white; width: 100vw; height: 100vh;""></div>","null","","","","","","","","",""
"","","","","","html-keyboard-response","59","228448","0.0-59.0","0B40E708E84D44ED847F0DF4AB406A30","019cf861-ce21-7fe2-bf87-9cffe60f3c8c","019cf855-66fc-7d76-a612-8313d2c5c123","","null","
                <div class=""stimulus-container"">
                    <img src=""images/semantic_sequence/using_technology_semantic/using_technology_semantic_1.png"" class=""exp-image"">
                    <div class=""question-area""></div> 
                </div>","null","","","","","","","","",""
"","","","","","html-button-response","60","229075","0.0-60.0","0B40E708E84D44ED847F0DF4AB406A30","019cf861-ce21-7fe2-bf87-9cffe60f3c8c","019cf855-66fc-7d76-a612-8313d2c5c123","","626","
                <div class=""stimulus-container"">
                    <img src=""images/semantic_sequence/using_technology_semantic/using_technology_semantic_1.png"" class=""exp-image"">
                    <div class=""question-area"">
                        <p style=""font-size: 20px; font-weight: bold; margin: 0;"">Is there a person in this image?</p>
                    </div>
                </div>","0","main_experiment_trial","1","using_technology_semantic","semantic_sequence","","","","",""
"","","","","","html-keyboard-response","61","234077","0.0-61.0","0B40E708E84D44ED847F0DF4AB406A30","019cf861-ce21-7fe2-bf87-9cffe60f3c8c","019cf855-66fc-7d76-a612-8313d2c5c123","","null","
                <div class=""stimulus-container"">
                    <img src=""images/semantic_sequence/using_technology_semantic/using_technology_semantic_2.png"" class=""exp-image"">
                    <div class=""question-area""></div> 
                </div>","null","","","","","","","","",""
"","","","","","html-button-response","62","235008","0.0-62.0","0B40E708E84D44ED847F0DF4AB406A30","019cf861-ce21-7fe2-bf87-9cffe60f3c8c","019cf855-66fc-7d76-a612-8313d2c5c123","","930","
                <div class=""stimulus-container"">
                    <img src=""images/semantic_sequence/using_technology_semantic/using_technology_semantic_2.png"" class=""exp-image"">
                    <div class=""question-area"">
                        <p style=""font-size: 20px; font-weight: bold; margin: 0;"">Is there a person in this image?</p>
                    </div>
                </div>","0","main_experiment_trial","2","using_technology_semantic","semantic_sequence","","","","",""
"","","","","","html-keyboard-response","63","240010","0.0-63.0","0B40E708E84D44ED847F0DF4AB406A30","019cf861-ce21-7fe2-bf87-9cffe60f3c8c","019cf855-66fc-7d76-a612-8313d2c5c123","","null","
                <div class=""stimulus-container"">
                    <img src=""images/semantic_sequence/using_technology_semantic/using_technology_semantic_3.png"" class=""exp-image"">
                    <div class=""question-area""></div> 
                </div>","null","","","","","","","","",""
"","","","","","html-button-response","64","240491","0.0-64.0","0B40E708E84D44ED847F0DF4AB406A30","019cf861-ce21-7fe2-bf87-9cffe60f3c8c","019cf855-66fc-7d76-a612-8313d2c5c123","","479","
                <div class=""stimulus-container"">
                    <img src=""images/semantic_sequence/using_technology_semantic/using_technology_semantic_3.png"" class=""exp-image"">
                    <div class=""question-area"">
                        <p style=""font-size: 20px; font-weight: bold; margin: 0;"">Is there a person in this image?</p>
                    </div>
                </div>","0","main_experiment_trial","3","using_technology_semantic","semantic_sequence","","","","",""
"","","","","","html-keyboard-response","65","245493","0.0-65.0","0B40E708E84D44ED847F0DF4AB406A30","019cf861-ce21-7fe2-bf87-9cffe60f3c8c","019cf855-66fc-7d76-a612-8313d2c5c123","","null","
                <div class=""stimulus-container"">
                    <img src=""images/semantic_sequence/using_technology_semantic/using_technology_semantic_4.png"" class=""exp-image"">
                    <div class=""question-area""></div> 
                </div>","null","","","","","","","","",""
"","","","","","html-button-response","66","245896","0.0-66.0","0B40E708E84D44ED847F0DF4AB406A30","019cf861-ce21-7fe2-bf87-9cffe60f3c8c","019cf855-66fc-7d76-a612-8313d2c5c123","","400","
                <div class=""stimulus-container"">
                    <img src=""images/semantic_sequence/using_technology_semantic/using_technology_semantic_4.png"" class=""exp-image"">
                    <div class=""question-area"">
                        <p style=""font-size: 20px; font-weight: bold; margin: 0;"">Is there a person in this image?</p>
                    </div>
                </div>","0","main_experiment_trial","4","using_technology_semantic","semantic_sequence","","","","",""
"","","","","","html-keyboard-response","67","250898","0.0-67.0","0B40E708E84D44ED847F0DF4AB406A30","019cf861-ce21-7fe2-bf87-9cffe60f3c8c","019cf855-66fc-7d76-a612-8313d2c5c123","","null","
                <div class=""stimulus-container"">
                    <img src=""images/semantic_sequence/using_technology_semantic/using_technology_semantic_5.png"" class=""exp-image"">
                    <div class=""question-area""></div> 
                </div>","null","","","","","","","","",""
"","","","","","html-button-response","68","251392","0.0-68.0","0B40E708E84D44ED847F0DF4AB406A30","019cf861-ce21-7fe2-bf87-9cffe60f3c8c","019cf855-66fc-7d76-a612-8313d2c5c123","","492","
                <div class=""stimulus-container"">
                    <img src=""images/semantic_sequence/using_technology_semantic/using_technology_semantic_5.png"" class=""exp-image"">
                    <div class=""question-area"">
                        <p style=""font-size: 20px; font-weight: bold; margin: 0;"">Is there a person in this image?</p>
                    </div>
                </div>","0","main_experiment_trial","5","using_technology_semantic","semantic_sequence","","","","",""
"","","","","","html-keyboard-response","69","256393","0.0-69.0","0B40E708E84D44ED847F0DF4AB406A30","019cf861-ce21-7fe2-bf87-9cffe60f3c8c","019cf855-66fc-7d76-a612-8313d2c5c123","","null","
                <div class=""stimulus-container"">
                    <img src=""images/semantic_sequence/using_technology_semantic/using_technology_semantic_6.png"" class=""exp-image"">
                    <div class=""question-area""></div> 
                </div>","null","","","","","","","","",""
"","","","","","html-button-response","70","256858","0.0-70.0","0B40E708E84D44ED847F0DF4AB406A30","019cf861-ce21-7fe2-bf87-9cffe60f3c8c","019cf855-66fc-7d76-a612-8313d2c5c123","","463","
                <div class=""stimulus-container"">
                    <img src=""images/semantic_sequence/using_technology_semantic/using_technology_semantic_6.png"" class=""exp-image"">
                    <div class=""question-area"">
                        <p style=""font-size: 20px; font-weight: bold; margin: 0;"">Is there a person in this image?</p>
                    </div>
                </div>","0","main_experiment_trial","6","using_technology_semantic","semantic_sequence","","","","",""
"","","","","","html-keyboard-response","71","261860","0.0-71.0","0B40E708E84D44ED847F0DF4AB406A30","019cf861-ce21-7fe2-bf87-9cffe60f3c8c","019cf855-66fc-7d76-a612-8313d2c5c123","","null","
                <div class=""stimulus-container"">
                    <img src=""images/semantic_sequence/using_technology_semantic/using_technology_semantic_7.png"" class=""exp-image"">
                    <div class=""question-area""></div> 
                </div>","null","","","","","","","","",""
"","","","","","html-button-response","72","262307","0.0-72.0","0B40E708E84D44ED847F0DF4AB406A30","019cf861-ce21-7fe2-bf87-9cffe60f3c8c","019cf855-66fc-7d76-a612-8313d2c5c123","","445","
                <div class=""stimulus-container"">
                    <img src=""images/semantic_sequence/using_technology_semantic/using_technology_semantic_7.png"" class=""exp-image"">
                    <div class=""question-area"">
                        <p style=""font-size: 20px; font-weight: bold; margin: 0;"">Is there a person in this image?</p>
                    </div>
                </div>","0","main_experiment_trial","7","using_technology_semantic","semantic_sequence","","","","",""
"","","","","","html-keyboard-response","73","267309","0.0-73.0","0B40E708E84D44ED847F0DF4AB406A30","019cf861-ce21-7fe2-bf87-9cffe60f3c8c","019cf855-66fc-7d76-a612-8313d2c5c123","","null","
                <div class=""stimulus-container"">
                    <img src=""images/semantic_sequence/using_technology_semantic/using_technology_semantic_8.png"" class=""exp-image"">
                    <div class=""question-area""></div> 
                </div>","null","","","","","","","","",""
"","","","","","html-button-response","74","267760","0.0-74.0","0B40E708E84D44ED847F0DF4AB406A30","019cf861-ce21-7fe2-bf87-9cffe60f3c8c","019cf855-66fc-7d76-a612-8313d2c5c123","","448","
                <div class=""stimulus-container"">
                    <img src=""images/semantic_sequence/using_technology_semantic/using_technology_semantic_8.png"" class=""exp-image"">
                    <div class=""question-area"">
                        <p style=""font-size: 20px; font-weight: bold; margin: 0;"">Is there a person in this image?</p>
                    </div>
                </div>","0","main_experiment_trial","8","using_technology_semantic","semantic_sequence","","","","",""
"","","","","","html-keyboard-response","75","272763","0.0-75.0","0B40E708E84D44ED847F0DF4AB406A30","019cf861-ce21-7fe2-bf87-9cffe60f3c8c","019cf855-66fc-7d76-a612-8313d2c5c123","","null","
                <div class=""stimulus-container"">
                    <img src=""images/semantic_sequence/using_technology_semantic/using_technology_semantic_9.png"" class=""exp-image"">
                    <div class=""question-area""></div> 
                </div>","null","","","","","","","","",""
"","","","","","html-button-response","76","273195","0.0-76.0","0B40E708E84D44ED847F0DF4AB406A30","019cf861-ce21-7fe2-bf87-9cffe60f3c8c","019cf855-66fc-7d76-a612-8313d2c5c123","","430","
                <div class=""stimulus-container"">
                    <img src=""images/semantic_sequence/using_technology_semantic/using_technology_semantic_9.png"" class=""exp-image"">
                    <div class=""question-area"">
                        <p style=""font-size: 20px; font-weight: bold; margin: 0;"">Is there a person in this image?</p>
                    </div>
                </div>","0","main_experiment_trial","9","using_technology_semantic","semantic_sequence","","","","",""
"","","","","","html-keyboard-response","77","278197","0.0-77.0","0B40E708E84D44ED847F0DF4AB406A30","019cf861-ce21-7fe2-bf87-9cffe60f3c8c","019cf855-66fc-7d76-a612-8313d2c5c123","","null","
                <div class=""stimulus-container"">
                    <img src=""images/semantic_sequence/using_technology_semantic/using_technology_semantic_ten.png"" class=""exp-image"">
                    <div class=""question-area""></div> 
                </div>","null","","","","","","","","",""
"","","","","","html-button-response","78","278626","0.0-78.0","0B40E708E84D44ED847F0DF4AB406A30","019cf861-ce21-7fe2-bf87-9cffe60f3c8c","019cf855-66fc-7d76-a612-8313d2c5c123","","426","
                <div class=""stimulus-container"">
                    <img src=""images/semantic_sequence/using_technology_semantic/using_technology_semantic_ten.png"" class=""exp-image"">
                    <div class=""question-area"">
                        <p style=""font-size: 20px; font-weight: bold; margin: 0;"">Is there a person in this image?</p>
                    </div>
                </div>","0","main_experiment_trial","ten","using_technology_semantic","semantic_sequence","","","","",""
"","","","","","html-keyboard-response","79","279628","0.0-79.0","0B40E708E84D44ED847F0DF4AB406A30","019cf861-ce21-7fe2-bf87-9cffe60f3c8c","019cf855-66fc-7d76-a612-8313d2c5c123","","null","<div style=""background-color: white; width: 100vw; height: 100vh;""></div>","null","","","","","","","","",""
"","","","","","html-keyboard-response","80","284631","0.0-80.0","0B40E708E84D44ED847F0DF4AB406A30","019cf861-ce21-7fe2-bf87-9cffe60f3c8c","019cf855-66fc-7d76-a612-8313d2c5c123","","null","
                <div class=""stimulus-container"">
                    <img src=""images/schematic_sequence/interview_scheme/interview_scheme_1.png"" class=""exp-image"">
                    <div class=""question-area""></div> 
                </div>","null","","","","","","","","",""
"","","","","","html-button-response","81","285143","0.0-81.0","0B40E708E84D44ED847F0DF4AB406A30","019cf861-ce21-7fe2-bf87-9cffe60f3c8c","019cf855-66fc-7d76-a612-8313d2c5c123","","509","
                <div class=""stimulus-container"">
                    <img src=""images/schematic_sequence/interview_scheme/interview_scheme_1.png"" class=""exp-image"">
                    <div class=""question-area"">
                        <p style=""font-size: 20px; font-weight: bold; margin: 0;"">Is there a person in this image?</p>
                    </div>
                </div>","1","main_experiment_trial","1","interview_scheme","schematic_sequence","","","","",""
"","","","","","html-keyboard-response","82","290146","0.0-82.0","0B40E708E84D44ED847F0DF4AB406A30","019cf861-ce21-7fe2-bf87-9cffe60f3c8c","019cf855-66fc-7d76-a612-8313d2c5c123","","null","
                <div class=""stimulus-container"">
                    <img src=""images/schematic_sequence/interview_scheme/interview_scheme_2.png"" class=""exp-image"">
                    <div class=""question-area""></div> 
                </div>","null","","","","","","","","",""
"","","","","","html-button-response","83","290627","0.0-83.0","0B40E708E84D44ED847F0DF4AB406A30","019cf861-ce21-7fe2-bf87-9cffe60f3c8c","019cf855-66fc-7d76-a612-8313d2c5c123","","479","
                <div class=""stimulus-container"">
                    <img src=""images/schematic_sequence/interview_scheme/interview_scheme_2.png"" class=""exp-image"">
                    <div class=""question-area"">
                        <p style=""font-size: 20px; font-weight: bold; margin: 0;"">Is there a person in this image?</p>
                    </div>
                </div>","0","main_experiment_trial","2","interview_scheme","schematic_sequence","","","","",""
"","","","","","html-keyboard-response","84","295629","0.0-84.0","0B40E708E84D44ED847F0DF4AB406A30","019cf861-ce21-7fe2-bf87-9cffe60f3c8c","019cf855-66fc-7d76-a612-8313d2c5c123","","null","
                <div class=""stimulus-container"">
                    <img src=""images/schematic_sequence/interview_scheme/interview_scheme_3.png"" class=""exp-image"">
                    <div class=""question-area""></div> 
                </div>","null","","","","","","","","",""
"","","","","","html-button-response","85","296161","0.0-85.0","0B40E708E84D44ED847F0DF4AB406A30","019cf861-ce21-7fe2-bf87-9cffe60f3c8c","019cf855-66fc-7d76-a612-8313d2c5c123","","530","
                <div class=""stimulus-container"">
                    <img src=""images/schematic_sequence/interview_scheme/interview_scheme_3.png"" class=""exp-image"">
                    <div class=""question-area"">
                        <p style=""font-size: 20px; font-weight: bold; margin: 0;"">Is there a person in this image?</p>
                    </div>
                </div>","1","main_experiment_trial","3","interview_scheme","schematic_sequence","","","","",""
"","","","","","html-keyboard-response","86","301164","0.0-86.0","0B40E708E84D44ED847F0DF4AB406A30","019cf861-ce21-7fe2-bf87-9cffe60f3c8c","019cf855-66fc-7d76-a612-8313d2c5c123","","null","
                <div class=""stimulus-container"">
                    <img src=""images/schematic_sequence/interview_scheme/interview_scheme_4.png"" class=""exp-image"">
                    <div class=""question-area""></div> 
                </div>","null","","","","","","","","",""
"","","","","","html-button-response","87","301576","0.0-87.0","0B40E708E84D44ED847F0DF4AB406A30","019cf861-ce21-7fe2-bf87-9cffe60f3c8c","019cf855-66fc-7d76-a612-8313d2c5c123","","411","
                <div class=""stimulus-container"">
                    <img src=""images/schematic_sequence/interview_scheme/interview_scheme_4.png"" class=""exp-image"">
                    <div class=""question-area"">
                        <p style=""font-size: 20px; font-weight: bold; margin: 0;"">Is there a person in this image?</p>
                    </div>
                </div>","1","main_experiment_trial","4","interview_scheme","schematic_sequence","","","","",""
"","","","","","html-keyboard-response","88","306579","0.0-88.0","0B40E708E84D44ED847F0DF4AB406A30","019cf861-ce21-7fe2-bf87-9cffe60f3c8c","019cf855-66fc-7d76-a612-8313d2c5c123","","null","
                <div class=""stimulus-container"">
                    <img src=""images/schematic_sequence/interview_scheme/interview_scheme_5.png"" class=""exp-image"">
                    <div class=""question-area""></div> 
                </div>","null","","","","","","","","",""
"","","","","","html-button-response","89","307109","0.0-89.0","0B40E708E84D44ED847F0DF4AB406A30","019cf861-ce21-7fe2-bf87-9cffe60f3c8c","019cf855-66fc-7d76-a612-8313d2c5c123","","528","
                <div class=""stimulus-container"">
                    <img src=""images/schematic_sequence/interview_scheme/interview_scheme_5.png"" class=""exp-image"">
                    <div class=""question-area"">
                        <p style=""font-size: 20px; font-weight: bold; margin: 0;"">Is there a person in this image?</p>
                    </div>
                </div>","0","main_experiment_trial","5","interview_scheme","schematic_sequence","","","","",""
"","","","","","html-keyboard-response","90","312112","0.0-90.0","0B40E708E84D44ED847F0DF4AB406A30","019cf861-ce21-7fe2-bf87-9cffe60f3c8c","019cf855-66fc-7d76-a612-8313d2c5c123","","null","
                <div class=""stimulus-container"">
                    <img src=""images/schematic_sequence/interview_scheme/interview_scheme_6.png"" class=""exp-image"">
                    <div class=""question-area""></div> 
                </div>","null","","","","","","","","",""
"","","","","","html-button-response","91","312616","0.0-91.0","0B40E708E84D44ED847F0DF4AB406A30","019cf861-ce21-7fe2-bf87-9cffe60f3c8c","019cf855-66fc-7d76-a612-8313d2c5c123","","502","
                <div class=""stimulus-container"">
                    <img src=""images/schematic_sequence/interview_scheme/interview_scheme_6.png"" class=""exp-image"">
                    <div class=""question-area"">
                        <p style=""font-size: 20px; font-weight: bold; margin: 0;"">Is there a person in this image?</p>
                    </div>
                </div>","0","main_experiment_trial","6","interview_scheme","schematic_sequence","","","","",""
"","","","","","html-keyboard-response","92","317617","0.0-92.0","0B40E708E84D44ED847F0DF4AB406A30","019cf861-ce21-7fe2-bf87-9cffe60f3c8c","019cf855-66fc-7d76-a612-8313d2c5c123","","null","
                <div class=""stimulus-container"">
                    <img src=""images/schematic_sequence/interview_scheme/interview_scheme_7.png"" class=""exp-image"">
                    <div class=""question-area""></div> 
                </div>","null","","","","","","","","",""
"","","","","","html-button-response","93","318115","0.0-93.0","0B40E708E84D44ED847F0DF4AB406A30","019cf861-ce21-7fe2-bf87-9cffe60f3c8c","019cf855-66fc-7d76-a612-8313d2c5c123","","497","
                <div class=""stimulus-container"">
                    <img src=""images/schematic_sequence/interview_scheme/interview_scheme_7.png"" class=""exp-image"">
                    <div class=""question-area"">
                        <p style=""font-size: 20px; font-weight: bold; margin: 0;"">Is there a person in this image?</p>
                    </div>
                </div>","0","main_experiment_trial","7","interview_scheme","schematic_sequence","","","","",""
"","","","","","html-keyboard-response","94","323117","0.0-94.0","0B40E708E84D44ED847F0DF4AB406A30","019cf861-ce21-7fe2-bf87-9cffe60f3c8c","019cf855-66fc-7d76-a612-8313d2c5c123","","null","
                <div class=""stimulus-container"">
                    <img src=""images/schematic_sequence/interview_scheme/interview_scheme_8.png"" class=""exp-image"">
                    <div class=""question-area""></div> 
                </div>","null","","","","","","","","",""
"","","","","","html-button-response","95","323627","0.0-95.0","0B40E708E84D44ED847F0DF4AB406A30","019cf861-ce21-7fe2-bf87-9cffe60f3c8c","019cf855-66fc-7d76-a612-8313d2c5c123","","508","
                <div class=""stimulus-container"">
                    <img src=""images/schematic_sequence/interview_scheme/interview_scheme_8.png"" class=""exp-image"">
                    <div class=""question-area"">
                        <p style=""font-size: 20px; font-weight: bold; margin: 0;"">Is there a person in this image?</p>
                    </div>
                </div>","0","main_experiment_trial","8","interview_scheme","schematic_sequence","","","","",""
"","","","","","html-keyboard-response","96","328629","0.0-96.0","0B40E708E84D44ED847F0DF4AB406A30","019cf861-ce21-7fe2-bf87-9cffe60f3c8c","019cf855-66fc-7d76-a612-8313d2c5c123","","null","
                <div class=""stimulus-container"">
                    <img src=""images/schematic_sequence/interview_scheme/interview_scheme_9.png"" class=""exp-image"">
                    <div class=""question-area""></div> 
                </div>","null","","","","","","","","",""
"","","","","","html-button-response","97","329141","0.0-97.0","0B40E708E84D44ED847F0DF4AB406A30","019cf861-ce21-7fe2-bf87-9cffe60f3c8c","019cf855-66fc-7d76-a612-8313d2c5c123","","509","
                <div class=""stimulus-container"">
                    <img src=""images/schematic_sequence/interview_scheme/interview_scheme_9.png"" class=""exp-image"">
                    <div class=""question-area"">
                        <p style=""font-size: 20px; font-weight: bold; margin: 0;"">Is there a person in this image?</p>
                    </div>
                </div>","0","main_experiment_trial","9","interview_scheme","schematic_sequence","","","","",""
"","","","","","html-keyboard-response","98","334143","0.0-98.0","0B40E708E84D44ED847F0DF4AB406A30","019cf861-ce21-7fe2-bf87-9cffe60f3c8c","019cf855-66fc-7d76-a612-8313d2c5c123","","null","
                <div class=""stimulus-container"">
                    <img src=""images/schematic_sequence/interview_scheme/interview_scheme_ten.png"" class=""exp-image"">
                    <div class=""question-area""></div> 
                </div>","null","","","","","","","","",""
"","","","","","html-button-response","99","334571","0.0-99.0","0B40E708E84D44ED847F0DF4AB406A30","019cf861-ce21-7fe2-bf87-9cffe60f3c8c","019cf855-66fc-7d76-a612-8313d2c5c123","","425","
                <div class=""stimulus-container"">
                    <img src=""images/schematic_sequence/interview_scheme/interview_scheme_ten.png"" class=""exp-image"">
                    <div class=""question-area"">
                        <p style=""font-size: 20px; font-weight: bold; margin: 0;"">Is there a person in this image?</p>
                    </div>
                </div>","0","main_experiment_trial","ten","interview_scheme","schematic_sequence","","","","",""
"","","","","","html-keyboard-response","100","335573","0.0-100.0","0B40E708E84D44ED847F0DF4AB406A30","019cf861-ce21-7fe2-bf87-9cffe60f3c8c","019cf855-66fc-7d76-a612-8313d2c5c123","","null","<div style=""background-color: white; width: 100vw; height: 100vh;""></div>","null","","","","","","","","",""
"","","","","","html-keyboard-response","101","340576","0.0-101.0","0B40E708E84D44ED847F0DF4AB406A30","019cf861-ce21-7fe2-bf87-9cffe60f3c8c","019cf855-66fc-7d76-a612-8313d2c5c123","","null","
                <div class=""stimulus-container"">
                    <img src=""images/semantic_sequence/self_care_activities_semantic/self_care_activities_semantic_1.png"" class=""exp-image"">
                    <div class=""question-area""></div> 
                </div>","null","","","","","","","","",""
"","","","","","html-button-response","102","341031","0.0-102.0","0B40E708E84D44ED847F0DF4AB406A30","019cf861-ce21-7fe2-bf87-9cffe60f3c8c","019cf855-66fc-7d76-a612-8313d2c5c123","","453","
                <div class=""stimulus-container"">
                    <img src=""images/semantic_sequence/self_care_activities_semantic/self_care_activities_semantic_1.png"" class=""exp-image"">
                    <div class=""question-area"">
                        <p style=""font-size: 20px; font-weight: bold; margin: 0;"">Is there a person in this image?</p>
                    </div>
                </div>","0","main_experiment_trial","1","self_care_activities_semantic","semantic_sequence","","","","",""
"","","","","","html-keyboard-response","103","346034","0.0-103.0","0B40E708E84D44ED847F0DF4AB406A30","019cf861-ce21-7fe2-bf87-9cffe60f3c8c","019cf855-66fc-7d76-a612-8313d2c5c123","","null","
                <div class=""stimulus-container"">
                    <img src=""images/semantic_sequence/self_care_activities_semantic/self_care_activities_semantic_2.png"" class=""exp-image"">
                    <div class=""question-area""></div> 
                </div>","null","","","","","","","","",""
"","","","","","html-button-response","104","346435","0.0-104.0","0B40E708E84D44ED847F0DF4AB406A30","019cf861-ce21-7fe2-bf87-9cffe60f3c8c","019cf855-66fc-7d76-a612-8313d2c5c123","","399","
                <div class=""stimulus-container"">
                    <img src=""images/semantic_sequence/self_care_activities_semantic/self_care_activities_semantic_2.png"" class=""exp-image"">
                    <div class=""question-area"">
                        <p style=""font-size: 20px; font-weight: bold; margin: 0;"">Is there a person in this image?</p>
                    </div>
                </div>","0","main_experiment_trial","2","self_care_activities_semantic","semantic_sequence","","","","",""
"","","","","","html-keyboard-response","105","351437","0.0-105.0","0B40E708E84D44ED847F0DF4AB406A30","019cf861-ce21-7fe2-bf87-9cffe60f3c8c","019cf855-66fc-7d76-a612-8313d2c5c123","","null","
                <div class=""stimulus-container"">
                    <img src=""images/semantic_sequence/self_care_activities_semantic/self_care_activities_semantic_3.png"" class=""exp-image"">
                    <div class=""question-area""></div> 
                </div>","null","","","","","","","","",""
"","","","","","html-button-response","106","351864","0.0-106.0","0B40E708E84D44ED847F0DF4AB406A30","019cf861-ce21-7fe2-bf87-9cffe60f3c8c","019cf855-66fc-7d76-a612-8313d2c5c123","","425","
                <div class=""stimulus-container"">
                    <img src=""images/semantic_sequence/self_care_activities_semantic/self_care_activities_semantic_3.png"" class=""exp-image"">
                    <div class=""question-area"">
                        <p style=""font-size: 20px; font-weight: bold; margin: 0;"">Is there a person in this image?</p>
                    </div>
                </div>","0","main_experiment_trial","3","self_care_activities_semantic","semantic_sequence","","","","",""
"","","","","","html-keyboard-response","107","356866","0.0-107.0","0B40E708E84D44ED847F0DF4AB406A30","019cf861-ce21-7fe2-bf87-9cffe60f3c8c","019cf855-66fc-7d76-a612-8313d2c5c123","","null","
                <div class=""stimulus-container"">
                    <img src=""images/semantic_sequence/self_care_activities_semantic/self_care_activities_semantic_4.png"" class=""exp-image"">
                    <div class=""question-area""></div> 
                </div>","null","","","","","","","","",""
"","","","","","html-button-response","108","357362","0.0-108.0","0B40E708E84D44ED847F0DF4AB406A30","019cf861-ce21-7fe2-bf87-9cffe60f3c8c","019cf855-66fc-7d76-a612-8313d2c5c123","","494","
                <div class=""stimulus-container"">
                    <img src=""images/semantic_sequence/self_care_activities_semantic/self_care_activities_semantic_4.png"" class=""exp-image"">
                    <div class=""question-area"">
                        <p style=""font-size: 20px; font-weight: bold; margin: 0;"">Is there a person in this image?</p>
                    </div>
                </div>","0","main_experiment_trial","4","self_care_activities_semantic","semantic_sequence","","","","",""
"","","","","","html-keyboard-response","109","362363","0.0-109.0","0B40E708E84D44ED847F0DF4AB406A30","019cf861-ce21-7fe2-bf87-9cffe60f3c8c","019cf855-66fc-7d76-a612-8313d2c5c123","","null","
                <div class=""stimulus-container"">
                    <img src=""images/semantic_sequence/self_care_activities_semantic/self_care_activities_semantic_5.png"" class=""exp-image"">
                    <div class=""question-area""></div> 
                </div>","null","","","","","","","","",""
"","","","","","html-button-response","110","362783","0.0-110.0","0B40E708E84D44ED847F0DF4AB406A30","019cf861-ce21-7fe2-bf87-9cffe60f3c8c","019cf855-66fc-7d76-a612-8313d2c5c123","","418","
                <div class=""stimulus-container"">
                    <img src=""images/semantic_sequence/self_care_activities_semantic/self_care_activities_semantic_5.png"" class=""exp-image"">
                    <div class=""question-area"">
                        <p style=""font-size: 20px; font-weight: bold; margin: 0;"">Is there a person in this image?</p>
                    </div>
                </div>","0","main_experiment_trial","5","self_care_activities_semantic","semantic_sequence","","","","",""
"","","","","","html-keyboard-response","111","367786","0.0-111.0","0B40E708E84D44ED847F0DF4AB406A30","019cf861-ce21-7fe2-bf87-9cffe60f3c8c","019cf855-66fc-7d76-a612-8313d2c5c123","","null","
                <div class=""stimulus-container"">
                    <img src=""images/semantic_sequence/self_care_activities_semantic/self_care_activities_semantic_6.png"" class=""exp-image"">
                    <div class=""question-area""></div> 
                </div>","null","","","","","","","","",""
"","","","","","html-button-response","112","368360","0.0-112.0","0B40E708E84D44ED847F0DF4AB406A30","019cf861-ce21-7fe2-bf87-9cffe60f3c8c","019cf855-66fc-7d76-a612-8313d2c5c123","","571","
                <div class=""stimulus-container"">
                    <img src=""images/semantic_sequence/self_care_activities_semantic/self_care_activities_semantic_6.png"" class=""exp-image"">
                    <div class=""question-area"">
                        <p style=""font-size: 20px; font-weight: bold; margin: 0;"">Is there a person in this image?</p>
                    </div>
                </div>","1","main_experiment_trial","6","self_care_activities_semantic","semantic_sequence","","","","",""
"","","","","","html-keyboard-response","113","373363","0.0-113.0","0B40E708E84D44ED847F0DF4AB406A30","019cf861-ce21-7fe2-bf87-9cffe60f3c8c","019cf855-66fc-7d76-a612-8313d2c5c123","","null","
                <div class=""stimulus-container"">
                    <img src=""images/semantic_sequence/self_care_activities_semantic/self_care_activities_semantic_7.png"" class=""exp-image"">
                    <div class=""question-area""></div> 
                </div>","null","","","","","","","","",""
"","","","","","html-button-response","114","373811","0.0-114.0","0B40E708E84D44ED847F0DF4AB406A30","019cf861-ce21-7fe2-bf87-9cffe60f3c8c","019cf855-66fc-7d76-a612-8313d2c5c123","","445","
                <div class=""stimulus-container"">
                    <img src=""images/semantic_sequence/self_care_activities_semantic/self_care_activities_semantic_7.png"" class=""exp-image"">
                    <div class=""question-area"">
                        <p style=""font-size: 20px; font-weight: bold; margin: 0;"">Is there a person in this image?</p>
                    </div>
                </div>","0","main_experiment_trial","7","self_care_activities_semantic","semantic_sequence","","","","",""
"","","","","","html-keyboard-response","115","378814","0.0-115.0","0B40E708E84D44ED847F0DF4AB406A30","019cf861-ce21-7fe2-bf87-9cffe60f3c8c","019cf855-66fc-7d76-a612-8313d2c5c123","","null","
                <div class=""stimulus-container"">
                    <img src=""images/semantic_sequence/self_care_activities_semantic/self_care_activities_semantic_8.png"" class=""exp-image"">
                    <div class=""question-area""></div> 
                </div>","null","","","","","","","","",""
"","","","","","html-button-response","116","379243","0.0-116.0","0B40E708E84D44ED847F0DF4AB406A30","019cf861-ce21-7fe2-bf87-9cffe60f3c8c","019cf855-66fc-7d76-a612-8313d2c5c123","","427","
                <div class=""stimulus-container"">
                    <img src=""images/semantic_sequence/self_care_activities_semantic/self_care_activities_semantic_8.png"" class=""exp-image"">
                    <div class=""question-area"">
                        <p style=""font-size: 20px; font-weight: bold; margin: 0;"">Is there a person in this image?</p>
                    </div>
                </div>","0","main_experiment_trial","8","self_care_activities_semantic","semantic_sequence","","","","",""
"","","","","","html-keyboard-response","117","384245","0.0-117.0","0B40E708E84D44ED847F0DF4AB406A30","019cf861-ce21-7fe2-bf87-9cffe60f3c8c","019cf855-66fc-7d76-a612-8313d2c5c123","","null","
                <div class=""stimulus-container"">
                    <img src=""images/semantic_sequence/self_care_activities_semantic/self_care_activities_semantic_9.png"" class=""exp-image"">
                    <div class=""question-area""></div> 
                </div>","null","","","","","","","","",""
"","","","","","html-button-response","118","384676","0.0-118.0","0B40E708E84D44ED847F0DF4AB406A30","019cf861-ce21-7fe2-bf87-9cffe60f3c8c","019cf855-66fc-7d76-a612-8313d2c5c123","","429","
                <div class=""stimulus-container"">
                    <img src=""images/semantic_sequence/self_care_activities_semantic/self_care_activities_semantic_9.png"" class=""exp-image"">
                    <div class=""question-area"">
                        <p style=""font-size: 20px; font-weight: bold; margin: 0;"">Is there a person in this image?</p>
                    </div>
                </div>","0","main_experiment_trial","9","self_care_activities_semantic","semantic_sequence","","","","",""
"","","","","","html-keyboard-response","119","389679","0.0-119.0","0B40E708E84D44ED847F0DF4AB406A30","019cf861-ce21-7fe2-bf87-9cffe60f3c8c","019cf855-66fc-7d76-a612-8313d2c5c123","","null","
                <div class=""stimulus-container"">
                    <img src=""images/semantic_sequence/self_care_activities_semantic/self_care_activities_semantic_ten.png"" class=""exp-image"">
                    <div class=""question-area""></div> 
                </div>","null","","","","","","","","",""
"","","","","","html-button-response","120","390126","0.0-120.0","0B40E708E84D44ED847F0DF4AB406A30","019cf861-ce21-7fe2-bf87-9cffe60f3c8c","019cf855-66fc-7d76-a612-8313d2c5c123","","444","
                <div class=""stimulus-container"">
                    <img src=""images/semantic_sequence/self_care_activities_semantic/self_care_activities_semantic_ten.png"" class=""exp-image"">
                    <div class=""question-area"">
                        <p style=""font-size: 20px; font-weight: bold; margin: 0;"">Is there a person in this image?</p>
                    </div>
                </div>","0","main_experiment_trial","ten","self_care_activities_semantic","semantic_sequence","","","","",""
"","","","","","html-keyboard-response","121","391128","0.0-121.0","0B40E708E84D44ED847F0DF4AB406A30","019cf861-ce21-7fe2-bf87-9cffe60f3c8c","019cf855-66fc-7d76-a612-8313d2c5c123","","null","<div style=""background-color: white; width: 100vw; height: 100vh;""></div>","null","","","","","","","","",""
"","","","","","html-keyboard-response","122","396131","0.0-122.0","0B40E708E84D44ED847F0DF4AB406A30","019cf861-ce21-7fe2-bf87-9cffe60f3c8c","019cf855-66fc-7d76-a612-8313d2c5c123","","null","
                <div class=""stimulus-container"">
                    <img src=""images/schematic_sequence/supermarket_scheme/supermarket_scheme_1.png"" class=""exp-image"">
                    <div class=""question-area""></div> 
                </div>","null","","","","","","","","",""
"","","","","","html-button-response","123","396568","0.0-123.0","0B40E708E84D44ED847F0DF4AB406A30","019cf861-ce21-7fe2-bf87-9cffe60f3c8c","019cf855-66fc-7d76-a612-8313d2c5c123","","435","
                <div class=""stimulus-container"">
                    <img src=""images/schematic_sequence/supermarket_scheme/supermarket_scheme_1.png"" class=""exp-image"">
                    <div class=""question-area"">
                        <p style=""font-size: 20px; font-weight: bold; margin: 0;"">Is there a person in this image?</p>
                    </div>
                </div>","1","main_experiment_trial","1","supermarket_scheme","schematic_sequence","","","","",""
"","","","","","html-keyboard-response","124","401571","0.0-124.0","0B40E708E84D44ED847F0DF4AB406A30","019cf861-ce21-7fe2-bf87-9cffe60f3c8c","019cf855-66fc-7d76-a612-8313d2c5c123","","null","
                <div class=""stimulus-container"">
                    <img src=""images/schematic_sequence/supermarket_scheme/supermarket_scheme_2.png"" class=""exp-image"">
                    <div class=""question-area""></div> 
                </div>","null","","","","","","","","",""
"","","","","","html-button-response","125","401966","0.0-125.0","0B40E708E84D44ED847F0DF4AB406A30","019cf861-ce21-7fe2-bf87-9cffe60f3c8c","019cf855-66fc-7d76-a612-8313d2c5c123","","394","
                <div class=""stimulus-container"">
                    <img src=""images/schematic_sequence/supermarket_scheme/supermarket_scheme_2.png"" class=""exp-image"">
                    <div class=""question-area"">
                        <p style=""font-size: 20px; font-weight: bold; margin: 0;"">Is there a person in this image?</p>
                    </div>
                </div>","1","main_experiment_trial","2","supermarket_scheme","schematic_sequence","","","","",""
"","","","","","html-keyboard-response","126","406968","0.0-126.0","0B40E708E84D44ED847F0DF4AB406A30","019cf861-ce21-7fe2-bf87-9cffe60f3c8c","019cf855-66fc-7d76-a612-8313d2c5c123","","null","
                <div class=""stimulus-container"">
                    <img src=""images/schematic_sequence/supermarket_scheme/supermarket_scheme_3.png"" class=""exp-image"">
                    <div class=""question-area""></div> 
                </div>","null","","","","","","","","",""
"","","","","","html-button-response","127","407372","0.0-127.0","0B40E708E84D44ED847F0DF4AB406A30","019cf861-ce21-7fe2-bf87-9cffe60f3c8c","019cf855-66fc-7d76-a612-8313d2c5c123","","402","
                <div class=""stimulus-container"">
                    <img src=""images/schematic_sequence/supermarket_scheme/supermarket_scheme_3.png"" class=""exp-image"">
                    <div class=""question-area"">
                        <p style=""font-size: 20px; font-weight: bold; margin: 0;"">Is there a person in this image?</p>
                    </div>
                </div>","1","main_experiment_trial","3","supermarket_scheme","schematic_sequence","","","","",""
"","","","","","html-keyboard-response","128","412374","0.0-128.0","0B40E708E84D44ED847F0DF4AB406A30","019cf861-ce21-7fe2-bf87-9cffe60f3c8c","019cf855-66fc-7d76-a612-8313d2c5c123","","null","
                <div class=""stimulus-container"">
                    <img src=""images/schematic_sequence/supermarket_scheme/supermarket_scheme_4.png"" class=""exp-image"">
                    <div class=""question-area""></div> 
                </div>","null","","","","","","","","",""
"","","","","","html-button-response","129","412825","0.0-129.0","0B40E708E84D44ED847F0DF4AB406A30","019cf861-ce21-7fe2-bf87-9cffe60f3c8c","019cf855-66fc-7d76-a612-8313d2c5c123","","448","
                <div class=""stimulus-container"">
                    <img src=""images/schematic_sequence/supermarket_scheme/supermarket_scheme_4.png"" class=""exp-image"">
                    <div class=""question-area"">
                        <p style=""font-size: 20px; font-weight: bold; margin: 0;"">Is there a person in this image?</p>
                    </div>
                </div>","0","main_experiment_trial","4","supermarket_scheme","schematic_sequence","","","","",""
"","","","","","html-keyboard-response","130","417828","0.0-130.0","0B40E708E84D44ED847F0DF4AB406A30","019cf861-ce21-7fe2-bf87-9cffe60f3c8c","019cf855-66fc-7d76-a612-8313d2c5c123","","null","
                <div class=""stimulus-container"">
                    <img src=""images/schematic_sequence/supermarket_scheme/supermarket_scheme_5.png"" class=""exp-image"">
                    <div class=""question-area""></div> 
                </div>","null","","","","","","","","",""
"","","","","","html-button-response","131","418260","0.0-131.0","0B40E708E84D44ED847F0DF4AB406A30","019cf861-ce21-7fe2-bf87-9cffe60f3c8c","019cf855-66fc-7d76-a612-8313d2c5c123","","429","
                <div class=""stimulus-container"">
                    <img src=""images/schematic_sequence/supermarket_scheme/supermarket_scheme_5.png"" class=""exp-image"">
                    <div class=""question-area"">
                        <p style=""font-size: 20px; font-weight: bold; margin: 0;"">Is there a person in this image?</p>
                    </div>
                </div>","1","main_experiment_trial","5","supermarket_scheme","schematic_sequence","","","","",""
"","","","","","html-keyboard-response","132","423262","0.0-132.0","0B40E708E84D44ED847F0DF4AB406A30","019cf861-ce21-7fe2-bf87-9cffe60f3c8c","019cf855-66fc-7d76-a612-8313d2c5c123","","null","
                <div class=""stimulus-container"">
                    <img src=""images/schematic_sequence/supermarket_scheme/supermarket_scheme_6.png"" class=""exp-image"">
                    <div class=""question-area""></div> 
                </div>","null","","","","","","","","",""
"","","","","","html-button-response","133","423700","0.0-133.0","0B40E708E84D44ED847F0DF4AB406A30","019cf861-ce21-7fe2-bf87-9cffe60f3c8c","019cf855-66fc-7d76-a612-8313d2c5c123","","436","
                <div class=""stimulus-container"">
                    <img src=""images/schematic_sequence/supermarket_scheme/supermarket_scheme_6.png"" class=""exp-image"">
                    <div class=""question-area"">
                        <p style=""font-size: 20px; font-weight: bold; margin: 0;"">Is there a person in this image?</p>
                    </div>
                </div>","0","main_experiment_trial","6","supermarket_scheme","schematic_sequence","","","","",""
"","","","","","html-keyboard-response","134","428703","0.0-134.0","0B40E708E84D44ED847F0DF4AB406A30","019cf861-ce21-7fe2-bf87-9cffe60f3c8c","019cf855-66fc-7d76-a612-8313d2c5c123","","null","
                <div class=""stimulus-container"">
                    <img src=""images/schematic_sequence/supermarket_scheme/supermarket_scheme_7.png"" class=""exp-image"">
                    <div class=""question-area""></div> 
                </div>","null","","","","","","","","",""
"","","","","","html-button-response","135","429160","0.0-135.0","0B40E708E84D44ED847F0DF4AB406A30","019cf861-ce21-7fe2-bf87-9cffe60f3c8c","019cf855-66fc-7d76-a612-8313d2c5c123","","456","
                <div class=""stimulus-container"">
                    <img src=""images/schematic_sequence/supermarket_scheme/supermarket_scheme_7.png"" class=""exp-image"">
                    <div class=""question-area"">
                        <p style=""font-size: 20px; font-weight: bold; margin: 0;"">Is there a person in this image?</p>
                    </div>
                </div>","0","main_experiment_trial","7","supermarket_scheme","schematic_sequence","","","","",""
"","","","","","html-keyboard-response","136","434162","0.0-136.0","0B40E708E84D44ED847F0DF4AB406A30","019cf861-ce21-7fe2-bf87-9cffe60f3c8c","019cf855-66fc-7d76-a612-8313d2c5c123","","null","
                <div class=""stimulus-container"">
                    <img src=""images/schematic_sequence/supermarket_scheme/supermarket_scheme_8.png"" class=""exp-image"">
                    <div class=""question-area""></div> 
                </div>","null","","","","","","","","",""
"","","","","","html-button-response","137","434676","0.0-137.0","0B40E708E84D44ED847F0DF4AB406A30","019cf861-ce21-7fe2-bf87-9cffe60f3c8c","019cf855-66fc-7d76-a612-8313d2c5c123","","511","
                <div class=""stimulus-container"">
                    <img src=""images/schematic_sequence/supermarket_scheme/supermarket_scheme_8.png"" class=""exp-image"">
                    <div class=""question-area"">
                        <p style=""font-size: 20px; font-weight: bold; margin: 0;"">Is there a person in this image?</p>
                    </div>
                </div>","0","main_experiment_trial","8","supermarket_scheme","schematic_sequence","","","","",""
"","","","","","html-keyboard-response","138","439678","0.0-138.0","0B40E708E84D44ED847F0DF4AB406A30","019cf861-ce21-7fe2-bf87-9cffe60f3c8c","019cf855-66fc-7d76-a612-8313d2c5c123","","null","
                <div class=""stimulus-container"">
                    <img src=""images/schematic_sequence/supermarket_scheme/supermarket_scheme_9.png"" class=""exp-image"">
                    <div class=""question-area""></div> 
                </div>","null","","","","","","","","",""
"","","","","","html-button-response","139","440146","0.0-139.0","0B40E708E84D44ED847F0DF4AB406A30","019cf861-ce21-7fe2-bf87-9cffe60f3c8c","019cf855-66fc-7d76-a612-8313d2c5c123","","465","
                <div class=""stimulus-container"">
                    <img src=""images/schematic_sequence/supermarket_scheme/supermarket_scheme_9.png"" class=""exp-image"">
                    <div class=""question-area"">
                        <p style=""font-size: 20px; font-weight: bold; margin: 0;"">Is there a person in this image?</p>
                    </div>
                </div>","0","main_experiment_trial","9","supermarket_scheme","schematic_sequence","","","","",""
"","","","","","html-keyboard-response","140","445148","0.0-140.0","0B40E708E84D44ED847F0DF4AB406A30","019cf861-ce21-7fe2-bf87-9cffe60f3c8c","019cf855-66fc-7d76-a612-8313d2c5c123","","null","
                <div class=""stimulus-container"">
                    <img src=""images/schematic_sequence/supermarket_scheme/supermarket_scheme_ten.png"" class=""exp-image"">
                    <div class=""question-area""></div> 
                </div>","null","","","","","","","","",""
"","","","","","html-button-response","141","445560","0.0-141.0","0B40E708E84D44ED847F0DF4AB406A30","019cf861-ce21-7fe2-bf87-9cffe60f3c8c","019cf855-66fc-7d76-a612-8313d2c5c123","","410","
                <div class=""stimulus-container"">
                    <img src=""images/schematic_sequence/supermarket_scheme/supermarket_scheme_ten.png"" class=""exp-image"">
                    <div class=""question-area"">
                        <p style=""font-size: 20px; font-weight: bold; margin: 0;"">Is there a person in this image?</p>
                    </div>
                </div>","1","main_experiment_trial","ten","supermarket_scheme","schematic_sequence","","","","",""
"","","","","","html-keyboard-response","142","446561","0.0-142.0","0B40E708E84D44ED847F0DF4AB406A30","019cf861-ce21-7fe2-bf87-9cffe60f3c8c","019cf855-66fc-7d76-a612-8313d2c5c123","","null","<div style=""background-color: white; width: 100vw; height: 100vh;""></div>","null","","","","","","","","",""
"","","","","","html-keyboard-response","143","451564","0.0-143.0","0B40E708E84D44ED847F0DF4AB406A30","019cf861-ce21-7fe2-bf87-9cffe60f3c8c","019cf855-66fc-7d76-a612-8313d2c5c123","","null","
                <div class=""stimulus-container"">
                    <img src=""images/semantic_sequence/market_semantic/market_semantic_1.png"" class=""exp-image"">
                    <div class=""question-area""></div> 
                </div>","null","","","","","","","","",""
"","","","","","html-button-response","144","452076","0.0-144.0","0B40E708E84D44ED847F0DF4AB406A30","019cf861-ce21-7fe2-bf87-9cffe60f3c8c","019cf855-66fc-7d76-a612-8313d2c5c123","","508","
                <div class=""stimulus-container"">
                    <img src=""images/semantic_sequence/market_semantic/market_semantic_1.png"" class=""exp-image"">
                    <div class=""question-area"">
                        <p style=""font-size: 20px; font-weight: bold; margin: 0;"">Is there a person in this image?</p>
                    </div>
                </div>","1","main_experiment_trial","1","market_semantic","semantic_sequence","","","","",""
"","","","","","html-keyboard-response","145","457078","0.0-145.0","0B40E708E84D44ED847F0DF4AB406A30","019cf861-ce21-7fe2-bf87-9cffe60f3c8c","019cf855-66fc-7d76-a612-8313d2c5c123","","null","
                <div class=""stimulus-container"">
                    <img src=""images/semantic_sequence/market_semantic/market_semantic_2.png"" class=""exp-image"">
                    <div class=""question-area""></div> 
                </div>","null","","","","","","","","",""
"","","","","","html-button-response","146","457543","0.0-146.0","0B40E708E84D44ED847F0DF4AB406A30","019cf861-ce21-7fe2-bf87-9cffe60f3c8c","019cf855-66fc-7d76-a612-8313d2c5c123","","462","
                <div class=""stimulus-container"">
                    <img src=""images/semantic_sequence/market_semantic/market_semantic_2.png"" class=""exp-image"">
                    <div class=""question-area"">
                        <p style=""font-size: 20px; font-weight: bold; margin: 0;"">Is there a person in this image?</p>
                    </div>
                </div>","1","main_experiment_trial","2","market_semantic","semantic_sequence","","","","",""
"","","","","","html-keyboard-response","147","462544","0.0-147.0","0B40E708E84D44ED847F0DF4AB406A30","019cf861-ce21-7fe2-bf87-9cffe60f3c8c","019cf855-66fc-7d76-a612-8313d2c5c123","","null","
                <div class=""stimulus-container"">
                    <img src=""images/semantic_sequence/market_semantic/market_semantic_3.png"" class=""exp-image"">
                    <div class=""question-area""></div> 
                </div>","null","","","","","","","","",""
"","","","","","html-button-response","148","462992","0.0-148.0","0B40E708E84D44ED847F0DF4AB406A30","019cf861-ce21-7fe2-bf87-9cffe60f3c8c","019cf855-66fc-7d76-a612-8313d2c5c123","","448","
                <div class=""stimulus-container"">
                    <img src=""images/semantic_sequence/market_semantic/market_semantic_3.png"" class=""exp-image"">
                    <div class=""question-area"">
                        <p style=""font-size: 20px; font-weight: bold; margin: 0;"">Is there a person in this image?</p>
                    </div>
                </div>","1","main_experiment_trial","3","market_semantic","semantic_sequence","","","","",""
"","","","","","html-keyboard-response","149","467994","0.0-149.0","0B40E708E84D44ED847F0DF4AB406A30","019cf861-ce21-7fe2-bf87-9cffe60f3c8c","019cf855-66fc-7d76-a612-8313d2c5c123","","null","
                <div class=""stimulus-container"">
                    <img src=""images/semantic_sequence/market_semantic/market_semantic_4.png"" class=""exp-image"">
                    <div class=""question-area""></div> 
                </div>","null","","","","","","","","",""
"","","","","","html-button-response","150","468426","0.0-150.0","0B40E708E84D44ED847F0DF4AB406A30","019cf861-ce21-7fe2-bf87-9cffe60f3c8c","019cf855-66fc-7d76-a612-8313d2c5c123","","431","
                <div class=""stimulus-container"">
                    <img src=""images/semantic_sequence/market_semantic/market_semantic_4.png"" class=""exp-image"">
                    <div class=""question-area"">
                        <p style=""font-size: 20px; font-weight: bold; margin: 0;"">Is there a person in this image?</p>
                    </div>
                </div>","0","main_experiment_trial","4","market_semantic","semantic_sequence","","","","",""
"","","","","","html-keyboard-response","151","473428","0.0-151.0","0B40E708E84D44ED847F0DF4AB406A30","019cf861-ce21-7fe2-bf87-9cffe60f3c8c","019cf855-66fc-7d76-a612-8313d2c5c123","","null","
                <div class=""stimulus-container"">
                    <img src=""images/semantic_sequence/market_semantic/market_semantic_5.png"" class=""exp-image"">
                    <div class=""question-area""></div> 
                </div>","null","","","","","","","","",""
"","","","","","html-button-response","152","474610","0.0-152.0","0B40E708E84D44ED847F0DF4AB406A30","019cf861-ce21-7fe2-bf87-9cffe60f3c8c","019cf855-66fc-7d76-a612-8313d2c5c123","","1180","
                <div class=""stimulus-container"">
                    <img src=""images/semantic_sequence/market_semantic/market_semantic_5.png"" class=""exp-image"">
                    <div class=""question-area"">
                        <p style=""font-size: 20px; font-weight: bold; margin: 0;"">Is there a person in this image?</p>
                    </div>
                </div>","1","main_experiment_trial","5","market_semantic","semantic_sequence","","","","",""
"","","","","","html-keyboard-response","153","479613","0.0-153.0","0B40E708E84D44ED847F0DF4AB406A30","019cf861-ce21-7fe2-bf87-9cffe60f3c8c","019cf855-66fc-7d76-a612-8313d2c5c123","","null","
                <div class=""stimulus-container"">
                    <img src=""images/semantic_sequence/market_semantic/market_semantic_6.png"" class=""exp-image"">
                    <div class=""question-area""></div> 
                </div>","null","","","","","","","","",""
"","","","","","html-button-response","154","480026","0.0-154.0","0B40E708E84D44ED847F0DF4AB406A30","019cf861-ce21-7fe2-bf87-9cffe60f3c8c","019cf855-66fc-7d76-a612-8313d2c5c123","","411","
                <div class=""stimulus-container"">
                    <img src=""images/semantic_sequence/market_semantic/market_semantic_6.png"" class=""exp-image"">
                    <div class=""question-area"">
                        <p style=""font-size: 20px; font-weight: bold; margin: 0;"">Is there a person in this image?</p>
                    </div>
                </div>","1","main_experiment_trial","6","market_semantic","semantic_sequence","","","","",""
"","","","","","html-keyboard-response","155","485029","0.0-155.0","0B40E708E84D44ED847F0DF4AB406A30","019cf861-ce21-7fe2-bf87-9cffe60f3c8c","019cf855-66fc-7d76-a612-8313d2c5c123","","null","
                <div class=""stimulus-container"">
                    <img src=""images/semantic_sequence/market_semantic/market_semantic_7.png"" class=""exp-image"">
                    <div class=""question-area""></div> 
                </div>","null","","","","","","","","",""
"","","","","","html-button-response","156","485601","0.0-156.0","0B40E708E84D44ED847F0DF4AB406A30","019cf861-ce21-7fe2-bf87-9cffe60f3c8c","019cf855-66fc-7d76-a612-8313d2c5c123","","571","
                <div class=""stimulus-container"">
                    <img src=""images/semantic_sequence/market_semantic/market_semantic_7.png"" class=""exp-image"">
                    <div class=""question-area"">
                        <p style=""font-size: 20px; font-weight: bold; margin: 0;"">Is there a person in this image?</p>
                    </div>
                </div>","0","main_experiment_trial","7","market_semantic","semantic_sequence","","","","",""
"","","","","","html-keyboard-response","157","490603","0.0-157.0","0B40E708E84D44ED847F0DF4AB406A30","019cf861-ce21-7fe2-bf87-9cffe60f3c8c","019cf855-66fc-7d76-a612-8313d2c5c123","","null","
                <div class=""stimulus-container"">
                    <img src=""images/semantic_sequence/market_semantic/market_semantic_8.png"" class=""exp-image"">
                    <div class=""question-area""></div> 
                </div>","null","","","","","","","","",""
"","","","","","html-button-response","158","491061","0.0-158.0","0B40E708E84D44ED847F0DF4AB406A30","019cf861-ce21-7fe2-bf87-9cffe60f3c8c","019cf855-66fc-7d76-a612-8313d2c5c123","","456","
                <div class=""stimulus-container"">
                    <img src=""images/semantic_sequence/market_semantic/market_semantic_8.png"" class=""exp-image"">
                    <div class=""question-area"">
                        <p style=""font-size: 20px; font-weight: bold; margin: 0;"">Is there a person in this image?</p>
                    </div>
                </div>","0","main_experiment_trial","8","market_semantic","semantic_sequence","","","","",""
"","","","","","html-keyboard-response","159","496064","0.0-159.0","0B40E708E84D44ED847F0DF4AB406A30","019cf861-ce21-7fe2-bf87-9cffe60f3c8c","019cf855-66fc-7d76-a612-8313d2c5c123","","null","
                <div class=""stimulus-container"">
                    <img src=""images/semantic_sequence/market_semantic/market_semantic_9.png"" class=""exp-image"">
                    <div class=""question-area""></div> 
                </div>","null","","","","","","","","",""
"","","","","","html-button-response","160","496482","0.0-160.0","0B40E708E84D44ED847F0DF4AB406A30","019cf861-ce21-7fe2-bf87-9cffe60f3c8c","019cf855-66fc-7d76-a612-8313d2c5c123","","416","
                <div class=""stimulus-container"">
                    <img src=""images/semantic_sequence/market_semantic/market_semantic_9.png"" class=""exp-image"">
                    <div class=""question-area"">
                        <p style=""font-size: 20px; font-weight: bold; margin: 0;"">Is there a person in this image?</p>
                    </div>
                </div>","0","main_experiment_trial","9","market_semantic","semantic_sequence","","","","",""
"","","","","","html-keyboard-response","161","501485","0.0-161.0","0B40E708E84D44ED847F0DF4AB406A30","019cf861-ce21-7fe2-bf87-9cffe60f3c8c","019cf855-66fc-7d76-a612-8313d2c5c123","","null","
                <div class=""stimulus-container"">
                    <img src=""images/semantic_sequence/market_semantic/market_semantic_ten.png"" class=""exp-image"">
                    <div class=""question-area""></div> 
                </div>","null","","","","","","","","",""
"","","","","","html-button-response","162","501926","0.0-162.0","0B40E708E84D44ED847F0DF4AB406A30","019cf861-ce21-7fe2-bf87-9cffe60f3c8c","019cf855-66fc-7d76-a612-8313d2c5c123","","438","
                <div class=""stimulus-container"">
                    <img src=""images/semantic_sequence/market_semantic/market_semantic_ten.png"" class=""exp-image"">
                    <div class=""question-area"">
                        <p style=""font-size: 20px; font-weight: bold; margin: 0;"">Is there a person in this image?</p>
                    </div>
                </div>","1","main_experiment_trial","ten","market_semantic","semantic_sequence","","","","",""
"","","","","","html-keyboard-response","163","502928","0.0-163.0","0B40E708E84D44ED847F0DF4AB406A30","019cf861-ce21-7fe2-bf87-9cffe60f3c8c","019cf855-66fc-7d76-a612-8313d2c5c123","","null","<div style=""background-color: white; width: 100vw; height: 100vh;""></div>","null","","","","","","","","",""
"","","","","","html-keyboard-response","164","507930","0.0-164.0","0B40E708E84D44ED847F0DF4AB406A30","019cf861-ce21-7fe2-bf87-9cffe60f3c8c","019cf855-66fc-7d76-a612-8313d2c5c123","","null","
                <div class=""stimulus-container"">
                    <img src=""images/schematic_sequence/restaurant_scheme/restaurant_scheme_1.png"" class=""exp-image"">
                    <div class=""question-area""></div> 
                </div>","null","","","","","","","","",""
"","","","","","html-button-response","165","508398","0.0-165.0","0B40E708E84D44ED847F0DF4AB406A30","019cf861-ce21-7fe2-bf87-9cffe60f3c8c","019cf855-66fc-7d76-a612-8313d2c5c123","","466","
                <div class=""stimulus-container"">
                    <img src=""images/schematic_sequence/restaurant_scheme/restaurant_scheme_1.png"" class=""exp-image"">
                    <div class=""question-area"">
                        <p style=""font-size: 20px; font-weight: bold; margin: 0;"">Is there a person in this image?</p>
                    </div>
                </div>","0","main_experiment_trial","1","restaurant_scheme","schematic_sequence","","","","",""
"","","","","","html-keyboard-response","166","513400","0.0-166.0","0B40E708E84D44ED847F0DF4AB406A30","019cf861-ce21-7fe2-bf87-9cffe60f3c8c","019cf855-66fc-7d76-a612-8313d2c5c123","","null","
                <div class=""stimulus-container"">
                    <img src=""images/schematic_sequence/restaurant_scheme/restaurant_scheme_2.png"" class=""exp-image"">
                    <div class=""question-area""></div> 
                </div>","null","","","","","","","","",""
"","","","","","html-button-response","167","513844","0.0-167.0","0B40E708E84D44ED847F0DF4AB406A30","019cf861-ce21-7fe2-bf87-9cffe60f3c8c","019cf855-66fc-7d76-a612-8313d2c5c123","","442","
                <div class=""stimulus-container"">
                    <img src=""images/schematic_sequence/restaurant_scheme/restaurant_scheme_2.png"" class=""exp-image"">
                    <div class=""question-area"">
                        <p style=""font-size: 20px; font-weight: bold; margin: 0;"">Is there a person in this image?</p>
                    </div>
                </div>","1","main_experiment_trial","2","restaurant_scheme","schematic_sequence","","","","",""
"","","","","","html-keyboard-response","168","518847","0.0-168.0","0B40E708E84D44ED847F0DF4AB406A30","019cf861-ce21-7fe2-bf87-9cffe60f3c8c","019cf855-66fc-7d76-a612-8313d2c5c123","","null","
                <div class=""stimulus-container"">
                    <img src=""images/schematic_sequence/restaurant_scheme/restaurant_scheme_3.png"" class=""exp-image"">
                    <div class=""question-area""></div> 
                </div>","null","","","","","","","","",""
"","","","","","html-button-response","169","519277","0.0-169.0","0B40E708E84D44ED847F0DF4AB406A30","019cf861-ce21-7fe2-bf87-9cffe60f3c8c","019cf855-66fc-7d76-a612-8313d2c5c123","","427","
                <div class=""stimulus-container"">
                    <img src=""images/schematic_sequence/restaurant_scheme/restaurant_scheme_3.png"" class=""exp-image"">
                    <div class=""question-area"">
                        <p style=""font-size: 20px; font-weight: bold; margin: 0;"">Is there a person in this image?</p>
                    </div>
                </div>","1","main_experiment_trial","3","restaurant_scheme","schematic_sequence","","","","",""
"","","","","","html-keyboard-response","170","524280","0.0-170.0","0B40E708E84D44ED847F0DF4AB406A30","019cf861-ce21-7fe2-bf87-9cffe60f3c8c","019cf855-66fc-7d76-a612-8313d2c5c123","","null","
                <div class=""stimulus-container"">
                    <img src=""images/schematic_sequence/restaurant_scheme/restaurant_scheme_4.png"" class=""exp-image"">
                    <div class=""question-area""></div> 
                </div>","null","","","","","","","","",""
"","","","","","html-button-response","171","524717","0.0-171.0","0B40E708E84D44ED847F0DF4AB406A30","019cf861-ce21-7fe2-bf87-9cffe60f3c8c","019cf855-66fc-7d76-a612-8313d2c5c123","","436","
                <div class=""stimulus-container"">
                    <img src=""images/schematic_sequence/restaurant_scheme/restaurant_scheme_4.png"" class=""exp-image"">
                    <div class=""question-area"">
                        <p style=""font-size: 20px; font-weight: bold; margin: 0;"">Is there a person in this image?</p>
                    </div>
                </div>","0","main_experiment_trial","4","restaurant_scheme","schematic_sequence","","","","",""
"","","","","","html-keyboard-response","172","529718","0.0-172.0","0B40E708E84D44ED847F0DF4AB406A30","019cf861-ce21-7fe2-bf87-9cffe60f3c8c","019cf855-66fc-7d76-a612-8313d2c5c123","","null","
                <div class=""stimulus-container"">
                    <img src=""images/schematic_sequence/restaurant_scheme/restaurant_scheme_5.png"" class=""exp-image"">
                    <div class=""question-area""></div> 
                </div>","null","","","","","","","","",""
"","","","","","html-button-response","173","530172","0.0-173.0","0B40E708E84D44ED847F0DF4AB406A30","019cf861-ce21-7fe2-bf87-9cffe60f3c8c","019cf855-66fc-7d76-a612-8313d2c5c123","","453","
                <div class=""stimulus-container"">
                    <img src=""images/schematic_sequence/restaurant_scheme/restaurant_scheme_5.png"" class=""exp-image"">
                    <div class=""question-area"">
                        <p style=""font-size: 20px; font-weight: bold; margin: 0;"">Is there a person in this image?</p>
                    </div>
                </div>","0","main_experiment_trial","5","restaurant_scheme","schematic_sequence","","","","",""
"","","","","","html-keyboard-response","174","535174","0.0-174.0","0B40E708E84D44ED847F0DF4AB406A30","019cf861-ce21-7fe2-bf87-9cffe60f3c8c","019cf855-66fc-7d76-a612-8313d2c5c123","","null","
                <div class=""stimulus-container"">
                    <img src=""images/schematic_sequence/restaurant_scheme/restaurant_scheme_6.png"" class=""exp-image"">
                    <div class=""question-area""></div> 
                </div>","null","","","","","","","","",""
"","","","","","html-button-response","175","535610","0.0-175.0","0B40E708E84D44ED847F0DF4AB406A30","019cf861-ce21-7fe2-bf87-9cffe60f3c8c","019cf855-66fc-7d76-a612-8313d2c5c123","","434","
                <div class=""stimulus-container"">
                    <img src=""images/schematic_sequence/restaurant_scheme/restaurant_scheme_6.png"" class=""exp-image"">
                    <div class=""question-area"">
                        <p style=""font-size: 20px; font-weight: bold; margin: 0;"">Is there a person in this image?</p>
                    </div>
                </div>","1","main_experiment_trial","6","restaurant_scheme","schematic_sequence","","","","",""
"","","","","","html-keyboard-response","176","540613","0.0-176.0","0B40E708E84D44ED847F0DF4AB406A30","019cf861-ce21-7fe2-bf87-9cffe60f3c8c","019cf855-66fc-7d76-a612-8313d2c5c123","","null","
                <div class=""stimulus-container"">
                    <img src=""images/schematic_sequence/restaurant_scheme/restaurant_scheme_7.png"" class=""exp-image"">
                    <div class=""question-area""></div> 
                </div>","null","","","","","","","","",""
"","","","","","html-button-response","177","541114","0.0-177.0","0B40E708E84D44ED847F0DF4AB406A30","019cf861-ce21-7fe2-bf87-9cffe60f3c8c","019cf855-66fc-7d76-a612-8313d2c5c123","","499","
                <div class=""stimulus-container"">
                    <img src=""images/schematic_sequence/restaurant_scheme/restaurant_scheme_7.png"" class=""exp-image"">
                    <div class=""question-area"">
                        <p style=""font-size: 20px; font-weight: bold; margin: 0;"">Is there a person in this image?</p>
                    </div>
                </div>","1","main_experiment_trial","7","restaurant_scheme","schematic_sequence","","","","",""
"","","","","","html-keyboard-response","178","546116","0.0-178.0","0B40E708E84D44ED847F0DF4AB406A30","019cf861-ce21-7fe2-bf87-9cffe60f3c8c","019cf855-66fc-7d76-a612-8313d2c5c123","","null","
                <div class=""stimulus-container"">
                    <img src=""images/schematic_sequence/restaurant_scheme/restaurant_scheme_8.png"" class=""exp-image"">
                    <div class=""question-area""></div> 
                </div>","null","","","","","","","","",""
"","","","","","html-button-response","179","546576","0.0-179.0","0B40E708E84D44ED847F0DF4AB406A30","019cf861-ce21-7fe2-bf87-9cffe60f3c8c","019cf855-66fc-7d76-a612-8313d2c5c123","","457","
                <div class=""stimulus-container"">
                    <img src=""images/schematic_sequence/restaurant_scheme/restaurant_scheme_8.png"" class=""exp-image"">
                    <div class=""question-area"">
                        <p style=""font-size: 20px; font-weight: bold; margin: 0;"">Is there a person in this image?</p>
                    </div>
                </div>","0","main_experiment_trial","8","restaurant_scheme","schematic_sequence","","","","",""
"","","","","","html-keyboard-response","180","551578","0.0-180.0","0B40E708E84D44ED847F0DF4AB406A30","019cf861-ce21-7fe2-bf87-9cffe60f3c8c","019cf855-66fc-7d76-a612-8313d2c5c123","","null","
                <div class=""stimulus-container"">
                    <img src=""images/schematic_sequence/restaurant_scheme/restaurant_scheme_9.png"" class=""exp-image"">
                    <div class=""question-area""></div> 
                </div>","null","","","","","","","","",""
"","","","","","html-button-response","181","552027","0.0-181.0","0B40E708E84D44ED847F0DF4AB406A30","019cf861-ce21-7fe2-bf87-9cffe60f3c8c","019cf855-66fc-7d76-a612-8313d2c5c123","","447","
