"success","timeout","failed_images","failed_audio","failed_video","trial_type","trial_index","time_elapsed","internal_node_id","subject_id","study_id","session_id","view_history","rt","stimulus","response","task","image_index","folder","sequence_type","valuable_image_index","reward_type","chosen_image_index","target_X","correct_choice"
"true","false","[]","[]","[]","preload","0","5260","0.0-0.0","60FD9FAA02D7423FA95714B6B0B5A57B","019cf794-6712-7366-8faa-26f53e6f90c3","019cf78c-cfcf-769c-9016-9b96552b5e33","","","","","","","","","","","","",""
"","","","","","instructions","1","8378","0.0-1.0","60FD9FAA02D7423FA95714B6B0B5A57B","019cf794-6712-7366-8faa-26f53e6f90c3","019cf78c-cfcf-769c-9016-9b96552b5e33","[{""page_index"":0,""viewing_time"":3117}]","3117","","","","","","","","","","",""
"","","","","","instructions","2","45469","0.0-2.0","60FD9FAA02D7423FA95714B6B0B5A57B","019cf794-6712-7366-8faa-26f53e6f90c3","019cf78c-cfcf-769c-9016-9b96552b5e33","[{""page_index"":0,""viewing_time"":37090}]","37090","","","","","","","","","","",""
"true","","","","","fullscreen","3","64395","0.0-3.0","60FD9FAA02D7423FA95714B6B0B5A57B","019cf794-6712-7366-8faa-26f53e6f90c3","019cf78c-cfcf-769c-9016-9b96552b5e33","","17915","","","","","","","","","","",""
"","","","","","instructions","4","84850","0.0-4.0","60FD9FAA02D7423FA95714B6B0B5A57B","019cf794-6712-7366-8faa-26f53e6f90c3","019cf78c-cfcf-769c-9016-9b96552b5e33","[{""page_index"":0,""viewing_time"":20452}]","20452","","","","","","","","","","",""
"","","","","","instructions","5","91559","0.0-5.0","60FD9FAA02D7423FA95714B6B0B5A57B","019cf794-6712-7366-8faa-26f53e6f90c3","019cf78c-cfcf-769c-9016-9b96552b5e33","[{""page_index"":0,""viewing_time"":6709}]","6709","","","","","","","","","","",""
"","","","","","html-keyboard-response","6","95567","0.0-6.0","60FD9FAA02D7423FA95714B6B0B5A57B","019cf794-6712-7366-8faa-26f53e6f90c3","019cf78c-cfcf-769c-9016-9b96552b5e33","","null","
                <div class=""stimulus-container"">
                    <img src=""images/instructions/movie_1.png"" class=""exp-image"">
                    <div class=""question-area""></div> 
                </div>","null","","","","","","","","",""
"","","","","","html-button-response","7","98623","0.0-7.0","60FD9FAA02D7423FA95714B6B0B5A57B","019cf794-6712-7366-8faa-26f53e6f90c3","019cf78c-cfcf-769c-9016-9b96552b5e33","","null","
                <div class=""stimulus-container"">
                    <img src=""images/instructions/movie_1.png"" class=""exp-image"">
                    <div class=""question-area"">
                        <p style=""font-size: 20px; font-weight: bold; margin: 0;"">Was there a person in this image?</p>
                    </div>
                </div>","null","example_question","1","","","","","","",""
"","","","","","html-keyboard-response","8","102635","0.0-8.0","60FD9FAA02D7423FA95714B6B0B5A57B","019cf794-6712-7366-8faa-26f53e6f90c3","019cf78c-cfcf-769c-9016-9b96552b5e33","","null","
                <div class=""stimulus-container"">
                    <img src=""images/instructions/movie_2.png"" class=""exp-image"">
                    <div class=""question-area""></div> 
                </div>","null","","","","","","","","",""
"","","","","","html-button-response","9","104831","0.0-9.0","60FD9FAA02D7423FA95714B6B0B5A57B","019cf794-6712-7366-8faa-26f53e6f90c3","019cf78c-cfcf-769c-9016-9b96552b5e33","","2194","
                <div class=""stimulus-container"">
                    <img src=""images/instructions/movie_2.png"" class=""exp-image"">
                    <div class=""question-area"">
                        <p style=""font-size: 20px; font-weight: bold; margin: 0;"">Was there a person in this image?</p>
                    </div>
                </div>","0","example_question","2","","","","","","",""
"","","","","","html-keyboard-response","10","108891","0.0-10.0","60FD9FAA02D7423FA95714B6B0B5A57B","019cf794-6712-7366-8faa-26f53e6f90c3","019cf78c-cfcf-769c-9016-9b96552b5e33","","null","
                <div class=""stimulus-container"">
                    <img src=""images/instructions/movie_3.png"" class=""exp-image"">
                    <div class=""question-area""></div> 
                </div>","null","","","","","","","","",""
"","","","","","html-button-response","11","109962","0.0-11.0","60FD9FAA02D7423FA95714B6B0B5A57B","019cf794-6712-7366-8faa-26f53e6f90c3","019cf78c-cfcf-769c-9016-9b96552b5e33","","1068","
                <div class=""stimulus-container"">
                    <img src=""images/instructions/movie_3.png"" class=""exp-image"">
                    <div class=""question-area"">
                        <p style=""font-size: 20px; font-weight: bold; margin: 0;"">Was there a person in this image?</p>
                    </div>
                </div>","0","example_question","3","","","","","","",""
"","","","","","html-keyboard-response","12","113966","0.0-12.0","60FD9FAA02D7423FA95714B6B0B5A57B","019cf794-6712-7366-8faa-26f53e6f90c3","019cf78c-cfcf-769c-9016-9b96552b5e33","","null","
                <div class=""stimulus-container"">
                    <img src=""images/instructions/movie_4.png"" class=""exp-image"">
                    <div class=""question-area""></div> 
                </div>","null","","","","","","","","",""
"","","","","","html-button-response","13","116078","0.0-13.0","60FD9FAA02D7423FA95714B6B0B5A57B","019cf794-6712-7366-8faa-26f53e6f90c3","019cf78c-cfcf-769c-9016-9b96552b5e33","","2111","
                <div class=""stimulus-container"">
                    <img src=""images/instructions/movie_4.png"" class=""exp-image"">
                    <div class=""question-area"">
                        <p style=""font-size: 20px; font-weight: bold; margin: 0;"">Was there a person in this image?</p>
                    </div>
                </div>","0","example_question","4","","","","","","",""
"","","","","","instructions","14","120213","0.0-14.0","60FD9FAA02D7423FA95714B6B0B5A57B","019cf794-6712-7366-8faa-26f53e6f90c3","019cf78c-cfcf-769c-9016-9b96552b5e33","[{""page_index"":0,""viewing_time"":4135}]","4135","","","","","","","","","","",""
"","","","","","instructions","15","127569","0.0-15.0","60FD9FAA02D7423FA95714B6B0B5A57B","019cf794-6712-7366-8faa-26f53e6f90c3","019cf78c-cfcf-769c-9016-9b96552b5e33","[{""page_index"":0,""viewing_time"":7356}]","7356","","","","","","","","","","",""
"","","","","","html-keyboard-response","16","128581","0.0-16.0","60FD9FAA02D7423FA95714B6B0B5A57B","019cf794-6712-7366-8faa-26f53e6f90c3","019cf78c-cfcf-769c-9016-9b96552b5e33","","null","<div style=""background-color: white; width: 100vw; height: 100vh;""></div>","null","","","","","","","","",""
"","","","","","html-keyboard-response","17","133596","0.0-17.0","60FD9FAA02D7423FA95714B6B0B5A57B","019cf794-6712-7366-8faa-26f53e6f90c3","019cf78c-cfcf-769c-9016-9b96552b5e33","","null","
                <div class=""stimulus-container"">
                    <img src=""images/schematic_sequence/flight_scheme/flight_scheme_1.png"" class=""exp-image"">
                    <div class=""question-area""></div> 
                </div>","null","","","","","","","","",""
"","","","","","html-button-response","18","134937","0.0-18.0","60FD9FAA02D7423FA95714B6B0B5A57B","019cf794-6712-7366-8faa-26f53e6f90c3","019cf78c-cfcf-769c-9016-9b96552b5e33","","1342","
                <div class=""stimulus-container"">
                    <img src=""images/schematic_sequence/flight_scheme/flight_scheme_1.png"" class=""exp-image"">
                    <div class=""question-area"">
                        <p style=""font-size: 20px; font-weight: bold; margin: 0;"">Is there a person in this image?</p>
                    </div>
                </div>","0","main_experiment_trial","1","flight_scheme","schematic_sequence","","","","",""
"","","","","","html-keyboard-response","19","140155","0.0-19.0","60FD9FAA02D7423FA95714B6B0B5A57B","019cf794-6712-7366-8faa-26f53e6f90c3","019cf78c-cfcf-769c-9016-9b96552b5e33","","null","
                <div class=""stimulus-container"">
                    <img src=""images/schematic_sequence/flight_scheme/flight_scheme_2.png"" class=""exp-image"">
                    <div class=""question-area""></div> 
                </div>","null","","","","","","","","",""
"","","","","","html-button-response","20","141169","0.0-20.0","60FD9FAA02D7423FA95714B6B0B5A57B","019cf794-6712-7366-8faa-26f53e6f90c3","019cf78c-cfcf-769c-9016-9b96552b5e33","","1013","
                <div class=""stimulus-container"">
                    <img src=""images/schematic_sequence/flight_scheme/flight_scheme_2.png"" class=""exp-image"">
                    <div class=""question-area"">
                        <p style=""font-size: 20px; font-weight: bold; margin: 0;"">Is there a person in this image?</p>
                    </div>
                </div>","1","main_experiment_trial","2","flight_scheme","schematic_sequence","","","","",""
"","","","","","html-keyboard-response","21","146595","0.0-21.0","60FD9FAA02D7423FA95714B6B0B5A57B","019cf794-6712-7366-8faa-26f53e6f90c3","019cf78c-cfcf-769c-9016-9b96552b5e33","","null","
                <div class=""stimulus-container"">
                    <img src=""images/schematic_sequence/flight_scheme/flight_scheme_3.png"" class=""exp-image"">
                    <div class=""question-area""></div> 
                </div>","null","","","","","","","","",""
"","","","","","html-button-response","22","147519","0.0-22.0","60FD9FAA02D7423FA95714B6B0B5A57B","019cf794-6712-7366-8faa-26f53e6f90c3","019cf78c-cfcf-769c-9016-9b96552b5e33","","923","
                <div class=""stimulus-container"">
                    <img src=""images/schematic_sequence/flight_scheme/flight_scheme_3.png"" class=""exp-image"">
                    <div class=""question-area"">
                        <p style=""font-size: 20px; font-weight: bold; margin: 0;"">Is there a person in this image?</p>
                    </div>
                </div>","0","main_experiment_trial","3","flight_scheme","schematic_sequence","","","","",""
"","","","","","html-keyboard-response","23","153064","0.0-23.0","60FD9FAA02D7423FA95714B6B0B5A57B","019cf794-6712-7366-8faa-26f53e6f90c3","019cf78c-cfcf-769c-9016-9b96552b5e33","","null","
                <div class=""stimulus-container"">
                    <img src=""images/schematic_sequence/flight_scheme/flight_scheme_4.png"" class=""exp-image"">
                    <div class=""question-area""></div> 
                </div>","null","","","","","","","","",""
"","","","","","html-button-response","24","154885","0.0-24.0","60FD9FAA02D7423FA95714B6B0B5A57B","019cf794-6712-7366-8faa-26f53e6f90c3","019cf78c-cfcf-769c-9016-9b96552b5e33","","1821","
                <div class=""stimulus-container"">
                    <img src=""images/schematic_sequence/flight_scheme/flight_scheme_4.png"" class=""exp-image"">
                    <div class=""question-area"">
                        <p style=""font-size: 20px; font-weight: bold; margin: 0;"">Is there a person in this image?</p>
                    </div>
                </div>","0","main_experiment_trial","4","flight_scheme","schematic_sequence","","","","",""
"","","","","","html-keyboard-response","25","160329","0.0-25.0","60FD9FAA02D7423FA95714B6B0B5A57B","019cf794-6712-7366-8faa-26f53e6f90c3","019cf78c-cfcf-769c-9016-9b96552b5e33","","null","
                <div class=""stimulus-container"">
                    <img src=""images/schematic_sequence/flight_scheme/flight_scheme_5.png"" class=""exp-image"">
                    <div class=""question-area""></div> 
                </div>","null","","","","","","","","",""
"","","","","","html-button-response","26","161204","0.0-26.0","60FD9FAA02D7423FA95714B6B0B5A57B","019cf794-6712-7366-8faa-26f53e6f90c3","019cf78c-cfcf-769c-9016-9b96552b5e33","","872","
                <div class=""stimulus-container"">
                    <img src=""images/schematic_sequence/flight_scheme/flight_scheme_5.png"" class=""exp-image"">
                    <div class=""question-area"">
                        <p style=""font-size: 20px; font-weight: bold; margin: 0;"">Is there a person in this image?</p>
                    </div>
                </div>","0","main_experiment_trial","5","flight_scheme","schematic_sequence","","","","",""
"","","","","","html-keyboard-response","27","166497","0.0-27.0","60FD9FAA02D7423FA95714B6B0B5A57B","019cf794-6712-7366-8faa-26f53e6f90c3","019cf78c-cfcf-769c-9016-9b96552b5e33","","null","
                <div class=""stimulus-container"">
                    <img src=""images/schematic_sequence/flight_scheme/flight_scheme_6.png"" class=""exp-image"">
                    <div class=""question-area""></div> 
                </div>","null","","","","","","","","",""
"","","","","","html-button-response","28","167895","0.0-28.0","60FD9FAA02D7423FA95714B6B0B5A57B","019cf794-6712-7366-8faa-26f53e6f90c3","019cf78c-cfcf-769c-9016-9b96552b5e33","","1398","
                <div class=""stimulus-container"">
                    <img src=""images/schematic_sequence/flight_scheme/flight_scheme_6.png"" class=""exp-image"">
                    <div class=""question-area"">
                        <p style=""font-size: 20px; font-weight: bold; margin: 0;"">Is there a person in this image?</p>
                    </div>
                </div>","1","main_experiment_trial","6","flight_scheme","schematic_sequence","","","","",""
"","","","","","html-keyboard-response","29","172997","0.0-29.0","60FD9FAA02D7423FA95714B6B0B5A57B","019cf794-6712-7366-8faa-26f53e6f90c3","019cf78c-cfcf-769c-9016-9b96552b5e33","","null","
                <div class=""stimulus-container"">
                    <img src=""images/schematic_sequence/flight_scheme/flight_scheme_7.png"" class=""exp-image"">
                    <div class=""question-area""></div> 
                </div>","null","","","","","","","","",""
"","","","","","html-button-response","30","174025","0.0-30.0","60FD9FAA02D7423FA95714B6B0B5A57B","019cf794-6712-7366-8faa-26f53e6f90c3","019cf78c-cfcf-769c-9016-9b96552b5e33","","1027","
                <div class=""stimulus-container"">
                    <img src=""images/schematic_sequence/flight_scheme/flight_scheme_7.png"" class=""exp-image"">
                    <div class=""question-area"">
                        <p style=""font-size: 20px; font-weight: bold; margin: 0;"">Is there a person in this image?</p>
                    </div>
                </div>","1","main_experiment_trial","7","flight_scheme","schematic_sequence","","","","",""
"","","","","","html-keyboard-response","31","179028","0.0-31.0","60FD9FAA02D7423FA95714B6B0B5A57B","019cf794-6712-7366-8faa-26f53e6f90c3","019cf78c-cfcf-769c-9016-9b96552b5e33","","null","
                <div class=""stimulus-container"">
                    <img src=""images/schematic_sequence/flight_scheme/flight_scheme_8.png"" class=""exp-image"">
                    <div class=""question-area""></div> 
                </div>","null","","","","","","","","",""
"","","","","","html-button-response","32","182394","0.0-32.0","60FD9FAA02D7423FA95714B6B0B5A57B","019cf794-6712-7366-8faa-26f53e6f90c3","019cf78c-cfcf-769c-9016-9b96552b5e33","","null","
                <div class=""stimulus-container"">
                    <img src=""images/schematic_sequence/flight_scheme/flight_scheme_8.png"" class=""exp-image"">
                    <div class=""question-area"">
                        <p style=""font-size: 20px; font-weight: bold; margin: 0;"">Is there a person in this image?</p>
                    </div>
                </div>","null","main_experiment_trial","8","flight_scheme","schematic_sequence","","","","",""
"","","","","","html-keyboard-response","33","187406","0.0-33.0","60FD9FAA02D7423FA95714B6B0B5A57B","019cf794-6712-7366-8faa-26f53e6f90c3","019cf78c-cfcf-769c-9016-9b96552b5e33","","null","
                <div class=""stimulus-container"">
                    <img src=""images/schematic_sequence/flight_scheme/flight_scheme_9.png"" class=""exp-image"">
                    <div class=""question-area""></div> 
                </div>","null","","","","","","","","",""
"","","","","","html-button-response","34","188375","0.0-34.0","60FD9FAA02D7423FA95714B6B0B5A57B","019cf794-6712-7366-8faa-26f53e6f90c3","019cf78c-cfcf-769c-9016-9b96552b5e33","","969","
                <div class=""stimulus-container"">
                    <img src=""images/schematic_sequence/flight_scheme/flight_scheme_9.png"" class=""exp-image"">
                    <div class=""question-area"">
                        <p style=""font-size: 20px; font-weight: bold; margin: 0;"">Is there a person in this image?</p>
                    </div>
                </div>","0","main_experiment_trial","9","flight_scheme","schematic_sequence","","","","",""
"","","","","","html-keyboard-response","35","193391","0.0-35.0","60FD9FAA02D7423FA95714B6B0B5A57B","019cf794-6712-7366-8faa-26f53e6f90c3","019cf78c-cfcf-769c-9016-9b96552b5e33","","null","
                <div class=""stimulus-container"">
                    <img src=""images/schematic_sequence/flight_scheme/flight_scheme_ten.png"" class=""exp-image"">
                    <div class=""question-area""></div> 
                </div>","null","","","","","","","","",""
"","","","","","html-button-response","36","194561","0.0-36.0","60FD9FAA02D7423FA95714B6B0B5A57B","019cf794-6712-7366-8faa-26f53e6f90c3","019cf78c-cfcf-769c-9016-9b96552b5e33","","1168","
                <div class=""stimulus-container"">
                    <img src=""images/schematic_sequence/flight_scheme/flight_scheme_ten.png"" class=""exp-image"">
                    <div class=""question-area"">
                        <p style=""font-size: 20px; font-weight: bold; margin: 0;"">Is there a person in this image?</p>
                    </div>
                </div>","0","main_experiment_trial","ten","flight_scheme","schematic_sequence","","","","",""
"","","","","","html-keyboard-response","37","195567","0.0-37.0","60FD9FAA02D7423FA95714B6B0B5A57B","019cf794-6712-7366-8faa-26f53e6f90c3","019cf78c-cfcf-769c-9016-9b96552b5e33","","null","<div style=""background-color: white; width: 100vw; height: 100vh;""></div>","null","","","","","","","","",""
"","","","","","html-keyboard-response","38","200583","0.0-38.0","60FD9FAA02D7423FA95714B6B0B5A57B","019cf794-6712-7366-8faa-26f53e6f90c3","019cf78c-cfcf-769c-9016-9b96552b5e33","","null","
                <div class=""stimulus-container"">
                    <img src=""images/semantic_sequence/kitchen_operations_semantic/kitchen_operations_semantic_1.png"" class=""exp-image"">
                    <div class=""question-area""></div> 
                </div>","null","","","","","","","","",""
"","","","","","html-button-response","39","201391","0.0-39.0","60FD9FAA02D7423FA95714B6B0B5A57B","019cf794-6712-7366-8faa-26f53e6f90c3","019cf78c-cfcf-769c-9016-9b96552b5e33","","808","
                <div class=""stimulus-container"">
                    <img src=""images/semantic_sequence/kitchen_operations_semantic/kitchen_operations_semantic_1.png"" class=""exp-image"">
                    <div class=""question-area"">
                        <p style=""font-size: 20px; font-weight: bold; margin: 0;"">Is there a person in this image?</p>
                    </div>
                </div>","0","main_experiment_trial","1","kitchen_operations_semantic","semantic_sequence","","","","",""
"","","","","","html-keyboard-response","40","206551","0.0-40.0","60FD9FAA02D7423FA95714B6B0B5A57B","019cf794-6712-7366-8faa-26f53e6f90c3","019cf78c-cfcf-769c-9016-9b96552b5e33","","null","
                <div class=""stimulus-container"">
                    <img src=""images/semantic_sequence/kitchen_operations_semantic/kitchen_operations_semantic_2.png"" class=""exp-image"">
                    <div class=""question-area""></div> 
                </div>","null","","","","","","","","",""
"","","","","","html-button-response","41","207489","0.0-41.0","60FD9FAA02D7423FA95714B6B0B5A57B","019cf794-6712-7366-8faa-26f53e6f90c3","019cf78c-cfcf-769c-9016-9b96552b5e33","","937","
                <div class=""stimulus-container"">
                    <img src=""images/semantic_sequence/kitchen_operations_semantic/kitchen_operations_semantic_2.png"" class=""exp-image"">
                    <div class=""question-area"">
                        <p style=""font-size: 20px; font-weight: bold; margin: 0;"">Is there a person in this image?</p>
                    </div>
                </div>","0","main_experiment_trial","2","kitchen_operations_semantic","semantic_sequence","","","","",""
"","","","","","html-keyboard-response","42","212491","0.0-42.0","60FD9FAA02D7423FA95714B6B0B5A57B","019cf794-6712-7366-8faa-26f53e6f90c3","019cf78c-cfcf-769c-9016-9b96552b5e33","","null","
                <div class=""stimulus-container"">
                    <img src=""images/semantic_sequence/kitchen_operations_semantic/kitchen_operations_semantic_3.png"" class=""exp-image"">
                    <div class=""question-area""></div> 
                </div>","null","","","","","","","","",""
"","","","","","html-button-response","43","213574","0.0-43.0","60FD9FAA02D7423FA95714B6B0B5A57B","019cf794-6712-7366-8faa-26f53e6f90c3","019cf78c-cfcf-769c-9016-9b96552b5e33","","1082","
                <div class=""stimulus-container"">
                    <img src=""images/semantic_sequence/kitchen_operations_semantic/kitchen_operations_semantic_3.png"" class=""exp-image"">
                    <div class=""question-area"">
                        <p style=""font-size: 20px; font-weight: bold; margin: 0;"">Is there a person in this image?</p>
                    </div>
                </div>","0","main_experiment_trial","3","kitchen_operations_semantic","semantic_sequence","","","","",""
"","","","","","html-keyboard-response","44","218581","0.0-44.0","60FD9FAA02D7423FA95714B6B0B5A57B","019cf794-6712-7366-8faa-26f53e6f90c3","019cf78c-cfcf-769c-9016-9b96552b5e33","","null","
                <div class=""stimulus-container"">
                    <img src=""images/semantic_sequence/kitchen_operations_semantic/kitchen_operations_semantic_4.png"" class=""exp-image"">
                    <div class=""question-area""></div> 
                </div>","null","","","","","","","","",""
"","","","","","html-button-response","45","219558","0.0-45.0","60FD9FAA02D7423FA95714B6B0B5A57B","019cf794-6712-7366-8faa-26f53e6f90c3","019cf78c-cfcf-769c-9016-9b96552b5e33","","976","
                <div class=""stimulus-container"">
                    <img src=""images/semantic_sequence/kitchen_operations_semantic/kitchen_operations_semantic_4.png"" class=""exp-image"">
                    <div class=""question-area"">
                        <p style=""font-size: 20px; font-weight: bold; margin: 0;"">Is there a person in this image?</p>
                    </div>
                </div>","0","main_experiment_trial","4","kitchen_operations_semantic","semantic_sequence","","","","",""
"","","","","","html-keyboard-response","46","224784","0.0-46.0","60FD9FAA02D7423FA95714B6B0B5A57B","019cf794-6712-7366-8faa-26f53e6f90c3","019cf78c-cfcf-769c-9016-9b96552b5e33","","null","
                <div class=""stimulus-container"">
                    <img src=""images/semantic_sequence/kitchen_operations_semantic/kitchen_operations_semantic_5.png"" class=""exp-image"">
                    <div class=""question-area""></div> 
                </div>","null","","","","","","","","",""
"","","","","","html-button-response","47","226159","0.0-47.0","60FD9FAA02D7423FA95714B6B0B5A57B","019cf794-6712-7366-8faa-26f53e6f90c3","019cf78c-cfcf-769c-9016-9b96552b5e33","","1374","
                <div class=""stimulus-container"">
                    <img src=""images/semantic_sequence/kitchen_operations_semantic/kitchen_operations_semantic_5.png"" class=""exp-image"">
                    <div class=""question-area"">
                        <p style=""font-size: 20px; font-weight: bold; margin: 0;"">Is there a person in this image?</p>
                    </div>
                </div>","0","main_experiment_trial","5","kitchen_operations_semantic","semantic_sequence","","","","",""
"","","","","","html-keyboard-response","48","231360","0.0-48.0","60FD9FAA02D7423FA95714B6B0B5A57B","019cf794-6712-7366-8faa-26f53e6f90c3","019cf78c-cfcf-769c-9016-9b96552b5e33","","null","
                <div class=""stimulus-container"">
                    <img src=""images/semantic_sequence/kitchen_operations_semantic/kitchen_operations_semantic_6.png"" class=""exp-image"">
                    <div class=""question-area""></div> 
                </div>","null","","","","","","","","",""
"","","","","","html-button-response","49","232097","0.0-49.0","60FD9FAA02D7423FA95714B6B0B5A57B","019cf794-6712-7366-8faa-26f53e6f90c3","019cf78c-cfcf-769c-9016-9b96552b5e33","","736","
                <div class=""stimulus-container"">
                    <img src=""images/semantic_sequence/kitchen_operations_semantic/kitchen_operations_semantic_6.png"" class=""exp-image"">
                    <div class=""question-area"">
                        <p style=""font-size: 20px; font-weight: bold; margin: 0;"">Is there a person in this image?</p>
                    </div>
                </div>","0","main_experiment_trial","6","kitchen_operations_semantic","semantic_sequence","","","","",""
"","","","","","html-keyboard-response","50","237545","0.0-50.0","60FD9FAA02D7423FA95714B6B0B5A57B","019cf794-6712-7366-8faa-26f53e6f90c3","019cf78c-cfcf-769c-9016-9b96552b5e33","","null","
                <div class=""stimulus-container"">
                    <img src=""images/semantic_sequence/kitchen_operations_semantic/kitchen_operations_semantic_7.png"" class=""exp-image"">
                    <div class=""question-area""></div> 
                </div>","null","","","","","","","","",""
"","","","","","html-button-response","51","238499","0.0-51.0","60FD9FAA02D7423FA95714B6B0B5A57B","019cf794-6712-7366-8faa-26f53e6f90c3","019cf78c-cfcf-769c-9016-9b96552b5e33","","955","
                <div class=""stimulus-container"">
                    <img src=""images/semantic_sequence/kitchen_operations_semantic/kitchen_operations_semantic_7.png"" class=""exp-image"">
                    <div class=""question-area"">
                        <p style=""font-size: 20px; font-weight: bold; margin: 0;"">Is there a person in this image?</p>
                    </div>
                </div>","0","main_experiment_trial","7","kitchen_operations_semantic","semantic_sequence","","","","",""
"","","","","","html-keyboard-response","52","243927","0.0-52.0","60FD9FAA02D7423FA95714B6B0B5A57B","019cf794-6712-7366-8faa-26f53e6f90c3","019cf78c-cfcf-769c-9016-9b96552b5e33","","null","
                <div class=""stimulus-container"">
                    <img src=""images/semantic_sequence/kitchen_operations_semantic/kitchen_operations_semantic_8.png"" class=""exp-image"">
                    <div class=""question-area""></div> 
                </div>","null","","","","","","","","",""
"","","","","","html-button-response","53","244773","0.0-53.0","60FD9FAA02D7423FA95714B6B0B5A57B","019cf794-6712-7366-8faa-26f53e6f90c3","019cf78c-cfcf-769c-9016-9b96552b5e33","","844","
                <div class=""stimulus-container"">
                    <img src=""images/semantic_sequence/kitchen_operations_semantic/kitchen_operations_semantic_8.png"" class=""exp-image"">
                    <div class=""question-area"">
                        <p style=""font-size: 20px; font-weight: bold; margin: 0;"">Is there a person in this image?</p>
                    </div>
                </div>","0","main_experiment_trial","8","kitchen_operations_semantic","semantic_sequence","","","","",""
"","","","","","html-keyboard-response","54","249777","0.0-54.0","60FD9FAA02D7423FA95714B6B0B5A57B","019cf794-6712-7366-8faa-26f53e6f90c3","019cf78c-cfcf-769c-9016-9b96552b5e33","","null","
                <div class=""stimulus-container"">
                    <img src=""images/semantic_sequence/kitchen_operations_semantic/kitchen_operations_semantic_9.png"" class=""exp-image"">
                    <div class=""question-area""></div> 
                </div>","null","","","","","","","","",""
"","","","","","html-button-response","55","250679","0.0-55.0","60FD9FAA02D7423FA95714B6B0B5A57B","019cf794-6712-7366-8faa-26f53e6f90c3","019cf78c-cfcf-769c-9016-9b96552b5e33","","901","
                <div class=""stimulus-container"">
                    <img src=""images/semantic_sequence/kitchen_operations_semantic/kitchen_operations_semantic_9.png"" class=""exp-image"">
                    <div class=""question-area"">
                        <p style=""font-size: 20px; font-weight: bold; margin: 0;"">Is there a person in this image?</p>
                    </div>
                </div>","0","main_experiment_trial","9","kitchen_operations_semantic","semantic_sequence","","","","",""
"","","","","","html-keyboard-response","56","255949","0.0-56.0","60FD9FAA02D7423FA95714B6B0B5A57B","019cf794-6712-7366-8faa-26f53e6f90c3","019cf78c-cfcf-769c-9016-9b96552b5e33","","null","
                <div class=""stimulus-container"">
                    <img src=""images/semantic_sequence/kitchen_operations_semantic/kitchen_operations_semantic_ten.png"" class=""exp-image"">
                    <div class=""question-area""></div> 
                </div>","null","","","","","","","","",""
"","","","","","html-button-response","57","256946","0.0-57.0","60FD9FAA02D7423FA95714B6B0B5A57B","019cf794-6712-7366-8faa-26f53e6f90c3","019cf78c-cfcf-769c-9016-9b96552b5e33","","996","
                <div class=""stimulus-container"">
                    <img src=""images/semantic_sequence/kitchen_operations_semantic/kitchen_operations_semantic_ten.png"" class=""exp-image"">
                    <div class=""question-area"">
                        <p style=""font-size: 20px; font-weight: bold; margin: 0;"">Is there a person in this image?</p>
                    </div>
                </div>","0","main_experiment_trial","ten","kitchen_operations_semantic","semantic_sequence","","","","",""
"","","","","","html-keyboard-response","58","257949","0.0-58.0","60FD9FAA02D7423FA95714B6B0B5A57B","019cf794-6712-7366-8faa-26f53e6f90c3","019cf78c-cfcf-769c-9016-9b96552b5e33","","null","<div style=""background-color: white; width: 100vw; height: 100vh;""></div>","null","","","","","","","","",""
"","","","","","html-keyboard-response","59","263139","0.0-59.0","60FD9FAA02D7423FA95714B6B0B5A57B","019cf794-6712-7366-8faa-26f53e6f90c3","019cf78c-cfcf-769c-9016-9b96552b5e33","","null","
                <div class=""stimulus-container"">
                    <img src=""images/semantic_sequence/market_semantic/market_semantic_1.png"" class=""exp-image"">
                    <div class=""question-area""></div> 
                </div>","null","","","","","","","","",""
"","","","","","html-button-response","60","264205","0.0-60.0","60FD9FAA02D7423FA95714B6B0B5A57B","019cf794-6712-7366-8faa-26f53e6f90c3","019cf78c-cfcf-769c-9016-9b96552b5e33","","1066","
                <div class=""stimulus-container"">
                    <img src=""images/semantic_sequence/market_semantic/market_semantic_1.png"" class=""exp-image"">
                    <div class=""question-area"">
                        <p style=""font-size: 20px; font-weight: bold; margin: 0;"">Is there a person in this image?</p>
                    </div>
                </div>","1","main_experiment_trial","1","market_semantic","semantic_sequence","","","","",""
"","","","","","html-keyboard-response","61","269218","0.0-61.0","60FD9FAA02D7423FA95714B6B0B5A57B","019cf794-6712-7366-8faa-26f53e6f90c3","019cf78c-cfcf-769c-9016-9b96552b5e33","","null","
                <div class=""stimulus-container"">
                    <img src=""images/semantic_sequence/market_semantic/market_semantic_2.png"" class=""exp-image"">
                    <div class=""question-area""></div> 
                </div>","null","","","","","","","","",""
"","","","","","html-button-response","62","270145","0.0-62.0","60FD9FAA02D7423FA95714B6B0B5A57B","019cf794-6712-7366-8faa-26f53e6f90c3","019cf78c-cfcf-769c-9016-9b96552b5e33","","926","
                <div class=""stimulus-container"">
                    <img src=""images/semantic_sequence/market_semantic/market_semantic_2.png"" class=""exp-image"">
                    <div class=""question-area"">
                        <p style=""font-size: 20px; font-weight: bold; margin: 0;"">Is there a person in this image?</p>
                    </div>
                </div>","1","main_experiment_trial","2","market_semantic","semantic_sequence","","","","",""
"","","","","","html-keyboard-response","63","275278","0.0-63.0","60FD9FAA02D7423FA95714B6B0B5A57B","019cf794-6712-7366-8faa-26f53e6f90c3","019cf78c-cfcf-769c-9016-9b96552b5e33","","null","
                <div class=""stimulus-container"">
                    <img src=""images/semantic_sequence/market_semantic/market_semantic_3.png"" class=""exp-image"">
                    <div class=""question-area""></div> 
                </div>","null","","","","","","","","",""
"","","","","","html-button-response","64","276097","0.0-64.0","60FD9FAA02D7423FA95714B6B0B5A57B","019cf794-6712-7366-8faa-26f53e6f90c3","019cf78c-cfcf-769c-9016-9b96552b5e33","","819","
                <div class=""stimulus-container"">
                    <img src=""images/semantic_sequence/market_semantic/market_semantic_3.png"" class=""exp-image"">
                    <div class=""question-area"">
                        <p style=""font-size: 20px; font-weight: bold; margin: 0;"">Is there a person in this image?</p>
                    </div>
                </div>","1","main_experiment_trial","3","market_semantic","semantic_sequence","","","","",""
"","","","","","html-keyboard-response","65","281426","0.0-65.0","60FD9FAA02D7423FA95714B6B0B5A57B","019cf794-6712-7366-8faa-26f53e6f90c3","019cf78c-cfcf-769c-9016-9b96552b5e33","","null","
                <div class=""stimulus-container"">
                    <img src=""images/semantic_sequence/market_semantic/market_semantic_4.png"" class=""exp-image"">
                    <div class=""question-area""></div> 
                </div>","null","","","","","","","","",""
"","","","","","html-button-response","66","282507","0.0-66.0","60FD9FAA02D7423FA95714B6B0B5A57B","019cf794-6712-7366-8faa-26f53e6f90c3","019cf78c-cfcf-769c-9016-9b96552b5e33","","1081","
                <div class=""stimulus-container"">
                    <img src=""images/semantic_sequence/market_semantic/market_semantic_4.png"" class=""exp-image"">
                    <div class=""question-area"">
                        <p style=""font-size: 20px; font-weight: bold; margin: 0;"">Is there a person in this image?</p>
                    </div>
                </div>","0","main_experiment_trial","4","market_semantic","semantic_sequence","","","","",""
"","","","","","html-keyboard-response","67","287692","0.0-67.0","60FD9FAA02D7423FA95714B6B0B5A57B","019cf794-6712-7366-8faa-26f53e6f90c3","019cf78c-cfcf-769c-9016-9b96552b5e33","","null","
                <div class=""stimulus-container"">
                    <img src=""images/semantic_sequence/market_semantic/market_semantic_5.png"" class=""exp-image"">
                    <div class=""question-area""></div> 
                </div>","null","","","","","","","","",""
"","","","","","html-button-response","68","288453","0.0-68.0","60FD9FAA02D7423FA95714B6B0B5A57B","019cf794-6712-7366-8faa-26f53e6f90c3","019cf78c-cfcf-769c-9016-9b96552b5e33","","761","
                <div class=""stimulus-container"">
                    <img src=""images/semantic_sequence/market_semantic/market_semantic_5.png"" class=""exp-image"">
                    <div class=""question-area"">
                        <p style=""font-size: 20px; font-weight: bold; margin: 0;"">Is there a person in this image?</p>
                    </div>
                </div>","1","main_experiment_trial","5","market_semantic","semantic_sequence","","","","",""
"","","","","","html-keyboard-response","69","293500","0.0-69.0","60FD9FAA02D7423FA95714B6B0B5A57B","019cf794-6712-7366-8faa-26f53e6f90c3","019cf78c-cfcf-769c-9016-9b96552b5e33","","null","
                <div class=""stimulus-container"">
                    <img src=""images/semantic_sequence/market_semantic/market_semantic_6.png"" class=""exp-image"">
                    <div class=""question-area""></div> 
                </div>","null","","","","","","","","",""
"","","","","","html-button-response","70","294843","0.0-70.0","60FD9FAA02D7423FA95714B6B0B5A57B","019cf794-6712-7366-8faa-26f53e6f90c3","019cf78c-cfcf-769c-9016-9b96552b5e33","","1342","
                <div class=""stimulus-container"">
                    <img src=""images/semantic_sequence/market_semantic/market_semantic_6.png"" class=""exp-image"">
                    <div class=""question-area"">
                        <p style=""font-size: 20px; font-weight: bold; margin: 0;"">Is there a person in this image?</p>
                    </div>
                </div>","0","main_experiment_trial","6","market_semantic","semantic_sequence","","","","",""
"","","","","","html-keyboard-response","71","299844","0.0-71.0","60FD9FAA02D7423FA95714B6B0B5A57B","019cf794-6712-7366-8faa-26f53e6f90c3","019cf78c-cfcf-769c-9016-9b96552b5e33","","null","
                <div class=""stimulus-container"">
                    <img src=""images/semantic_sequence/market_semantic/market_semantic_7.png"" class=""exp-image"">
                    <div class=""question-area""></div> 
                </div>","null","","","","","","","","",""
"","","","","","html-button-response","72","300805","0.0-72.0","60FD9FAA02D7423FA95714B6B0B5A57B","019cf794-6712-7366-8faa-26f53e6f90c3","019cf78c-cfcf-769c-9016-9b96552b5e33","","960","
                <div class=""stimulus-container"">
                    <img src=""images/semantic_sequence/market_semantic/market_semantic_7.png"" class=""exp-image"">
                    <div class=""question-area"">
                        <p style=""font-size: 20px; font-weight: bold; margin: 0;"">Is there a person in this image?</p>
                    </div>
                </div>","0","main_experiment_trial","7","market_semantic","semantic_sequence","","","","",""
"","","","","","html-keyboard-response","73","305818","0.0-73.0","60FD9FAA02D7423FA95714B6B0B5A57B","019cf794-6712-7366-8faa-26f53e6f90c3","019cf78c-cfcf-769c-9016-9b96552b5e33","","null","
                <div class=""stimulus-container"">
                    <img src=""images/semantic_sequence/market_semantic/market_semantic_8.png"" class=""exp-image"">
                    <div class=""question-area""></div> 
                </div>","null","","","","","","","","",""
"","","","","","html-button-response","74","307093","0.0-74.0","60FD9FAA02D7423FA95714B6B0B5A57B","019cf794-6712-7366-8faa-26f53e6f90c3","019cf78c-cfcf-769c-9016-9b96552b5e33","","1275","
                <div class=""stimulus-container"">
                    <img src=""images/semantic_sequence/market_semantic/market_semantic_8.png"" class=""exp-image"">
                    <div class=""question-area"">
                        <p style=""font-size: 20px; font-weight: bold; margin: 0;"">Is there a person in this image?</p>
                    </div>
                </div>","0","main_experiment_trial","8","market_semantic","semantic_sequence","","","","",""
"","","","","","html-keyboard-response","75","312106","0.0-75.0","60FD9FAA02D7423FA95714B6B0B5A57B","019cf794-6712-7366-8faa-26f53e6f90c3","019cf78c-cfcf-769c-9016-9b96552b5e33","","null","
                <div class=""stimulus-container"">
                    <img src=""images/semantic_sequence/market_semantic/market_semantic_9.png"" class=""exp-image"">
                    <div class=""question-area""></div> 
                </div>","null","","","","","","","","",""
"","","","","","html-button-response","76","313191","0.0-76.0","60FD9FAA02D7423FA95714B6B0B5A57B","019cf794-6712-7366-8faa-26f53e6f90c3","019cf78c-cfcf-769c-9016-9b96552b5e33","","1085","
                <div class=""stimulus-container"">
                    <img src=""images/semantic_sequence/market_semantic/market_semantic_9.png"" class=""exp-image"">
                    <div class=""question-area"">
                        <p style=""font-size: 20px; font-weight: bold; margin: 0;"">Is there a person in this image?</p>
                    </div>
                </div>","0","main_experiment_trial","9","market_semantic","semantic_sequence","","","","",""
"","","","","","html-keyboard-response","77","318298","0.0-77.0","60FD9FAA02D7423FA95714B6B0B5A57B","019cf794-6712-7366-8faa-26f53e6f90c3","019cf78c-cfcf-769c-9016-9b96552b5e33","","null","
                <div class=""stimulus-container"">
                    <img src=""images/semantic_sequence/market_semantic/market_semantic_ten.png"" class=""exp-image"">
                    <div class=""question-area""></div> 
                </div>","null","","","","","","","","",""
"","","","","","html-button-response","78","319231","0.0-78.0","60FD9FAA02D7423FA95714B6B0B5A57B","019cf794-6712-7366-8faa-26f53e6f90c3","019cf78c-cfcf-769c-9016-9b96552b5e33","","933","
                <div class=""stimulus-container"">
                    <img src=""images/semantic_sequence/market_semantic/market_semantic_ten.png"" class=""exp-image"">
                    <div class=""question-area"">
                        <p style=""font-size: 20px; font-weight: bold; margin: 0;"">Is there a person in this image?</p>
                    </div>
                </div>","1","main_experiment_trial","ten","market_semantic","semantic_sequence","","","","",""
"","","","","","html-keyboard-response","79","320243","0.0-79.0","60FD9FAA02D7423FA95714B6B0B5A57B","019cf794-6712-7366-8faa-26f53e6f90c3","019cf78c-cfcf-769c-9016-9b96552b5e33","","null","<div style=""background-color: white; width: 100vw; height: 100vh;""></div>","null","","","","","","","","",""
"","","","","","html-keyboard-response","80","325356","0.0-80.0","60FD9FAA02D7423FA95714B6B0B5A57B","019cf794-6712-7366-8faa-26f53e6f90c3","019cf78c-cfcf-769c-9016-9b96552b5e33","","null","
                <div class=""stimulus-container"">
                    <img src=""images/semantic_sequence/visiting_cities_semantic/visiting_cities_semantic_1.png"" class=""exp-image"">
                    <div class=""question-area""></div> 
                </div>","null","","","","","","","","",""
"","","","","","html-button-response","81","326289","0.0-81.0","60FD9FAA02D7423FA95714B6B0B5A57B","019cf794-6712-7366-8faa-26f53e6f90c3","019cf78c-cfcf-769c-9016-9b96552b5e33","","932","
                <div class=""stimulus-container"">
                    <img src=""images/semantic_sequence/visiting_cities_semantic/visiting_cities_semantic_1.png"" class=""exp-image"">
                    <div class=""question-area"">
                        <p style=""font-size: 20px; font-weight: bold; margin: 0;"">Is there a person in this image?</p>
                    </div>
                </div>","0","main_experiment_trial","1","visiting_cities_semantic","semantic_sequence","","","","",""
"","","","","","html-keyboard-response","82","331803","0.0-82.0","60FD9FAA02D7423FA95714B6B0B5A57B","019cf794-6712-7366-8faa-26f53e6f90c3","019cf78c-cfcf-769c-9016-9b96552b5e33","","null","
                <div class=""stimulus-container"">
                    <img src=""images/semantic_sequence/visiting_cities_semantic/visiting_cities_semantic_2.png"" class=""exp-image"">
                    <div class=""question-area""></div> 
                </div>","null","","","","","","","","",""
"","","","","","html-button-response","83","332668","0.0-83.0","60FD9FAA02D7423FA95714B6B0B5A57B","019cf794-6712-7366-8faa-26f53e6f90c3","019cf78c-cfcf-769c-9016-9b96552b5e33","","864","
                <div class=""stimulus-container"">
                    <img src=""images/semantic_sequence/visiting_cities_semantic/visiting_cities_semantic_2.png"" class=""exp-image"">
                    <div class=""question-area"">
                        <p style=""font-size: 20px; font-weight: bold; margin: 0;"">Is there a person in this image?</p>
                    </div>
                </div>","1","main_experiment_trial","2","visiting_cities_semantic","semantic_sequence","","","","",""
"","","","","","html-keyboard-response","84","337837","0.0-84.0","60FD9FAA02D7423FA95714B6B0B5A57B","019cf794-6712-7366-8faa-26f53e6f90c3","019cf78c-cfcf-769c-9016-9b96552b5e33","","null","
                <div class=""stimulus-container"">
                    <img src=""images/semantic_sequence/visiting_cities_semantic/visiting_cities_semantic_3.png"" class=""exp-image"">
                    <div class=""question-area""></div> 
                </div>","null","","","","","","","","",""
"","","","","","html-button-response","85","338971","0.0-85.0","60FD9FAA02D7423FA95714B6B0B5A57B","019cf794-6712-7366-8faa-26f53e6f90c3","019cf78c-cfcf-769c-9016-9b96552b5e33","","1133","
                <div class=""stimulus-container"">
                    <img src=""images/semantic_sequence/visiting_cities_semantic/visiting_cities_semantic_3.png"" class=""exp-image"">
                    <div class=""question-area"">
                        <p style=""font-size: 20px; font-weight: bold; margin: 0;"">Is there a person in this image?</p>
                    </div>
                </div>","1","main_experiment_trial","3","visiting_cities_semantic","semantic_sequence","","","","",""
"","","","","","html-keyboard-response","86","344155","0.0-86.0","60FD9FAA02D7423FA95714B6B0B5A57B","019cf794-6712-7366-8faa-26f53e6f90c3","019cf78c-cfcf-769c-9016-9b96552b5e33","","null","
                <div class=""stimulus-container"">
                    <img src=""images/semantic_sequence/visiting_cities_semantic/visiting_cities_semantic_4.png"" class=""exp-image"">
                    <div class=""question-area""></div> 
                </div>","null","","","","","","","","",""
"","","","","","html-button-response","87","344939","0.0-87.0","60FD9FAA02D7423FA95714B6B0B5A57B","019cf794-6712-7366-8faa-26f53e6f90c3","019cf78c-cfcf-769c-9016-9b96552b5e33","","783","
                <div class=""stimulus-container"">
                    <img src=""images/semantic_sequence/visiting_cities_semantic/visiting_cities_semantic_4.png"" class=""exp-image"">
                    <div class=""question-area"">
                        <p style=""font-size: 20px; font-weight: bold; margin: 0;"">Is there a person in this image?</p>
                    </div>
                </div>","1","main_experiment_trial","4","visiting_cities_semantic","semantic_sequence","","","","",""
"","","","","","html-keyboard-response","88","349952","0.0-88.0","60FD9FAA02D7423FA95714B6B0B5A57B","019cf794-6712-7366-8faa-26f53e6f90c3","019cf78c-cfcf-769c-9016-9b96552b5e33","","null","
                <div class=""stimulus-container"">
                    <img src=""images/semantic_sequence/visiting_cities_semantic/visiting_cities_semantic_5.png"" class=""exp-image"">
                    <div class=""question-area""></div> 
                </div>","null","","","","","","","","",""
"","","","","","html-button-response","89","350991","0.0-89.0","60FD9FAA02D7423FA95714B6B0B5A57B","019cf794-6712-7366-8faa-26f53e6f90c3","019cf78c-cfcf-769c-9016-9b96552b5e33","","1037","
                <div class=""stimulus-container"">
                    <img src=""images/semantic_sequence/visiting_cities_semantic/visiting_cities_semantic_5.png"" class=""exp-image"">
                    <div class=""question-area"">
                        <p style=""font-size: 20px; font-weight: bold; margin: 0;"">Is there a person in this image?</p>
                    </div>
                </div>","1","main_experiment_trial","5","visiting_cities_semantic","semantic_sequence","","","","",""
"","","","","","html-keyboard-response","90","355993","0.0-90.0","60FD9FAA02D7423FA95714B6B0B5A57B","019cf794-6712-7366-8faa-26f53e6f90c3","019cf78c-cfcf-769c-9016-9b96552b5e33","","null","
                <div class=""stimulus-container"">
                    <img src=""images/semantic_sequence/visiting_cities_semantic/visiting_cities_semantic_6.png"" class=""exp-image"">
                    <div class=""question-area""></div> 
                </div>","null","","","","","","","","",""
"","","","","","html-button-response","91","357245","0.0-91.0","60FD9FAA02D7423FA95714B6B0B5A57B","019cf794-6712-7366-8faa-26f53e6f90c3","019cf78c-cfcf-769c-9016-9b96552b5e33","","1251","
                <div class=""stimulus-container"">
                    <img src=""images/semantic_sequence/visiting_cities_semantic/visiting_cities_semantic_6.png"" class=""exp-image"">
                    <div class=""question-area"">
                        <p style=""font-size: 20px; font-weight: bold; margin: 0;"">Is there a person in this image?</p>
                    </div>
                </div>","1","main_experiment_trial","6","visiting_cities_semantic","semantic_sequence","","","","",""
"","","","","","html-keyboard-response","92","362285","0.0-92.0","60FD9FAA02D7423FA95714B6B0B5A57B","019cf794-6712-7366-8faa-26f53e6f90c3","019cf78c-cfcf-769c-9016-9b96552b5e33","","null","
                <div class=""stimulus-container"">
                    <img src=""images/semantic_sequence/visiting_cities_semantic/visiting_cities_semantic_7.png"" class=""exp-image"">
                    <div class=""question-area""></div> 
                </div>","null","","","","","","","","",""
"","","","","","html-button-response","93","363309","0.0-93.0","60FD9FAA02D7423FA95714B6B0B5A57B","019cf794-6712-7366-8faa-26f53e6f90c3","019cf78c-cfcf-769c-9016-9b96552b5e33","","1024","
                <div class=""stimulus-container"">
                    <img src=""images/semantic_sequence/visiting_cities_semantic/visiting_cities_semantic_7.png"" class=""exp-image"">
                    <div class=""question-area"">
                        <p style=""font-size: 20px; font-weight: bold; margin: 0;"">Is there a person in this image?</p>
                    </div>
                </div>","0","main_experiment_trial","7","visiting_cities_semantic","semantic_sequence","","","","",""
"","","","","","html-keyboard-response","94","368563","0.0-94.0","60FD9FAA02D7423FA95714B6B0B5A57B","019cf794-6712-7366-8faa-26f53e6f90c3","019cf78c-cfcf-769c-9016-9b96552b5e33","","null","
                <div class=""stimulus-container"">
                    <img src=""images/semantic_sequence/visiting_cities_semantic/visiting_cities_semantic_8.png"" class=""exp-image"">
                    <div class=""question-area""></div> 
                </div>","null","","","","","","","","",""
"","","","","","html-button-response","95","369903","0.0-95.0","60FD9FAA02D7423FA95714B6B0B5A57B","019cf794-6712-7366-8faa-26f53e6f90c3","019cf78c-cfcf-769c-9016-9b96552b5e33","","1339","
                <div class=""stimulus-container"">
                    <img src=""images/semantic_sequence/visiting_cities_semantic/visiting_cities_semantic_8.png"" class=""exp-image"">
                    <div class=""question-area"">
                        <p style=""font-size: 20px; font-weight: bold; margin: 0;"">Is there a person in this image?</p>
                    </div>
                </div>","0","main_experiment_trial","8","visiting_cities_semantic","semantic_sequence","","","","",""
"","","","","","html-keyboard-response","96","374927","0.0-96.0","60FD9FAA02D7423FA95714B6B0B5A57B","019cf794-6712-7366-8faa-26f53e6f90c3","019cf78c-cfcf-769c-9016-9b96552b5e33","","null","
                <div class=""stimulus-container"">
                    <img src=""images/semantic_sequence/visiting_cities_semantic/visiting_cities_semantic_9.png"" class=""exp-image"">
                    <div class=""question-area""></div> 
                </div>","null","","","","","","","","",""
"","","","","","html-button-response","97","375961","0.0-97.0","60FD9FAA02D7423FA95714B6B0B5A57B","019cf794-6712-7366-8faa-26f53e6f90c3","019cf78c-cfcf-769c-9016-9b96552b5e33","","1034","
                <div class=""stimulus-container"">
                    <img src=""images/semantic_sequence/visiting_cities_semantic/visiting_cities_semantic_9.png"" class=""exp-image"">
                    <div class=""question-area"">
                        <p style=""font-size: 20px; font-weight: bold; margin: 0;"">Is there a person in this image?</p>
                    </div>
                </div>","0","main_experiment_trial","9","visiting_cities_semantic","semantic_sequence","","","","",""
"","","","","","html-keyboard-response","98","381273","0.0-98.0","60FD9FAA02D7423FA95714B6B0B5A57B","019cf794-6712-7366-8faa-26f53e6f90c3","019cf78c-cfcf-769c-9016-9b96552b5e33","","null","
                <div class=""stimulus-container"">
                    <img src=""images/semantic_sequence/visiting_cities_semantic/visiting_cities_semantic_ten.png"" class=""exp-image"">
                    <div class=""question-area""></div> 
                </div>","null","","","","","","","","",""
"","","","","","html-button-response","99","382313","0.0-99.0","60FD9FAA02D7423FA95714B6B0B5A57B","019cf794-6712-7366-8faa-26f53e6f90c3","019cf78c-cfcf-769c-9016-9b96552b5e33","","1038","
                <div class=""stimulus-container"">
                    <img src=""images/semantic_sequence/visiting_cities_semantic/visiting_cities_semantic_ten.png"" class=""exp-image"">
                    <div class=""question-area"">
                        <p style=""font-size: 20px; font-weight: bold; margin: 0;"">Is there a person in this image?</p>
                    </div>
                </div>","0","main_experiment_trial","ten","visiting_cities_semantic","semantic_sequence","","","","",""
"","","","","","html-keyboard-response","100","383329","0.0-100.0","60FD9FAA02D7423FA95714B6B0B5A57B","019cf794-6712-7366-8faa-26f53e6f90c3","019cf78c-cfcf-769c-9016-9b96552b5e33","","null","<div style=""background-color: white; width: 100vw; height: 100vh;""></div>","null","","","","","","","","",""
"","","","","","html-keyboard-response","101","388374","0.0-101.0","60FD9FAA02D7423FA95714B6B0B5A57B","019cf794-6712-7366-8faa-26f53e6f90c3","019cf78c-cfcf-769c-9016-9b96552b5e33","","null","
                <div class=""stimulus-container"">
                    <img src=""images/schematic_sequence/interview_scheme/interview_scheme_1.png"" class=""exp-image"">
                    <div class=""question-area""></div> 
                </div>","null","","","","","","","","",""
"","","","","","html-button-response","102","390469","0.0-102.0","60FD9FAA02D7423FA95714B6B0B5A57B","019cf794-6712-7366-8faa-26f53e6f90c3","019cf78c-cfcf-769c-9016-9b96552b5e33","","2095","
                <div class=""stimulus-container"">
                    <img src=""images/schematic_sequence/interview_scheme/interview_scheme_1.png"" class=""exp-image"">
                    <div class=""question-area"">
                        <p style=""font-size: 20px; font-weight: bold; margin: 0;"">Is there a person in this image?</p>
                    </div>
                </div>","1","main_experiment_trial","1","interview_scheme","schematic_sequence","","","","",""
"","","","","","html-keyboard-response","103","395858","0.0-103.0","60FD9FAA02D7423FA95714B6B0B5A57B","019cf794-6712-7366-8faa-26f53e6f90c3","019cf78c-cfcf-769c-9016-9b96552b5e33","","null","
                <div class=""stimulus-container"">
                    <img src=""images/schematic_sequence/interview_scheme/interview_scheme_2.png"" class=""exp-image"">
                    <div class=""question-area""></div> 
                </div>","null","","","","","","","","",""
"","","","","","html-button-response","104","398675","0.0-104.0","60FD9FAA02D7423FA95714B6B0B5A57B","019cf794-6712-7366-8faa-26f53e6f90c3","019cf78c-cfcf-769c-9016-9b96552b5e33","","2816","
                <div class=""stimulus-container"">
                    <img src=""images/schematic_sequence/interview_scheme/interview_scheme_2.png"" class=""exp-image"">
                    <div class=""question-area"">
                        <p style=""font-size: 20px; font-weight: bold; margin: 0;"">Is there a person in this image?</p>
                    </div>
                </div>","0","main_experiment_trial","2","interview_scheme","schematic_sequence","","","","",""
"","","","","","html-keyboard-response","105","403684","0.0-105.0","60FD9FAA02D7423FA95714B6B0B5A57B","019cf794-6712-7366-8faa-26f53e6f90c3","019cf78c-cfcf-769c-9016-9b96552b5e33","","null","
                <div class=""stimulus-container"">
                    <img src=""images/schematic_sequence/interview_scheme/interview_scheme_3.png"" class=""exp-image"">
                    <div class=""question-area""></div> 
                </div>","null","","","","","","","","",""
"","","","","","html-button-response","106","405343","0.0-106.0","60FD9FAA02D7423FA95714B6B0B5A57B","019cf794-6712-7366-8faa-26f53e6f90c3","019cf78c-cfcf-769c-9016-9b96552b5e33","","1658","
                <div class=""stimulus-container"">
                    <img src=""images/schematic_sequence/interview_scheme/interview_scheme_3.png"" class=""exp-image"">
                    <div class=""question-area"">
                        <p style=""font-size: 20px; font-weight: bold; margin: 0;"">Is there a person in this image?</p>
                    </div>
                </div>","1","main_experiment_trial","3","interview_scheme","schematic_sequence","","","","",""
"","","","","","html-keyboard-response","107","410515","0.0-107.0","60FD9FAA02D7423FA95714B6B0B5A57B","019cf794-6712-7366-8faa-26f53e6f90c3","019cf78c-cfcf-769c-9016-9b96552b5e33","","null","
                <div class=""stimulus-container"">
                    <img src=""images/schematic_sequence/interview_scheme/interview_scheme_4.png"" class=""exp-image"">
                    <div class=""question-area""></div> 
                </div>","null","","","","","","","","",""
"","","","","","html-button-response","108","411689","0.0-108.0","60FD9FAA02D7423FA95714B6B0B5A57B","019cf794-6712-7366-8faa-26f53e6f90c3","019cf78c-cfcf-769c-9016-9b96552b5e33","","1173","
                <div class=""stimulus-container"">
                    <img src=""images/schematic_sequence/interview_scheme/interview_scheme_4.png"" class=""exp-image"">
                    <div class=""question-area"">
                        <p style=""font-size: 20px; font-weight: bold; margin: 0;"">Is there a person in this image?</p>
                    </div>
                </div>","1","main_experiment_trial","4","interview_scheme","schematic_sequence","","","","",""
"","","","","","html-keyboard-response","109","416757","0.0-109.0","60FD9FAA02D7423FA95714B6B0B5A57B","019cf794-6712-7366-8faa-26f53e6f90c3","019cf78c-cfcf-769c-9016-9b96552b5e33","","null","
                <div class=""stimulus-container"">
                    <img src=""images/schematic_sequence/interview_scheme/interview_scheme_5.png"" class=""exp-image"">
                    <div class=""question-area""></div> 
                </div>","null","","","","","","","","",""
"","","","","","html-button-response","110","417675","0.0-110.0","60FD9FAA02D7423FA95714B6B0B5A57B","019cf794-6712-7366-8faa-26f53e6f90c3","019cf78c-cfcf-769c-9016-9b96552b5e33","","918","
                <div class=""stimulus-container"">
                    <img src=""images/schematic_sequence/interview_scheme/interview_scheme_5.png"" class=""exp-image"">
                    <div class=""question-area"">
                        <p style=""font-size: 20px; font-weight: bold; margin: 0;"">Is there a person in this image?</p>
                    </div>
                </div>","0","main_experiment_trial","5","interview_scheme","schematic_sequence","","","","",""
"","","","","","html-keyboard-response","111","422689","0.0-111.0","60FD9FAA02D7423FA95714B6B0B5A57B","019cf794-6712-7366-8faa-26f53e6f90c3","019cf78c-cfcf-769c-9016-9b96552b5e33","","null","
                <div class=""stimulus-container"">
                    <img src=""images/schematic_sequence/interview_scheme/interview_scheme_6.png"" class=""exp-image"">
                    <div class=""question-area""></div> 
                </div>","null","","","","","","","","",""
"","","","","","html-button-response","112","423596","0.0-112.0","60FD9FAA02D7423FA95714B6B0B5A57B","019cf794-6712-7366-8faa-26f53e6f90c3","019cf78c-cfcf-769c-9016-9b96552b5e33","","908","
                <div class=""stimulus-container"">
                    <img src=""images/schematic_sequence/interview_scheme/interview_scheme_6.png"" class=""exp-image"">
                    <div class=""question-area"">
                        <p style=""font-size: 20px; font-weight: bold; margin: 0;"">Is there a person in this image?</p>
                    </div>
                </div>","0","main_experiment_trial","6","interview_scheme","schematic_sequence","","","","",""
"","","","","","html-keyboard-response","113","428664","0.0-113.0","60FD9FAA02D7423FA95714B6B0B5A57B","019cf794-6712-7366-8faa-26f53e6f90c3","019cf78c-cfcf-769c-9016-9b96552b5e33","","null","
                <div class=""stimulus-container"">
                    <img src=""images/schematic_sequence/interview_scheme/interview_scheme_7.png"" class=""exp-image"">
                    <div class=""question-area""></div> 
                </div>","null","","","","","","","","",""
"","","","","","html-button-response","114","429605","0.0-114.0","60FD9FAA02D7423FA95714B6B0B5A57B","019cf794-6712-7366-8faa-26f53e6f90c3","019cf78c-cfcf-769c-9016-9b96552b5e33","","940","
                <div class=""stimulus-container"">
                    <img src=""images/schematic_sequence/interview_scheme/interview_scheme_7.png"" class=""exp-image"">
                    <div class=""question-area"">
                        <p style=""font-size: 20px; font-weight: bold; margin: 0;"">Is there a person in this image?</p>
                    </div>
                </div>","0","main_experiment_trial","7","interview_scheme","schematic_sequence","","","","",""
"","","","","","html-keyboard-response","115","434612","0.0-115.0","60FD9FAA02D7423FA95714B6B0B5A57B","019cf794-6712-7366-8faa-26f53e6f90c3","019cf78c-cfcf-769c-9016-9b96552b5e33","","null","
                <div class=""stimulus-container"">
                    <img src=""images/schematic_sequence/interview_scheme/interview_scheme_8.png"" class=""exp-image"">
                    <div class=""question-area""></div> 
                </div>","null","","","","","","","","",""
"","","","","","html-button-response","116","436107","0.0-116.0","60FD9FAA02D7423FA95714B6B0B5A57B","019cf794-6712-7366-8faa-26f53e6f90c3","019cf78c-cfcf-769c-9016-9b96552b5e33","","1494","
                <div class=""stimulus-container"">
                    <img src=""images/schematic_sequence/interview_scheme/interview_scheme_8.png"" class=""exp-image"">
                    <div class=""question-area"">
                        <p style=""font-size: 20px; font-weight: bold; margin: 0;"">Is there a person in this image?</p>
                    </div>
                </div>","0","main_experiment_trial","8","interview_scheme","schematic_sequence","","","","",""
"","","","","","html-keyboard-response","117","441115","0.0-117.0","60FD9FAA02D7423FA95714B6B0B5A57B","019cf794-6712-7366-8faa-26f53e6f90c3","019cf78c-cfcf-769c-9016-9b96552b5e33","","null","
                <div class=""stimulus-container"">
                    <img src=""images/schematic_sequence/interview_scheme/interview_scheme_9.png"" class=""exp-image"">
                    <div class=""question-area""></div> 
                </div>","null","","","","","","","","",""
"","","","","","html-button-response","118","442363","0.0-118.0","60FD9FAA02D7423FA95714B6B0B5A57B","019cf794-6712-7366-8faa-26f53e6f90c3","019cf78c-cfcf-769c-9016-9b96552b5e33","","1246","
                <div class=""stimulus-container"">
                    <img src=""images/schematic_sequence/interview_scheme/interview_scheme_9.png"" class=""exp-image"">
                    <div class=""question-area"">
                        <p style=""font-size: 20px; font-weight: bold; margin: 0;"">Is there a person in this image?</p>
                    </div>
                </div>","0","main_experiment_trial","9","interview_scheme","schematic_sequence","","","","",""
"","","","","","html-keyboard-response","119","447409","0.0-119.0","60FD9FAA02D7423FA95714B6B0B5A57B","019cf794-6712-7366-8faa-26f53e6f90c3","019cf78c-cfcf-769c-9016-9b96552b5e33","","null","
                <div class=""stimulus-container"">
                    <img src=""images/schematic_sequence/interview_scheme/interview_scheme_ten.png"" class=""exp-image"">
                    <div class=""question-area""></div> 
                </div>","null","","","","","","","","",""
"","","","","","html-button-response","120","448533","0.0-120.0","60FD9FAA02D7423FA95714B6B0B5A57B","019cf794-6712-7366-8faa-26f53e6f90c3","019cf78c-cfcf-769c-9016-9b96552b5e33","","1124","
                <div class=""stimulus-container"">
                    <img src=""images/schematic_sequence/interview_scheme/interview_scheme_ten.png"" class=""exp-image"">
                    <div class=""question-area"">
                        <p style=""font-size: 20px; font-weight: bold; margin: 0;"">Is there a person in this image?</p>
                    </div>
                </div>","0","main_experiment_trial","ten","interview_scheme","schematic_sequence","","","","",""
"","","","","","html-keyboard-response","121","449534","0.0-121.0","60FD9FAA02D7423FA95714B6B0B5A57B","019cf794-6712-7366-8faa-26f53e6f90c3","019cf78c-cfcf-769c-9016-9b96552b5e33","","null","<div style=""background-color: white; width: 100vw; height: 100vh;""></div>","null","","","","","","","","",""
"","","","","","html-keyboard-response","122","454690","0.0-122.0","60FD9FAA02D7423FA95714B6B0B5A57B","019cf794-6712-7366-8faa-26f53e6f90c3","019cf78c-cfcf-769c-9016-9b96552b5e33","","null","
                <div class=""stimulus-container"">
                    <img src=""images/schematic_sequence/supermarket_scheme/supermarket_scheme_1.png"" class=""exp-image"">
                    <div class=""question-area""></div> 
                </div>","null","","","","","","","","",""
"","","","","","html-button-response","123","456035","0.0-123.0","60FD9FAA02D7423FA95714B6B0B5A57B","019cf794-6712-7366-8faa-26f53e6f90c3","019cf78c-cfcf-769c-9016-9b96552b5e33","","1345","
                <div class=""stimulus-container"">
                    <img src=""images/schematic_sequence/supermarket_scheme/supermarket_scheme_1.png"" class=""exp-image"">
                    <div class=""question-area"">
                        <p style=""font-size: 20px; font-weight: bold; margin: 0;"">Is there a person in this image?</p>
                    </div>
                </div>","1","main_experiment_trial","1","supermarket_scheme","schematic_sequence","","","","",""
"","","","","","html-keyboard-response","124","461296","0.0-124.0","60FD9FAA02D7423FA95714B6B0B5A57B","019cf794-6712-7366-8faa-26f53e6f90c3","019cf78c-cfcf-769c-9016-9b96552b5e33","","null","
                <div class=""stimulus-container"">
                    <img src=""images/schematic_sequence/supermarket_scheme/supermarket_scheme_2.png"" class=""exp-image"">
                    <div class=""question-area""></div> 
                </div>","null","","","","","","","","",""
"","","","","","html-button-response","125","462019","0.0-125.0","60FD9FAA02D7423FA95714B6B0B5A57B","019cf794-6712-7366-8faa-26f53e6f90c3","019cf78c-cfcf-769c-9016-9b96552b5e33","","722","
                <div class=""stimulus-container"">
                    <img src=""images/schematic_sequence/supermarket_scheme/supermarket_scheme_2.png"" class=""exp-image"">
                    <div class=""question-area"">
                        <p style=""font-size: 20px; font-weight: bold; margin: 0;"">Is there a person in this image?</p>
                    </div>
                </div>","1","main_experiment_trial","2","supermarket_scheme","schematic_sequence","","","","",""
"","","","","","html-keyboard-response","126","467138","0.0-126.0","60FD9FAA02D7423FA95714B6B0B5A57B","019cf794-6712-7366-8faa-26f53e6f90c3","019cf78c-cfcf-769c-9016-9b96552b5e33","","null","
                <div class=""stimulus-container"">
                    <img src=""images/schematic_sequence/supermarket_scheme/supermarket_scheme_3.png"" class=""exp-image"">
                    <div class=""question-area""></div> 
                </div>","null","","","","","","","","",""
"","","","","","html-button-response","127","468128","0.0-127.0","60FD9FAA02D7423FA95714B6B0B5A57B","019cf794-6712-7366-8faa-26f53e6f90c3","019cf78c-cfcf-769c-9016-9b96552b5e33","","988","
                <div class=""stimulus-container"">
                    <img src=""images/schematic_sequence/supermarket_scheme/supermarket_scheme_3.png"" class=""exp-image"">
                    <div class=""question-area"">
                        <p style=""font-size: 20px; font-weight: bold; margin: 0;"">Is there a person in this image?</p>
                    </div>
                </div>","1","main_experiment_trial","3","supermarket_scheme","schematic_sequence","","","","",""
"","","","","","html-keyboard-response","128","473566","0.0-128.0","60FD9FAA02D7423FA95714B6B0B5A57B","019cf794-6712-7366-8faa-26f53e6f90c3","019cf78c-cfcf-769c-9016-9b96552b5e33","","null","
                <div class=""stimulus-container"">
                    <img src=""images/schematic_sequence/supermarket_scheme/supermarket_scheme_4.png"" class=""exp-image"">
                    <div class=""question-area""></div> 
                </div>","null","","","","","","","","",""
"","","","","","html-button-response","129","474890","0.0-129.0","60FD9FAA02D7423FA95714B6B0B5A57B","019cf794-6712-7366-8faa-26f53e6f90c3","019cf78c-cfcf-769c-9016-9b96552b5e33","","1322","
                <div class=""stimulus-container"">
                    <img src=""images/schematic_sequence/supermarket_scheme/supermarket_scheme_4.png"" class=""exp-image"">
                    <div class=""question-area"">
                        <p style=""font-size: 20px; font-weight: bold; margin: 0;"">Is there a person in this image?</p>
                    </div>
                </div>","0","main_experiment_trial","4","supermarket_scheme","schematic_sequence","","","","",""
"","","","","","html-keyboard-response","130","479901","0.0-130.0","60FD9FAA02D7423FA95714B6B0B5A57B","019cf794-6712-7366-8faa-26f53e6f90c3","019cf78c-cfcf-769c-9016-9b96552b5e33","","null","
                <div class=""stimulus-container"">
                    <img src=""images/schematic_sequence/supermarket_scheme/supermarket_scheme_5.png"" class=""exp-image"">
                    <div class=""question-area""></div> 
                </div>","null","","","","","","","","",""
"","","","","","html-button-response","131","482067","0.0-131.0","60FD9FAA02D7423FA95714B6B0B5A57B","019cf794-6712-7366-8faa-26f53e6f90c3","019cf78c-cfcf-769c-9016-9b96552b5e33","","2166","
                <div class=""stimulus-container"">
                    <img src=""images/schematic_sequence/supermarket_scheme/supermarket_scheme_5.png"" class=""exp-image"">
                    <div class=""question-area"">
                        <p style=""font-size: 20px; font-weight: bold; margin: 0;"">Is there a person in this image?</p>
                    </div>
                </div>","1","main_experiment_trial","5","supermarket_scheme","schematic_sequence","","","","",""
"","","","","","html-keyboard-response","132","487113","0.0-132.0","60FD9FAA02D7423FA95714B6B0B5A57B","019cf794-6712-7366-8faa-26f53e6f90c3","019cf78c-cfcf-769c-9016-9b96552b5e33","","null","
                <div class=""stimulus-container"">
                    <img src=""images/schematic_sequence/supermarket_scheme/supermarket_scheme_6.png"" class=""exp-image"">
                    <div class=""question-area""></div> 
                </div>","null","","","","","","","","",""
"","","","","","html-button-response","133","488213","0.0-133.0","60FD9FAA02D7423FA95714B6B0B5A57B","019cf794-6712-7366-8faa-26f53e6f90c3","019cf78c-cfcf-769c-9016-9b96552b5e33","","1100","
                <div class=""stimulus-container"">
                    <img src=""images/schematic_sequence/supermarket_scheme/supermarket_scheme_6.png"" class=""exp-image"">
                    <div class=""question-area"">
                        <p style=""font-size: 20px; font-weight: bold; margin: 0;"">Is there a person in this image?</p>
                    </div>
                </div>","0","main_experiment_trial","6","supermarket_scheme","schematic_sequence","","","","",""
"","","","","","html-keyboard-response","134","493695","0.0-134.0","60FD9FAA02D7423FA95714B6B0B5A57B","019cf794-6712-7366-8faa-26f53e6f90c3","019cf78c-cfcf-769c-9016-9b96552b5e33","","null","
                <div class=""stimulus-container"">
                    <img src=""images/schematic_sequence/supermarket_scheme/supermarket_scheme_7.png"" class=""exp-image"">
                    <div class=""question-area""></div> 
                </div>","null","","","","","","","","",""
"","","","","","html-button-response","135","494649","0.0-135.0","60FD9FAA02D7423FA95714B6B0B5A57B","019cf794-6712-7366-8faa-26f53e6f90c3","019cf78c-cfcf-769c-9016-9b96552b5e33","","953","
                <div class=""stimulus-container"">
                    <img src=""images/schematic_sequence/supermarket_scheme/supermarket_scheme_7.png"" class=""exp-image"">
                    <div class=""question-area"">
                        <p style=""font-size: 20px; font-weight: bold; margin: 0;"">Is there a person in this image?</p>
                    </div>
                </div>","0","main_experiment_trial","7","supermarket_scheme","schematic_sequence","","","","",""
"","","","","","html-keyboard-response","136","500031","0.0-136.0","60FD9FAA02D7423FA95714B6B0B5A57B","019cf794-6712-7366-8faa-26f53e6f90c3","019cf78c-cfcf-769c-9016-9b96552b5e33","","null","
                <div class=""stimulus-container"">
                    <img src=""images/schematic_sequence/supermarket_scheme/supermarket_scheme_8.png"" class=""exp-image"">
                    <div class=""question-area""></div> 
                </div>","null","","","","","","","","",""
"","","","","","html-button-response","137","500792","0.0-137.0","60FD9FAA02D7423FA95714B6B0B5A57B","019cf794-6712-7366-8faa-26f53e6f90c3","019cf78c-cfcf-769c-9016-9b96552b5e33","","760","
                <div class=""stimulus-container"">
                    <img src=""images/schematic_sequence/supermarket_scheme/supermarket_scheme_8.png"" class=""exp-image"">
                    <div class=""question-area"">
                        <p style=""font-size: 20px; font-weight: bold; margin: 0;"">Is there a person in this image?</p>
                    </div>
                </div>","0","main_experiment_trial","8","supermarket_scheme","schematic_sequence","","","","",""
"","","","","","html-keyboard-response","138","505803","0.0-138.0","60FD9FAA02D7423FA95714B6B0B5A57B","019cf794-6712-7366-8faa-26f53e6f90c3","019cf78c-cfcf-769c-9016-9b96552b5e33","","null","
                <div class=""stimulus-container"">
                    <img src=""images/schematic_sequence/supermarket_scheme/supermarket_scheme_9.png"" class=""exp-image"">
                    <div class=""question-area""></div> 
                </div>","null","","","","","","","","",""
"","","","","","html-button-response","139","506802","0.0-139.0","60FD9FAA02D7423FA95714B6B0B5A57B","019cf794-6712-7366-8faa-26f53e6f90c3","019cf78c-cfcf-769c-9016-9b96552b5e33","","997","
                <div class=""stimulus-container"">
                    <img src=""images/schematic_sequence/supermarket_scheme/supermarket_scheme_9.png"" class=""exp-image"">
                    <div class=""question-area"">
                        <p style=""font-size: 20px; font-weight: bold; margin: 0;"">Is there a person in this image?</p>
                    </div>
                </div>","0","main_experiment_trial","9","supermarket_scheme","schematic_sequence","","","","",""
"","","","","","html-keyboard-response","140","511801","0.0-140.0","60FD9FAA02D7423FA95714B6B0B5A57B","019cf794-6712-7366-8faa-26f53e6f90c3","019cf78c-cfcf-769c-9016-9b96552b5e33","","null","
                <div class=""stimulus-container"">
                    <img src=""images/schematic_sequence/supermarket_scheme/supermarket_scheme_ten.png"" class=""exp-image"">
                    <div class=""question-area""></div> 
                </div>","null","","","","","","","","",""
"","","","","","html-button-response","141","512777","0.0-141.0","60FD9FAA02D7423FA95714B6B0B5A57B","019cf794-6712-7366-8faa-26f53e6f90c3","019cf78c-cfcf-769c-9016-9b96552b5e33","","975","
                <div class=""stimulus-container"">
                    <img src=""images/schematic_sequence/supermarket_scheme/supermarket_scheme_ten.png"" class=""exp-image"">
                    <div class=""question-area"">
                        <p style=""font-size: 20px; font-weight: bold; margin: 0;"">Is there a person in this image?</p>
                    </div>
                </div>","1","main_experiment_trial","ten","supermarket_scheme","schematic_sequence","","","","",""
"","","","","","html-keyboard-response","142","513780","0.0-142.0","60FD9FAA02D7423FA95714B6B0B5A57B","019cf794-6712-7366-8faa-26f53e6f90c3","019cf78c-cfcf-769c-9016-9b96552b5e33","","null","<div style=""background-color: white; width: 100vw; height: 100vh;""></div>","null","","","","","","","","",""
"","","","","","html-keyboard-response","143","519022","0.0-143.0","60FD9FAA02D7423FA95714B6B0B5A57B","019cf794-6712-7366-8faa-26f53e6f90c3","019cf78c-cfcf-769c-9016-9b96552b5e33","","null","
                <div class=""stimulus-container"">
                    <img src=""images/semantic_sequence/housework_semantic/housework_semantic_1.png"" class=""exp-image"">
                    <div class=""question-area""></div> 
                </div>","null","","","","","","","","",""
"","","","","","html-button-response","144","519699","0.0-144.0","60FD9FAA02D7423FA95714B6B0B5A57B","019cf794-6712-7366-8faa-26f53e6f90c3","019cf78c-cfcf-769c-9016-9b96552b5e33","","675","
                <div class=""stimulus-container"">
                    <img src=""images/semantic_sequence/housework_semantic/housework_semantic_1.png"" class=""exp-image"">
                    <div class=""question-area"">
                        <p style=""font-size: 20px; font-weight: bold; margin: 0;"">Is there a person in this image?</p>
                    </div>
                </div>","0","main_experiment_trial","1","housework_semantic","semantic_sequence","","","","",""
"","","","","","html-keyboard-response","145","524815","0.0-145.0","60FD9FAA02D7423FA95714B6B0B5A57B","019cf794-6712-7366-8faa-26f53e6f90c3","019cf78c-cfcf-769c-9016-9b96552b5e33","","null","
                <div class=""stimulus-container"">
                    <img src=""images/semantic_sequence/housework_semantic/housework_semantic_2.png"" class=""exp-image"">
                    <div class=""question-area""></div> 
                </div>","null","","","","","","","","",""
"","","","","","html-button-response","146","525581","0.0-146.0","60FD9FAA02D7423FA95714B6B0B5A57B","019cf794-6712-7366-8faa-26f53e6f90c3","019cf78c-cfcf-769c-9016-9b96552b5e33","","765","
                <div class=""stimulus-container"">
                    <img src=""images/semantic_sequence/housework_semantic/housework_semantic_2.png"" class=""exp-image"">
                    <div class=""question-area"">
                        <p style=""font-size: 20px; font-weight: bold; margin: 0;"">Is there a person in this image?</p>
                    </div>
                </div>","0","main_experiment_trial","2","housework_semantic","semantic_sequence","","","","",""
"","","","","","html-keyboard-response","147","530862","0.0-147.0","60FD9FAA02D7423FA95714B6B0B5A57B","019cf794-6712-7366-8faa-26f53e6f90c3","019cf78c-cfcf-769c-9016-9b96552b5e33","","null","
                <div class=""stimulus-container"">
                    <img src=""images/semantic_sequence/housework_semantic/housework_semantic_3.png"" class=""exp-image"">
                    <div class=""question-area""></div> 
                </div>","null","","","","","","","","",""
"","","","","","html-button-response","148","531687","0.0-148.0","60FD9FAA02D7423FA95714B6B0B5A57B","019cf794-6712-7366-8faa-26f53e6f90c3","019cf78c-cfcf-769c-9016-9b96552b5e33","","824","
                <div class=""stimulus-container"">
                    <img src=""images/semantic_sequence/housework_semantic/housework_semantic_3.png"" class=""exp-image"">
                    <div class=""question-area"">
                        <p style=""font-size: 20px; font-weight: bold; margin: 0;"">Is there a person in this image?</p>
                    </div>
                </div>","0","main_experiment_trial","3","housework_semantic","semantic_sequence","","","","",""
"","","","","","html-keyboard-response","149","536915","0.0-149.0","60FD9FAA02D7423FA95714B6B0B5A57B","019cf794-6712-7366-8faa-26f53e6f90c3","019cf78c-cfcf-769c-9016-9b96552b5e33","","null","
                <div class=""stimulus-container"">
                    <img src=""images/semantic_sequence/housework_semantic/housework_semantic_4.png"" class=""exp-image"">
                    <div class=""question-area""></div> 
                </div>","null","","","","","","","","",""
"","","","","","html-button-response","150","537641","0.0-150.0","60FD9FAA02D7423FA95714B6B0B5A57B","019cf794-6712-7366-8faa-26f53e6f90c3","019cf78c-cfcf-769c-9016-9b96552b5e33","","726","
                <div class=""stimulus-container"">
                    <img src=""images/semantic_sequence/housework_semantic/housework_semantic_4.png"" class=""exp-image"">
                    <div class=""question-area"">
                        <p style=""font-size: 20px; font-weight: bold; margin: 0;"">Is there a person in this image?</p>
                    </div>
                </div>","0","main_experiment_trial","4","housework_semantic","semantic_sequence","","","","",""
"","","","","","html-keyboard-response","151","542692","0.0-151.0","60FD9FAA02D7423FA95714B6B0B5A57B","019cf794-6712-7366-8faa-26f53e6f90c3","019cf78c-cfcf-769c-9016-9b96552b5e33","","null","
                <div class=""stimulus-container"">
                    <img src=""images/semantic_sequence/housework_semantic/housework_semantic_5.png"" class=""exp-image"">
                    <div class=""question-area""></div> 
                </div>","null","","","","","","","","",""
"","","","","","html-button-response","152","543536","0.0-152.0","60FD9FAA02D7423FA95714B6B0B5A57B","019cf794-6712-7366-8faa-26f53e6f90c3","019cf78c-cfcf-769c-9016-9b96552b5e33","","843","
                <div class=""stimulus-container"">
                    <img src=""images/semantic_sequence/housework_semantic/housework_semantic_5.png"" class=""exp-image"">
                    <div class=""question-area"">
                        <p style=""font-size: 20px; font-weight: bold; margin: 0;"">Is there a person in this image?</p>
                    </div>
                </div>","0","main_experiment_trial","5","housework_semantic","semantic_sequence","","","","",""
"","","","","","html-keyboard-response","153","548696","0.0-153.0","60FD9FAA02D7423FA95714B6B0B5A57B","019cf794-6712-7366-8faa-26f53e6f90c3","019cf78c-cfcf-769c-9016-9b96552b5e33","","null","
                <div class=""stimulus-container"">
                    <img src=""images/semantic_sequence/housework_semantic/housework_semantic_6.png"" class=""exp-image"">
                    <div class=""question-area""></div> 
                </div>","null","","","","","","","","",""
"","","","","","html-button-response","154","549443","0.0-154.0","60FD9FAA02D7423FA95714B6B0B5A57B","019cf794-6712-7366-8faa-26f53e6f90c3","019cf78c-cfcf-769c-9016-9b96552b5e33","","747","
                <div class=""stimulus-container"">
                    <img src=""images/semantic_sequence/housework_semantic/housework_semantic_6.png"" class=""exp-image"">
                    <div class=""question-area"">
                        <p style=""font-size: 20px; font-weight: bold; margin: 0;"">Is there a person in this image?</p>
                    </div>
                </div>","0","main_experiment_trial","6","housework_semantic","semantic_sequence","","","","",""
"","","","","","html-keyboard-response","155","554618","0.0-155.0","60FD9FAA02D7423FA95714B6B0B5A57B","019cf794-6712-7366-8faa-26f53e6f90c3","019cf78c-cfcf-769c-9016-9b96552b5e33","","null","
                <div class=""stimulus-container"">
                    <img src=""images/semantic_sequence/housework_semantic/housework_semantic_7.png"" class=""exp-image"">
                    <div class=""question-area""></div> 
                </div>","null","","","","","","","","",""
"","","","","","html-button-response","156","555549","0.0-156.0","60FD9FAA02D7423FA95714B6B0B5A57B","019cf794-6712-7366-8faa-26f53e6f90c3","019cf78c-cfcf-769c-9016-9b96552b5e33","","929","
                <div class=""stimulus-container"">
                    <img src=""images/semantic_sequence/housework_semantic/housework_semantic_7.png"" class=""exp-image"">
                    <div class=""question-area"">
                        <p style=""font-size: 20px; font-weight: bold; margin: 0;"">Is there a person in this image?</p>
                    </div>
                </div>","0","main_experiment_trial","7","housework_semantic","semantic_sequence","","","","",""
"","","","","","html-keyboard-response","157","560591","0.0-157.0","60FD9FAA02D7423FA95714B6B0B5A57B","019cf794-6712-7366-8faa-26f53e6f90c3","019cf78c-cfcf-769c-9016-9b96552b5e33","","null","
                <div class=""stimulus-container"">
                    <img src=""images/semantic_sequence/housework_semantic/housework_semantic_8.png"" class=""exp-image"">
                    <div class=""question-area""></div> 
                </div>","null","","","","","","","","",""
"","","","","","html-button-response","158","561569","0.0-158.0","60FD9FAA02D7423FA95714B6B0B5A57B","019cf794-6712-7366-8faa-26f53e6f90c3","019cf78c-cfcf-769c-9016-9b96552b5e33","","978","
                <div class=""stimulus-container"">
                    <img src=""images/semantic_sequence/housework_semantic/housework_semantic_8.png"" class=""exp-image"">
                    <div class=""question-area"">
                        <p style=""font-size: 20px; font-weight: bold; margin: 0;"">Is there a person in this image?</p>
                    </div>
                </div>","0","main_experiment_trial","8","housework_semantic","semantic_sequence","","","","",""
"","","","","","html-keyboard-response","159","567113","0.0-159.0","60FD9FAA02D7423FA95714B6B0B5A57B","019cf794-6712-7366-8faa-26f53e6f90c3","019cf78c-cfcf-769c-9016-9b96552b5e33","","null","
                <div class=""stimulus-container"">
                    <img src=""images/semantic_sequence/housework_semantic/housework_semantic_9.png"" class=""exp-image"">
                    <div class=""question-area""></div> 
                </div>","null","","","","","","","","",""
"","","","","","html-button-response","160","568125","0.0-160.0","60FD9FAA02D7423FA95714B6B0B5A57B","019cf794-6712-7366-8faa-26f53e6f90c3","019cf78c-cfcf-769c-9016-9b96552b5e33","","1011","
                <div class=""stimulus-container"">
                    <img src=""images/semantic_sequence/housework_semantic/housework_semantic_9.png"" class=""exp-image"">
                    <div class=""question-area"">
                        <p style=""font-size: 20px; font-weight: bold; margin: 0;"">Is there a person in this image?</p>
                    </div>
                </div>","0","main_experiment_trial","9","housework_semantic","semantic_sequence","","","","",""
"","","","","","html-keyboard-response","161","573355","0.0-161.0","60FD9FAA02D7423FA95714B6B0B5A57B","019cf794-6712-7366-8faa-26f53e6f90c3","019cf78c-cfcf-769c-9016-9b96552b5e33","","null","
                <div class=""stimulus-container"">
                    <img src=""images/semantic_sequence/housework_semantic/housework_semantic_ten.png"" class=""exp-image"">
                    <div class=""question-area""></div> 
                </div>","null","","","","","","","","",""
"","","","","","html-button-response","162","574271","0.0-162.0","60FD9FAA02D7423FA95714B6B0B5A57B","019cf794-6712-7366-8faa-26f53e6f90c3","019cf78c-cfcf-769c-9016-9b96552b5e33","","916","
                <div class=""stimulus-container"">
                    <img src=""images/semantic_sequence/housework_semantic/housework_semantic_ten.png"" class=""exp-image"">
                    <div class=""question-area"">
                        <p style=""font-size: 20px; font-weight: bold; margin: 0;"">Is there a person in this image?</p>
                    </div>
                </div>","0","main_experiment_trial","ten","housework_semantic","semantic_sequence","","","","",""
"","","","","","html-keyboard-response","163","575272","0.0-163.0","60FD9FAA02D7423FA95714B6B0B5A57B","019cf794-6712-7366-8faa-26f53e6f90c3","019cf78c-cfcf-769c-9016-9b96552b5e33","","null","<div style=""background-color: white; width: 100vw; height: 100vh;""></div>","null","","","","","","","","",""
"","","","","","html-keyboard-response","164","580641","0.0-164.0","60FD9FAA02D7423FA95714B6B0B5A57B","019cf794-6712-7366-8faa-26f53e6f90c3","019cf78c-cfcf-769c-9016-9b96552b5e33","","null","
                <div class=""stimulus-container"">
                    <img src=""images/semantic_sequence/maintaining_a_car_semantic/maintaining_a_car_semantic_1.png"" class=""exp-image"">
                    <div class=""question-area""></div> 
                </div>","null","","","","","","","","",""
"","","","","","html-button-response","165","581983","0.0-165.0","60FD9FAA02D7423FA95714B6B0B5A57B","019cf794-6712-7366-8faa-26f53e6f90c3","019cf78c-cfcf-769c-9016-9b96552b5e33","","1342","
                <div class=""stimulus-container"">
                    <img src=""images/semantic_sequence/maintaining_a_car_semantic/maintaining_a_car_semantic_1.png"" class=""exp-image"">
                    <div class=""question-area"">
                        <p style=""font-size: 20px; font-weight: bold; margin: 0;"">Is there a person in this image?</p>
                    </div>
                </div>","0","main_experiment_trial","1","maintaining_a_car_semantic","semantic_sequence","","","","",""
"","","","","","html-keyboard-response","166","587161","0.0-166.0","60FD9FAA02D7423FA95714B6B0B5A57B","019cf794-6712-7366-8faa-26f53e6f90c3","019cf78c-cfcf-769c-9016-9b96552b5e33","","null","
                <div class=""stimulus-container"">
                    <img src=""images/semantic_sequence/maintaining_a_car_semantic/maintaining_a_car_semantic_2.png"" class=""exp-image"">
                    <div class=""question-area""></div> 
                </div>","null","","","","","","","","",""
"","","","","","html-button-response","167","588225","0.0-167.0","60FD9FAA02D7423FA95714B6B0B5A57B","019cf794-6712-7366-8faa-26f53e6f90c3","019cf78c-cfcf-769c-9016-9b96552b5e33","","1064","
                <div class=""stimulus-container"">
                    <img src=""images/semantic_sequence/maintaining_a_car_semantic/maintaining_a_car_semantic_2.png"" class=""exp-image"">
                    <div class=""question-area"">
                        <p style=""font-size: 20px; font-weight: bold; margin: 0;"">Is there a person in this image?</p>
                    </div>
                </div>","0","main_experiment_trial","2","maintaining_a_car_semantic","semantic_sequence","","","","",""
"","","","","","html-keyboard-response","168","593383","0.0-168.0","60FD9FAA02D7423FA95714B6B0B5A57B","019cf794-6712-7366-8faa-26f53e6f90c3","019cf78c-cfcf-769c-9016-9b96552b5e33","","null","
                <div class=""stimulus-container"">
                    <img src=""images/semantic_sequence/maintaining_a_car_semantic/maintaining_a_car_semantic_3.png"" class=""exp-image"">
                    <div class=""question-area""></div> 
                </div>","null","","","","","","","","",""
"","","","","","html-button-response","169","594419","0.0-169.0","60FD9FAA02D7423FA95714B6B0B5A57B","019cf794-6712-7366-8faa-26f53e6f90c3","019cf78c-cfcf-769c-9016-9b96552b5e33","","1034","
                <div class=""stimulus-container"">
                    <img src=""images/semantic_sequence/maintaining_a_car_semantic/maintaining_a_car_semantic_3.png"" class=""exp-image"">
                    <div class=""question-area"">
                        <p style=""font-size: 20px; font-weight: bold; margin: 0;"">Is there a person in this image?</p>
                    </div>
                </div>","0","main_experiment_trial","3","maintaining_a_car_semantic","semantic_sequence","","","","",""
"","","","","","html-keyboard-response","170","599421","0.0-170.0","60FD9FAA02D7423FA95714B6B0B5A57B","019cf794-6712-7366-8faa-26f53e6f90c3","019cf78c-cfcf-769c-9016-9b96552b5e33","","null","
                <div class=""stimulus-container"">
                    <img src=""images/semantic_sequence/maintaining_a_car_semantic/maintaining_a_car_semantic_4.png"" class=""exp-image"">
                    <div class=""question-area""></div> 
                </div>","null","","","","","","","","",""
"","","","","","html-button-response","171","600371","0.0-171.0","60FD9FAA02D7423FA95714B6B0B5A57B","019cf794-6712-7366-8faa-26f53e6f90c3","019cf78c-cfcf-769c-9016-9b96552b5e33","","949","
                <div class=""stimulus-container"">
                    <img src=""images/semantic_sequence/maintaining_a_car_semantic/maintaining_a_car_semantic_4.png"" class=""exp-image"">
                    <div class=""question-area"">
                        <p style=""font-size: 20px; font-weight: bold; margin: 0;"">Is there a person in this image?</p>
                    </div>
                </div>","0","main_experiment_trial","4","maintaining_a_car_semantic","semantic_sequence","","","","",""
"","","","","","html-keyboard-response","172","605632","0.0-172.0","60FD9FAA02D7423FA95714B6B0B5A57B","019cf794-6712-7366-8faa-26f53e6f90c3","019cf78c-cfcf-769c-9016-9b96552b5e33","","null","
                <div class=""stimulus-container"">
                    <img src=""images/semantic_sequence/maintaining_a_car_semantic/maintaining_a_car_semantic_5.png"" class=""exp-image"">
                    <div class=""question-area""></div> 
                </div>","null","","","","","","","","",""
"","","","","","html-button-response","173","606469","0.0-173.0","60FD9FAA02D7423FA95714B6B0B5A57B","019cf794-6712-7366-8faa-26f53e6f90c3","019cf78c-cfcf-769c-9016-9b96552b5e33","","835","
                <div class=""stimulus-container"">
                    <img src=""images/semantic_sequence/maintaining_a_car_semantic/maintaining_a_car_semantic_5.png"" class=""exp-image"">
                    <div class=""question-area"">
                        <p style=""font-size: 20px; font-weight: bold; margin: 0;"">Is there a person in this image?</p>
                    </div>
                </div>","0","main_experiment_trial","5","maintaining_a_car_semantic","semantic_sequence","","","","",""
"","","","","","html-keyboard-response","174","611495","0.0-174.0","60FD9FAA02D7423FA95714B6B0B5A57B","019cf794-6712-7366-8faa-26f53e6f90c3","019cf78c-cfcf-769c-9016-9b96552b5e33","","null","
                <div class=""stimulus-container"">
                    <img src=""images/semantic_sequence/maintaining_a_car_semantic/maintaining_a_car_semantic_6.png"" class=""exp-image"">
                    <div class=""question-area""></div> 
                </div>","null","","","","","","","","",""
"","","","","","html-button-response","175","612343","0.0-175.0","60FD9FAA02D7423FA95714B6B0B5A57B","019cf794-6712-7366-8faa-26f53e6f90c3","019cf78c-cfcf-769c-9016-9b96552b5e33","","848","
                <div class=""stimulus-container"">
                    <img src=""images/semantic_sequence/maintaining_a_car_semantic/maintaining_a_car_semantic_6.png"" class=""exp-image"">
                    <div class=""question-area"">
                        <p style=""font-size: 20px; font-weight: bold; margin: 0;"">Is there a person in this image?</p>
                    </div>
                </div>","0","main_experiment_trial","6","maintaining_a_car_semantic","semantic_sequence","","","","",""
"","","","","","html-keyboard-response","176","617345","0.0-176.0","60FD9FAA02D7423FA95714B6B0B5A57B","019cf794-6712-7366-8faa-26f53e6f90c3","019cf78c-cfcf-769c-9016-9b96552b5e33","","null","
                <div class=""stimulus-container"">
                    <img src=""images/semantic_sequence/maintaining_a_car_semantic/maintaining_a_car_semantic_7.png"" class=""exp-image"">
                    <div class=""question-area""></div> 
                </div>","null","","","","","","","","",""
"","","","","","html-button-response","177","619993","0.0-177.0","60FD9FAA02D7423FA95714B6B0B5A57B","019cf794-6712-7366-8faa-26f53e6f90c3","019cf78c-cfcf-769c-9016-9b96552b5e33","","2647","
                <div class=""stimulus-container"">
                    <img src=""images/semantic_sequence/maintaining_a_car_semantic/maintaining_a_car_semantic_7.png"" class=""exp-image"">
                    <div class=""question-area"">
                        <p style=""font-size: 20px; font-weight: bold; margin: 0;"">Is there a person in this image?</p>
                    </div>
                </div>","0","main_experiment_trial","7","maintaining_a_car_semantic","semantic_sequence","","","","",""
"","","","","","html-keyboard-response","178","625127","0.0-178.0","60FD9FAA02D7423FA95714B6B0B5A57B","019cf794-6712-7366-8faa-26f53e6f90c3","019cf78c-cfcf-769c-9016-9b96552b5e33","","null","
                <div class=""stimulus-container"">
                    <img src=""images/semantic_sequence/maintaining_a_car_semantic/maintaining_a_car_semantic_8.png"" class=""exp-image"">
                    <div class=""question-area""></div> 
                </div>","null","","","","","","","","",""
"","","","","","html-button-response","179","626077","0.0-179.0","60FD9FAA02D7423FA95714B6B0B5A57B","019cf794-6712-7366-8faa-26f53e6f90c3","019cf78c-cfcf-769c-9016-9b96552b5e33","","950","
                <div class=""stimulus-container"">
                    <img src=""images/semantic_sequence/maintaining_a_car_semantic/maintaining_a_car_semantic_8.png"" class=""exp-image"">
                    <div class=""question-area"">
                        <p style=""font-size: 20px; font-weight: bold; margin: 0;"">Is there a person in this image?</p>
                    </div>
                </div>","0","main_experiment_trial","8","maintaining_a_car_semantic","semantic_sequence","","","","",""
"","","","","","html-keyboard-response","180","631439","0.0-180.0","60FD9FAA02D7423FA95714B6B0B5A57B","019cf794-6712-7366-8faa-26f53e6f90c3","019cf78c-cfcf-769c-9016-9b96552b5e33","","null","
                <div class=""stimulus-container"">
                    <img src=""images/semantic_sequence/maintaining_a_car_semantic/maintaining_a_car_semantic_9.png"" class=""exp-image"">
