"success","timeout","failed_images","failed_audio","failed_video","trial_type","trial_index","time_elapsed","internal_node_id","subject_id","study_id","session_id","view_history","rt","stimulus","response","task","image_index","folder","sequence_type","presentation_order","valuable_image_index","reward_type","correct_choice","chosen_image_index","target_X"
"true","false","[]","[]","[]","preload","0","8308","0.0-0.0","11A5BC3C5A924C01A2AB8DD3F80DAAC0","019cf9d0-040d-7909-88fc-6a5a219bae85","019cf9ba-391a-7c7b-96b9-3757895c469c","","","","","","","","","","","","","",""
"","","","","","instructions","1","13959","0.0-1.0","11A5BC3C5A924C01A2AB8DD3F80DAAC0","019cf9d0-040d-7909-88fc-6a5a219bae85","019cf9ba-391a-7c7b-96b9-3757895c469c","[{""page_index"":0,""viewing_time"":5649}]","5650","","","","","","","","","","","",""
"","","","","","instructions","2","22591","0.0-2.0","11A5BC3C5A924C01A2AB8DD3F80DAAC0","019cf9d0-040d-7909-88fc-6a5a219bae85","019cf9ba-391a-7c7b-96b9-3757895c469c","[{""page_index"":0,""viewing_time"":8631}]","8631","","","","","","","","","","","",""
"true","","","","","fullscreen","3","26165","0.0-3.0","11A5BC3C5A924C01A2AB8DD3F80DAAC0","019cf9d0-040d-7909-88fc-6a5a219bae85","019cf9ba-391a-7c7b-96b9-3757895c469c","","2559","","","","","","","","","","","",""
"","","","","","instructions","4","54857","0.0-4.0","11A5BC3C5A924C01A2AB8DD3F80DAAC0","019cf9d0-040d-7909-88fc-6a5a219bae85","019cf9ba-391a-7c7b-96b9-3757895c469c","[{""page_index"":0,""viewing_time"":28691}]","28691","","","","","","","","","","","",""
"","","","","","instructions","5","72627","0.0-5.0","11A5BC3C5A924C01A2AB8DD3F80DAAC0","019cf9d0-040d-7909-88fc-6a5a219bae85","019cf9ba-391a-7c7b-96b9-3757895c469c","[{""page_index"":0,""viewing_time"":17769}]","17769","","","","","","","","","","","",""
"","","","","","html-keyboard-response","6","76641","0.0-6.0","11A5BC3C5A924C01A2AB8DD3F80DAAC0","019cf9d0-040d-7909-88fc-6a5a219bae85","019cf9ba-391a-7c7b-96b9-3757895c469c","","null","
                <div class=""stimulus-container"">
                    <img src=""images/instructions/movie_1.png"" class=""exp-image"">
                    <div class=""question-area""></div> 
                </div>","null","","","","","","","","","",""
"","","","","","html-button-response","7","79117","0.0-7.0","11A5BC3C5A924C01A2AB8DD3F80DAAC0","019cf9d0-040d-7909-88fc-6a5a219bae85","019cf9ba-391a-7c7b-96b9-3757895c469c","","2474","
                <div class=""stimulus-container"">
                    <img src=""images/instructions/movie_1.png"" class=""exp-image"">
                    <div class=""question-area"">
                        <p style=""font-size: 20px; font-weight: bold; margin: 0;"">Was there a person in this image?</p>
                    </div>
                </div>","0","example_question","1","","","","","","","",""
"","","","","","html-keyboard-response","8","83131","0.0-8.0","11A5BC3C5A924C01A2AB8DD3F80DAAC0","019cf9d0-040d-7909-88fc-6a5a219bae85","019cf9ba-391a-7c7b-96b9-3757895c469c","","null","
                <div class=""stimulus-container"">
                    <img src=""images/instructions/movie_2.png"" class=""exp-image"">
                    <div class=""question-area""></div> 
                </div>","null","","","","","","","","","",""
"","","","","","html-button-response","9","84492","0.0-9.0","11A5BC3C5A924C01A2AB8DD3F80DAAC0","019cf9d0-040d-7909-88fc-6a5a219bae85","019cf9ba-391a-7c7b-96b9-3757895c469c","","1359","
                <div class=""stimulus-container"">
                    <img src=""images/instructions/movie_2.png"" class=""exp-image"">
                    <div class=""question-area"">
                        <p style=""font-size: 20px; font-weight: bold; margin: 0;"">Was there a person in this image?</p>
                    </div>
                </div>","0","example_question","2","","","","","","","",""
"","","","","","html-keyboard-response","10","88494","0.0-10.0","11A5BC3C5A924C01A2AB8DD3F80DAAC0","019cf9d0-040d-7909-88fc-6a5a219bae85","019cf9ba-391a-7c7b-96b9-3757895c469c","","null","
                <div class=""stimulus-container"">
                    <img src=""images/instructions/movie_3.png"" class=""exp-image"">
                    <div class=""question-area""></div> 
                </div>","null","","","","","","","","","",""
"","","","","","html-button-response","11","89496","0.0-11.0","11A5BC3C5A924C01A2AB8DD3F80DAAC0","019cf9d0-040d-7909-88fc-6a5a219bae85","019cf9ba-391a-7c7b-96b9-3757895c469c","","1000","
                <div class=""stimulus-container"">
                    <img src=""images/instructions/movie_3.png"" class=""exp-image"">
                    <div class=""question-area"">
                        <p style=""font-size: 20px; font-weight: bold; margin: 0;"">Was there a person in this image?</p>
                    </div>
                </div>","0","example_question","3","","","","","","","",""
"","","","","","html-keyboard-response","12","93510","0.0-12.0","11A5BC3C5A924C01A2AB8DD3F80DAAC0","019cf9d0-040d-7909-88fc-6a5a219bae85","019cf9ba-391a-7c7b-96b9-3757895c469c","","null","
                <div class=""stimulus-container"">
                    <img src=""images/instructions/movie_4.png"" class=""exp-image"">
                    <div class=""question-area""></div> 
                </div>","null","","","","","","","","","",""
"","","","","","html-button-response","13","94482","0.0-13.0","11A5BC3C5A924C01A2AB8DD3F80DAAC0","019cf9d0-040d-7909-88fc-6a5a219bae85","019cf9ba-391a-7c7b-96b9-3757895c469c","","970","
                <div class=""stimulus-container"">
                    <img src=""images/instructions/movie_4.png"" class=""exp-image"">
                    <div class=""question-area"">
                        <p style=""font-size: 20px; font-weight: bold; margin: 0;"">Was there a person in this image?</p>
                    </div>
                </div>","0","example_question","4","","","","","","","",""
"","","","","","instructions","14","96807","0.0-14.0","11A5BC3C5A924C01A2AB8DD3F80DAAC0","019cf9d0-040d-7909-88fc-6a5a219bae85","019cf9ba-391a-7c7b-96b9-3757895c469c","[{""page_index"":0,""viewing_time"":2324}]","2324","","","","","","","","","","","",""
"","","","","","instructions","15","109291","0.0-15.0","11A5BC3C5A924C01A2AB8DD3F80DAAC0","019cf9d0-040d-7909-88fc-6a5a219bae85","019cf9ba-391a-7c7b-96b9-3757895c469c","[{""page_index"":0,""viewing_time"":12483}]","12483","","","","","","","","","","","",""
"","","","","","html-keyboard-response","16","114295","0.0-16.0","11A5BC3C5A924C01A2AB8DD3F80DAAC0","019cf9d0-040d-7909-88fc-6a5a219bae85","019cf9ba-391a-7c7b-96b9-3757895c469c","","null","<div style=""background-color: white; width: 100vw; height: 100vh;""></div>","null","","","","","","","","","",""
"","","","","","html-keyboard-response","17","115298","0.0-17.0","11A5BC3C5A924C01A2AB8DD3F80DAAC0","019cf9d0-040d-7909-88fc-6a5a219bae85","019cf9ba-391a-7c7b-96b9-3757895c469c","","null","
                <div class=""stimulus-container"">
                    <img src=""images/causal_sequence/dog_causal/dog_causal_2.png"" class=""exp-image"">
                    <div class=""question-area""></div> 
                </div>","null","","","","","","","","","",""
"","","","","","html-button-response","18","117134","0.0-18.0","11A5BC3C5A924C01A2AB8DD3F80DAAC0","019cf9d0-040d-7909-88fc-6a5a219bae85","019cf9ba-391a-7c7b-96b9-3757895c469c","","1834","
                <div class=""stimulus-container"">
                    <img src=""images/causal_sequence/dog_causal/dog_causal_2.png"" class=""exp-image"">
                    <div class=""question-area"">
                        <p style=""font-size: 20px; font-weight: bold; margin: 0;"">Is there a person in this image?</p>
                    </div>
                </div>","0","main_experiment_trial","2","dog_causal","causal_sequence","randomized","","","","",""
"","","","","","html-keyboard-response","19","118140","0.0-19.0","11A5BC3C5A924C01A2AB8DD3F80DAAC0","019cf9d0-040d-7909-88fc-6a5a219bae85","019cf9ba-391a-7c7b-96b9-3757895c469c","","null","
                <div class=""stimulus-container"">
                    <img src=""images/causal_sequence/dog_causal/dog_causal_ten.png"" class=""exp-image"">
                    <div class=""question-area""></div> 
                </div>","null","","","","","","","","","",""
"","","","","","html-button-response","20","119262","0.0-20.0","11A5BC3C5A924C01A2AB8DD3F80DAAC0","019cf9d0-040d-7909-88fc-6a5a219bae85","019cf9ba-391a-7c7b-96b9-3757895c469c","","1119","
                <div class=""stimulus-container"">
                    <img src=""images/causal_sequence/dog_causal/dog_causal_ten.png"" class=""exp-image"">
                    <div class=""question-area"">
                        <p style=""font-size: 20px; font-weight: bold; margin: 0;"">Is there a person in this image?</p>
                    </div>
                </div>","0","main_experiment_trial","ten","dog_causal","causal_sequence","randomized","","","","",""
"","","","","","html-keyboard-response","21","120267","0.0-21.0","11A5BC3C5A924C01A2AB8DD3F80DAAC0","019cf9d0-040d-7909-88fc-6a5a219bae85","019cf9ba-391a-7c7b-96b9-3757895c469c","","null","
                <div class=""stimulus-container"">
                    <img src=""images/causal_sequence/dog_causal/dog_causal_9.png"" class=""exp-image"">
                    <div class=""question-area""></div> 
                </div>","null","","","","","","","","","",""
"","","","","","html-button-response","22","123271","0.0-22.0","11A5BC3C5A924C01A2AB8DD3F80DAAC0","019cf9d0-040d-7909-88fc-6a5a219bae85","019cf9ba-391a-7c7b-96b9-3757895c469c","","null","
                <div class=""stimulus-container"">
                    <img src=""images/causal_sequence/dog_causal/dog_causal_9.png"" class=""exp-image"">
                    <div class=""question-area"">
                        <p style=""font-size: 20px; font-weight: bold; margin: 0;"">Is there a person in this image?</p>
                    </div>
                </div>","null","main_experiment_trial","9","dog_causal","causal_sequence","randomized","","","","",""
"","","","","","html-keyboard-response","23","124278","0.0-23.0","11A5BC3C5A924C01A2AB8DD3F80DAAC0","019cf9d0-040d-7909-88fc-6a5a219bae85","019cf9ba-391a-7c7b-96b9-3757895c469c","","null","
                <div class=""stimulus-container"">
                    <img src=""images/causal_sequence/dog_causal/dog_causal_1.png"" class=""exp-image"">
                    <div class=""question-area""></div> 
                </div>","null","","","","","","","","","",""
"","","","","","html-button-response","24","125284","0.0-24.0","11A5BC3C5A924C01A2AB8DD3F80DAAC0","019cf9d0-040d-7909-88fc-6a5a219bae85","019cf9ba-391a-7c7b-96b9-3757895c469c","","1003","
                <div class=""stimulus-container"">
                    <img src=""images/causal_sequence/dog_causal/dog_causal_1.png"" class=""exp-image"">
                    <div class=""question-area"">
                        <p style=""font-size: 20px; font-weight: bold; margin: 0;"">Is there a person in this image?</p>
                    </div>
                </div>","0","main_experiment_trial","1","dog_causal","causal_sequence","randomized","","","","",""
"","","","","","html-keyboard-response","25","126294","0.0-25.0","11A5BC3C5A924C01A2AB8DD3F80DAAC0","019cf9d0-040d-7909-88fc-6a5a219bae85","019cf9ba-391a-7c7b-96b9-3757895c469c","","null","
                <div class=""stimulus-container"">
                    <img src=""images/causal_sequence/dog_causal/dog_causal_4.png"" class=""exp-image"">
                    <div class=""question-area""></div> 
                </div>","null","","","","","","","","","",""
"","","","","","html-button-response","26","127012","0.0-26.0","11A5BC3C5A924C01A2AB8DD3F80DAAC0","019cf9d0-040d-7909-88fc-6a5a219bae85","019cf9ba-391a-7c7b-96b9-3757895c469c","","716","
                <div class=""stimulus-container"">
                    <img src=""images/causal_sequence/dog_causal/dog_causal_4.png"" class=""exp-image"">
                    <div class=""question-area"">
                        <p style=""font-size: 20px; font-weight: bold; margin: 0;"">Is there a person in this image?</p>
                    </div>
                </div>","0","main_experiment_trial","4","dog_causal","causal_sequence","randomized","","","","",""
"","","","","","html-keyboard-response","27","128031","0.0-27.0","11A5BC3C5A924C01A2AB8DD3F80DAAC0","019cf9d0-040d-7909-88fc-6a5a219bae85","019cf9ba-391a-7c7b-96b9-3757895c469c","","null","
                <div class=""stimulus-container"">
                    <img src=""images/causal_sequence/dog_causal/dog_causal_6.png"" class=""exp-image"">
                    <div class=""question-area""></div> 
                </div>","null","","","","","","","","","",""
"","","","","","html-button-response","28","129066","0.0-28.0","11A5BC3C5A924C01A2AB8DD3F80DAAC0","019cf9d0-040d-7909-88fc-6a5a219bae85","019cf9ba-391a-7c7b-96b9-3757895c469c","","1033","
                <div class=""stimulus-container"">
                    <img src=""images/causal_sequence/dog_causal/dog_causal_6.png"" class=""exp-image"">
                    <div class=""question-area"">
                        <p style=""font-size: 20px; font-weight: bold; margin: 0;"">Is there a person in this image?</p>
                    </div>
                </div>","0","main_experiment_trial","6","dog_causal","causal_sequence","randomized","","","","",""
"","","","","","html-keyboard-response","29","130085","0.0-29.0","11A5BC3C5A924C01A2AB8DD3F80DAAC0","019cf9d0-040d-7909-88fc-6a5a219bae85","019cf9ba-391a-7c7b-96b9-3757895c469c","","null","
                <div class=""stimulus-container"">
                    <img src=""images/causal_sequence/dog_causal/dog_causal_5.png"" class=""exp-image"">
                    <div class=""question-area""></div> 
                </div>","null","","","","","","","","","",""
"","","","","","html-button-response","30","130656","0.0-30.0","11A5BC3C5A924C01A2AB8DD3F80DAAC0","019cf9d0-040d-7909-88fc-6a5a219bae85","019cf9ba-391a-7c7b-96b9-3757895c469c","","569","
                <div class=""stimulus-container"">
                    <img src=""images/causal_sequence/dog_causal/dog_causal_5.png"" class=""exp-image"">
                    <div class=""question-area"">
                        <p style=""font-size: 20px; font-weight: bold; margin: 0;"">Is there a person in this image?</p>
                    </div>
                </div>","0","main_experiment_trial","5","dog_causal","causal_sequence","randomized","","","","",""
"","","","","","html-keyboard-response","31","131660","0.0-31.0","11A5BC3C5A924C01A2AB8DD3F80DAAC0","019cf9d0-040d-7909-88fc-6a5a219bae85","019cf9ba-391a-7c7b-96b9-3757895c469c","","null","
                <div class=""stimulus-container"">
                    <img src=""images/causal_sequence/dog_causal/dog_causal_7.png"" class=""exp-image"">
                    <div class=""question-area""></div> 
                </div>","null","","","","","","","","","",""
"","","","","","html-button-response","32","132629","0.0-32.0","11A5BC3C5A924C01A2AB8DD3F80DAAC0","019cf9d0-040d-7909-88fc-6a5a219bae85","019cf9ba-391a-7c7b-96b9-3757895c469c","","967","
                <div class=""stimulus-container"">
                    <img src=""images/causal_sequence/dog_causal/dog_causal_7.png"" class=""exp-image"">
                    <div class=""question-area"">
                        <p style=""font-size: 20px; font-weight: bold; margin: 0;"">Is there a person in this image?</p>
                    </div>
                </div>","0","main_experiment_trial","7","dog_causal","causal_sequence","randomized","","","","",""
"","","","","","html-keyboard-response","33","133634","0.0-33.0","11A5BC3C5A924C01A2AB8DD3F80DAAC0","019cf9d0-040d-7909-88fc-6a5a219bae85","019cf9ba-391a-7c7b-96b9-3757895c469c","","null","
                <div class=""stimulus-container"">
                    <img src=""images/causal_sequence/dog_causal/dog_causal_8.png"" class=""exp-image"">
                    <div class=""question-area""></div> 
                </div>","null","","","","","","","","","",""
"","","","","","html-button-response","34","134603","0.0-34.0","11A5BC3C5A924C01A2AB8DD3F80DAAC0","019cf9d0-040d-7909-88fc-6a5a219bae85","019cf9ba-391a-7c7b-96b9-3757895c469c","","968","
                <div class=""stimulus-container"">
                    <img src=""images/causal_sequence/dog_causal/dog_causal_8.png"" class=""exp-image"">
                    <div class=""question-area"">
                        <p style=""font-size: 20px; font-weight: bold; margin: 0;"">Is there a person in this image?</p>
                    </div>
                </div>","0","main_experiment_trial","8","dog_causal","causal_sequence","randomized","","","","",""
"","","","","","html-keyboard-response","35","135606","0.0-35.0","11A5BC3C5A924C01A2AB8DD3F80DAAC0","019cf9d0-040d-7909-88fc-6a5a219bae85","019cf9ba-391a-7c7b-96b9-3757895c469c","","null","
                <div class=""stimulus-container"">
                    <img src=""images/causal_sequence/dog_causal/dog_causal_3.png"" class=""exp-image"">
                    <div class=""question-area""></div> 
                </div>","null","","","","","","","","","",""
"","","","","","html-button-response","36","136520","0.0-36.0","11A5BC3C5A924C01A2AB8DD3F80DAAC0","019cf9d0-040d-7909-88fc-6a5a219bae85","019cf9ba-391a-7c7b-96b9-3757895c469c","","913","
                <div class=""stimulus-container"">
                    <img src=""images/causal_sequence/dog_causal/dog_causal_3.png"" class=""exp-image"">
                    <div class=""question-area"">
                        <p style=""font-size: 20px; font-weight: bold; margin: 0;"">Is there a person in this image?</p>
                    </div>
                </div>","0","main_experiment_trial","3","dog_causal","causal_sequence","randomized","","","","",""
"","","","","","html-keyboard-response","37","141525","0.0-37.0","11A5BC3C5A924C01A2AB8DD3F80DAAC0","019cf9d0-040d-7909-88fc-6a5a219bae85","019cf9ba-391a-7c7b-96b9-3757895c469c","","null","<div style=""background-color: white; width: 100vw; height: 100vh;""></div>","null","","","","","","","","","",""
"","","","","","html-keyboard-response","38","142531","0.0-38.0","11A5BC3C5A924C01A2AB8DD3F80DAAC0","019cf9d0-040d-7909-88fc-6a5a219bae85","019cf9ba-391a-7c7b-96b9-3757895c469c","","null","
                <div class=""stimulus-container"">
                    <img src=""images/semantic_sequence/using_technology_semantic/using_technology_semantic_1.png"" class=""exp-image"">
                    <div class=""question-area""></div> 
                </div>","null","","","","","","","","","",""
"","","","","","html-button-response","39","143718","0.0-39.0","11A5BC3C5A924C01A2AB8DD3F80DAAC0","019cf9d0-040d-7909-88fc-6a5a219bae85","019cf9ba-391a-7c7b-96b9-3757895c469c","","1185","
                <div class=""stimulus-container"">
                    <img src=""images/semantic_sequence/using_technology_semantic/using_technology_semantic_1.png"" class=""exp-image"">
                    <div class=""question-area"">
                        <p style=""font-size: 20px; font-weight: bold; margin: 0;"">Is there a person in this image?</p>
                    </div>
                </div>","0","main_experiment_trial","1","using_technology_semantic","semantic_sequence","randomized","","","","",""
"","","","","","html-keyboard-response","40","144726","0.0-40.0","11A5BC3C5A924C01A2AB8DD3F80DAAC0","019cf9d0-040d-7909-88fc-6a5a219bae85","019cf9ba-391a-7c7b-96b9-3757895c469c","","null","
                <div class=""stimulus-container"">
                    <img src=""images/semantic_sequence/using_technology_semantic/using_technology_semantic_7.png"" class=""exp-image"">
                    <div class=""question-area""></div> 
                </div>","null","","","","","","","","","",""
"","","","","","html-button-response","41","145561","0.0-41.0","11A5BC3C5A924C01A2AB8DD3F80DAAC0","019cf9d0-040d-7909-88fc-6a5a219bae85","019cf9ba-391a-7c7b-96b9-3757895c469c","","832","
                <div class=""stimulus-container"">
                    <img src=""images/semantic_sequence/using_technology_semantic/using_technology_semantic_7.png"" class=""exp-image"">
                    <div class=""question-area"">
                        <p style=""font-size: 20px; font-weight: bold; margin: 0;"">Is there a person in this image?</p>
                    </div>
                </div>","0","main_experiment_trial","7","using_technology_semantic","semantic_sequence","randomized","","","","",""
"","","","","","html-keyboard-response","42","146567","0.0-42.0","11A5BC3C5A924C01A2AB8DD3F80DAAC0","019cf9d0-040d-7909-88fc-6a5a219bae85","019cf9ba-391a-7c7b-96b9-3757895c469c","","null","
                <div class=""stimulus-container"">
                    <img src=""images/semantic_sequence/using_technology_semantic/using_technology_semantic_9.png"" class=""exp-image"">
                    <div class=""question-area""></div> 
                </div>","null","","","","","","","","","",""
"","","","","","html-button-response","43","147330","0.0-43.0","11A5BC3C5A924C01A2AB8DD3F80DAAC0","019cf9d0-040d-7909-88fc-6a5a219bae85","019cf9ba-391a-7c7b-96b9-3757895c469c","","761","
                <div class=""stimulus-container"">
                    <img src=""images/semantic_sequence/using_technology_semantic/using_technology_semantic_9.png"" class=""exp-image"">
                    <div class=""question-area"">
                        <p style=""font-size: 20px; font-weight: bold; margin: 0;"">Is there a person in this image?</p>
                    </div>
                </div>","0","main_experiment_trial","9","using_technology_semantic","semantic_sequence","randomized","","","","",""
"","","","","","html-keyboard-response","44","148334","0.0-44.0","11A5BC3C5A924C01A2AB8DD3F80DAAC0","019cf9d0-040d-7909-88fc-6a5a219bae85","019cf9ba-391a-7c7b-96b9-3757895c469c","","null","
                <div class=""stimulus-container"">
                    <img src=""images/semantic_sequence/using_technology_semantic/using_technology_semantic_ten.png"" class=""exp-image"">
                    <div class=""question-area""></div> 
                </div>","null","","","","","","","","","",""
"","","","","","html-button-response","45","148983","0.0-45.0","11A5BC3C5A924C01A2AB8DD3F80DAAC0","019cf9d0-040d-7909-88fc-6a5a219bae85","019cf9ba-391a-7c7b-96b9-3757895c469c","","649","
                <div class=""stimulus-container"">
                    <img src=""images/semantic_sequence/using_technology_semantic/using_technology_semantic_ten.png"" class=""exp-image"">
                    <div class=""question-area"">
                        <p style=""font-size: 20px; font-weight: bold; margin: 0;"">Is there a person in this image?</p>
                    </div>
                </div>","0","main_experiment_trial","ten","using_technology_semantic","semantic_sequence","randomized","","","","",""
"","","","","","html-keyboard-response","46","149987","0.0-46.0","11A5BC3C5A924C01A2AB8DD3F80DAAC0","019cf9d0-040d-7909-88fc-6a5a219bae85","019cf9ba-391a-7c7b-96b9-3757895c469c","","null","
                <div class=""stimulus-container"">
                    <img src=""images/semantic_sequence/using_technology_semantic/using_technology_semantic_5.png"" class=""exp-image"">
                    <div class=""question-area""></div> 
                </div>","null","","","","","","","","","",""
"","","","","","html-button-response","47","150442","0.0-47.0","11A5BC3C5A924C01A2AB8DD3F80DAAC0","019cf9d0-040d-7909-88fc-6a5a219bae85","019cf9ba-391a-7c7b-96b9-3757895c469c","","454","
                <div class=""stimulus-container"">
                    <img src=""images/semantic_sequence/using_technology_semantic/using_technology_semantic_5.png"" class=""exp-image"">
                    <div class=""question-area"">
                        <p style=""font-size: 20px; font-weight: bold; margin: 0;"">Is there a person in this image?</p>
                    </div>
                </div>","0","main_experiment_trial","5","using_technology_semantic","semantic_sequence","randomized","","","","",""
"","","","","","html-keyboard-response","48","151446","0.0-48.0","11A5BC3C5A924C01A2AB8DD3F80DAAC0","019cf9d0-040d-7909-88fc-6a5a219bae85","019cf9ba-391a-7c7b-96b9-3757895c469c","","null","
                <div class=""stimulus-container"">
                    <img src=""images/semantic_sequence/using_technology_semantic/using_technology_semantic_8.png"" class=""exp-image"">
                    <div class=""question-area""></div> 
                </div>","null","","","","","","","","","",""
"","","","","","html-button-response","49","151923","0.0-49.0","11A5BC3C5A924C01A2AB8DD3F80DAAC0","019cf9d0-040d-7909-88fc-6a5a219bae85","019cf9ba-391a-7c7b-96b9-3757895c469c","","476","
                <div class=""stimulus-container"">
                    <img src=""images/semantic_sequence/using_technology_semantic/using_technology_semantic_8.png"" class=""exp-image"">
                    <div class=""question-area"">
                        <p style=""font-size: 20px; font-weight: bold; margin: 0;"">Is there a person in this image?</p>
                    </div>
                </div>","0","main_experiment_trial","8","using_technology_semantic","semantic_sequence","randomized","","","","",""
"","","","","","html-keyboard-response","50","152926","0.0-50.0","11A5BC3C5A924C01A2AB8DD3F80DAAC0","019cf9d0-040d-7909-88fc-6a5a219bae85","019cf9ba-391a-7c7b-96b9-3757895c469c","","null","
                <div class=""stimulus-container"">
                    <img src=""images/semantic_sequence/using_technology_semantic/using_technology_semantic_4.png"" class=""exp-image"">
                    <div class=""question-area""></div> 
                </div>","null","","","","","","","","","",""
"","","","","","html-button-response","51","153487","0.0-51.0","11A5BC3C5A924C01A2AB8DD3F80DAAC0","019cf9d0-040d-7909-88fc-6a5a219bae85","019cf9ba-391a-7c7b-96b9-3757895c469c","","559","
                <div class=""stimulus-container"">
                    <img src=""images/semantic_sequence/using_technology_semantic/using_technology_semantic_4.png"" class=""exp-image"">
                    <div class=""question-area"">
                        <p style=""font-size: 20px; font-weight: bold; margin: 0;"">Is there a person in this image?</p>
                    </div>
                </div>","0","main_experiment_trial","4","using_technology_semantic","semantic_sequence","randomized","","","","",""
"","","","","","html-keyboard-response","52","154499","0.0-52.0","11A5BC3C5A924C01A2AB8DD3F80DAAC0","019cf9d0-040d-7909-88fc-6a5a219bae85","019cf9ba-391a-7c7b-96b9-3757895c469c","","null","
                <div class=""stimulus-container"">
                    <img src=""images/semantic_sequence/using_technology_semantic/using_technology_semantic_3.png"" class=""exp-image"">
                    <div class=""question-area""></div> 
                </div>","null","","","","","","","","","",""
"","","","","","html-button-response","53","155077","0.0-53.0","11A5BC3C5A924C01A2AB8DD3F80DAAC0","019cf9d0-040d-7909-88fc-6a5a219bae85","019cf9ba-391a-7c7b-96b9-3757895c469c","","576","
                <div class=""stimulus-container"">
                    <img src=""images/semantic_sequence/using_technology_semantic/using_technology_semantic_3.png"" class=""exp-image"">
                    <div class=""question-area"">
                        <p style=""font-size: 20px; font-weight: bold; margin: 0;"">Is there a person in this image?</p>
                    </div>
                </div>","0","main_experiment_trial","3","using_technology_semantic","semantic_sequence","randomized","","","","",""
"","","","","","html-keyboard-response","54","156095","0.0-54.0","11A5BC3C5A924C01A2AB8DD3F80DAAC0","019cf9d0-040d-7909-88fc-6a5a219bae85","019cf9ba-391a-7c7b-96b9-3757895c469c","","null","
                <div class=""stimulus-container"">
                    <img src=""images/semantic_sequence/using_technology_semantic/using_technology_semantic_2.png"" class=""exp-image"">
                    <div class=""question-area""></div> 
                </div>","null","","","","","","","","","",""
"","","","","","html-button-response","55","156578","0.0-55.0","11A5BC3C5A924C01A2AB8DD3F80DAAC0","019cf9d0-040d-7909-88fc-6a5a219bae85","019cf9ba-391a-7c7b-96b9-3757895c469c","","482","
                <div class=""stimulus-container"">
                    <img src=""images/semantic_sequence/using_technology_semantic/using_technology_semantic_2.png"" class=""exp-image"">
                    <div class=""question-area"">
                        <p style=""font-size: 20px; font-weight: bold; margin: 0;"">Is there a person in this image?</p>
                    </div>
                </div>","0","main_experiment_trial","2","using_technology_semantic","semantic_sequence","randomized","","","","",""
"","","","","","html-keyboard-response","56","157582","0.0-56.0","11A5BC3C5A924C01A2AB8DD3F80DAAC0","019cf9d0-040d-7909-88fc-6a5a219bae85","019cf9ba-391a-7c7b-96b9-3757895c469c","","null","
                <div class=""stimulus-container"">
                    <img src=""images/semantic_sequence/using_technology_semantic/using_technology_semantic_6.png"" class=""exp-image"">
                    <div class=""question-area""></div> 
                </div>","null","","","","","","","","","",""
"","","","","","html-button-response","57","158223","0.0-57.0","11A5BC3C5A924C01A2AB8DD3F80DAAC0","019cf9d0-040d-7909-88fc-6a5a219bae85","019cf9ba-391a-7c7b-96b9-3757895c469c","","639","
                <div class=""stimulus-container"">
                    <img src=""images/semantic_sequence/using_technology_semantic/using_technology_semantic_6.png"" class=""exp-image"">
                    <div class=""question-area"">
                        <p style=""font-size: 20px; font-weight: bold; margin: 0;"">Is there a person in this image?</p>
                    </div>
                </div>","0","main_experiment_trial","6","using_technology_semantic","semantic_sequence","randomized","","","","",""
"","","","","","html-keyboard-response","58","163242","0.0-58.0","11A5BC3C5A924C01A2AB8DD3F80DAAC0","019cf9d0-040d-7909-88fc-6a5a219bae85","019cf9ba-391a-7c7b-96b9-3757895c469c","","null","<div style=""background-color: white; width: 100vw; height: 100vh;""></div>","null","","","","","","","","","",""
"","","","","","html-keyboard-response","59","164262","0.0-59.0","11A5BC3C5A924C01A2AB8DD3F80DAAC0","019cf9d0-040d-7909-88fc-6a5a219bae85","019cf9ba-391a-7c7b-96b9-3757895c469c","","null","
                <div class=""stimulus-container"">
                    <img src=""images/semantic_sequence/cat_care_semantic/cat_care_semantic_ten.png"" class=""exp-image"">
                    <div class=""question-area""></div> 
                </div>","null","","","","","","","","","",""
"","","","","","html-button-response","60","165699","0.0-60.0","11A5BC3C5A924C01A2AB8DD3F80DAAC0","019cf9d0-040d-7909-88fc-6a5a219bae85","019cf9ba-391a-7c7b-96b9-3757895c469c","","1435","
                <div class=""stimulus-container"">
                    <img src=""images/semantic_sequence/cat_care_semantic/cat_care_semantic_ten.png"" class=""exp-image"">
                    <div class=""question-area"">
                        <p style=""font-size: 20px; font-weight: bold; margin: 0;"">Is there a person in this image?</p>
                    </div>
                </div>","1","main_experiment_trial","ten","cat_care_semantic","semantic_sequence","randomized","","","","",""
"","","","","","html-keyboard-response","61","166702","0.0-61.0","11A5BC3C5A924C01A2AB8DD3F80DAAC0","019cf9d0-040d-7909-88fc-6a5a219bae85","019cf9ba-391a-7c7b-96b9-3757895c469c","","null","
                <div class=""stimulus-container"">
                    <img src=""images/semantic_sequence/cat_care_semantic/cat_care_semantic_9.png"" class=""exp-image"">
                    <div class=""question-area""></div> 
                </div>","null","","","","","","","","","",""
"","","","","","html-button-response","62","167691","0.0-62.0","11A5BC3C5A924C01A2AB8DD3F80DAAC0","019cf9d0-040d-7909-88fc-6a5a219bae85","019cf9ba-391a-7c7b-96b9-3757895c469c","","988","
                <div class=""stimulus-container"">
                    <img src=""images/semantic_sequence/cat_care_semantic/cat_care_semantic_9.png"" class=""exp-image"">
                    <div class=""question-area"">
                        <p style=""font-size: 20px; font-weight: bold; margin: 0;"">Is there a person in this image?</p>
                    </div>
                </div>","0","main_experiment_trial","9","cat_care_semantic","semantic_sequence","randomized","","","","",""
"","","","","","html-keyboard-response","63","168702","0.0-63.0","11A5BC3C5A924C01A2AB8DD3F80DAAC0","019cf9d0-040d-7909-88fc-6a5a219bae85","019cf9ba-391a-7c7b-96b9-3757895c469c","","null","
                <div class=""stimulus-container"">
                    <img src=""images/semantic_sequence/cat_care_semantic/cat_care_semantic_6.png"" class=""exp-image"">
                    <div class=""question-area""></div> 
                </div>","null","","","","","","","","","",""
"","","","","","html-button-response","64","169552","0.0-64.0","11A5BC3C5A924C01A2AB8DD3F80DAAC0","019cf9d0-040d-7909-88fc-6a5a219bae85","019cf9ba-391a-7c7b-96b9-3757895c469c","","848","
                <div class=""stimulus-container"">
                    <img src=""images/semantic_sequence/cat_care_semantic/cat_care_semantic_6.png"" class=""exp-image"">
                    <div class=""question-area"">
                        <p style=""font-size: 20px; font-weight: bold; margin: 0;"">Is there a person in this image?</p>
                    </div>
                </div>","0","main_experiment_trial","6","cat_care_semantic","semantic_sequence","randomized","","","","",""
"","","","","","html-keyboard-response","65","170556","0.0-65.0","11A5BC3C5A924C01A2AB8DD3F80DAAC0","019cf9d0-040d-7909-88fc-6a5a219bae85","019cf9ba-391a-7c7b-96b9-3757895c469c","","null","
                <div class=""stimulus-container"">
                    <img src=""images/semantic_sequence/cat_care_semantic/cat_care_semantic_7.png"" class=""exp-image"">
                    <div class=""question-area""></div> 
                </div>","null","","","","","","","","","",""
"","","","","","html-button-response","66","171245","0.0-66.0","11A5BC3C5A924C01A2AB8DD3F80DAAC0","019cf9d0-040d-7909-88fc-6a5a219bae85","019cf9ba-391a-7c7b-96b9-3757895c469c","","688","
                <div class=""stimulus-container"">
                    <img src=""images/semantic_sequence/cat_care_semantic/cat_care_semantic_7.png"" class=""exp-image"">
                    <div class=""question-area"">
                        <p style=""font-size: 20px; font-weight: bold; margin: 0;"">Is there a person in this image?</p>
                    </div>
                </div>","0","main_experiment_trial","7","cat_care_semantic","semantic_sequence","randomized","","","","",""
"","","","","","html-keyboard-response","67","172249","0.0-67.0","11A5BC3C5A924C01A2AB8DD3F80DAAC0","019cf9d0-040d-7909-88fc-6a5a219bae85","019cf9ba-391a-7c7b-96b9-3757895c469c","","null","
                <div class=""stimulus-container"">
                    <img src=""images/semantic_sequence/cat_care_semantic/cat_care_semantic_8.png"" class=""exp-image"">
                    <div class=""question-area""></div> 
                </div>","null","","","","","","","","","",""
"","","","","","html-button-response","68","172875","0.0-68.0","11A5BC3C5A924C01A2AB8DD3F80DAAC0","019cf9d0-040d-7909-88fc-6a5a219bae85","019cf9ba-391a-7c7b-96b9-3757895c469c","","625","
                <div class=""stimulus-container"">
                    <img src=""images/semantic_sequence/cat_care_semantic/cat_care_semantic_8.png"" class=""exp-image"">
                    <div class=""question-area"">
                        <p style=""font-size: 20px; font-weight: bold; margin: 0;"">Is there a person in this image?</p>
                    </div>
                </div>","0","main_experiment_trial","8","cat_care_semantic","semantic_sequence","randomized","","","","",""
"","","","","","html-keyboard-response","69","173889","0.0-69.0","11A5BC3C5A924C01A2AB8DD3F80DAAC0","019cf9d0-040d-7909-88fc-6a5a219bae85","019cf9ba-391a-7c7b-96b9-3757895c469c","","null","
                <div class=""stimulus-container"">
                    <img src=""images/semantic_sequence/cat_care_semantic/cat_care_semantic_1.png"" class=""exp-image"">
                    <div class=""question-area""></div> 
                </div>","null","","","","","","","","","",""
"","","","","","html-button-response","70","174553","0.0-70.0","11A5BC3C5A924C01A2AB8DD3F80DAAC0","019cf9d0-040d-7909-88fc-6a5a219bae85","019cf9ba-391a-7c7b-96b9-3757895c469c","","663","
                <div class=""stimulus-container"">
                    <img src=""images/semantic_sequence/cat_care_semantic/cat_care_semantic_1.png"" class=""exp-image"">
                    <div class=""question-area"">
                        <p style=""font-size: 20px; font-weight: bold; margin: 0;"">Is there a person in this image?</p>
                    </div>
                </div>","0","main_experiment_trial","1","cat_care_semantic","semantic_sequence","randomized","","","","",""
"","","","","","html-keyboard-response","71","175555","0.0-71.0","11A5BC3C5A924C01A2AB8DD3F80DAAC0","019cf9d0-040d-7909-88fc-6a5a219bae85","019cf9ba-391a-7c7b-96b9-3757895c469c","","null","
                <div class=""stimulus-container"">
                    <img src=""images/semantic_sequence/cat_care_semantic/cat_care_semantic_4.png"" class=""exp-image"">
                    <div class=""question-area""></div> 
                </div>","null","","","","","","","","","",""
"","","","","","html-button-response","72","176139","0.0-72.0","11A5BC3C5A924C01A2AB8DD3F80DAAC0","019cf9d0-040d-7909-88fc-6a5a219bae85","019cf9ba-391a-7c7b-96b9-3757895c469c","","582","
                <div class=""stimulus-container"">
                    <img src=""images/semantic_sequence/cat_care_semantic/cat_care_semantic_4.png"" class=""exp-image"">
                    <div class=""question-area"">
                        <p style=""font-size: 20px; font-weight: bold; margin: 0;"">Is there a person in this image?</p>
                    </div>
                </div>","0","main_experiment_trial","4","cat_care_semantic","semantic_sequence","randomized","","","","",""
"","","","","","html-keyboard-response","73","177151","0.0-73.0","11A5BC3C5A924C01A2AB8DD3F80DAAC0","019cf9d0-040d-7909-88fc-6a5a219bae85","019cf9ba-391a-7c7b-96b9-3757895c469c","","null","
                <div class=""stimulus-container"">
                    <img src=""images/semantic_sequence/cat_care_semantic/cat_care_semantic_5.png"" class=""exp-image"">
                    <div class=""question-area""></div> 
                </div>","null","","","","","","","","","",""
"","","","","","html-button-response","74","177689","0.0-74.0","11A5BC3C5A924C01A2AB8DD3F80DAAC0","019cf9d0-040d-7909-88fc-6a5a219bae85","019cf9ba-391a-7c7b-96b9-3757895c469c","","536","
                <div class=""stimulus-container"">
                    <img src=""images/semantic_sequence/cat_care_semantic/cat_care_semantic_5.png"" class=""exp-image"">
                    <div class=""question-area"">
                        <p style=""font-size: 20px; font-weight: bold; margin: 0;"">Is there a person in this image?</p>
                    </div>
                </div>","0","main_experiment_trial","5","cat_care_semantic","semantic_sequence","randomized","","","","",""
"","","","","","html-keyboard-response","75","178696","0.0-75.0","11A5BC3C5A924C01A2AB8DD3F80DAAC0","019cf9d0-040d-7909-88fc-6a5a219bae85","019cf9ba-391a-7c7b-96b9-3757895c469c","","null","
                <div class=""stimulus-container"">
                    <img src=""images/semantic_sequence/cat_care_semantic/cat_care_semantic_2.png"" class=""exp-image"">
                    <div class=""question-area""></div> 
                </div>","null","","","","","","","","","",""
"","","","","","html-button-response","76","179189","0.0-76.0","11A5BC3C5A924C01A2AB8DD3F80DAAC0","019cf9d0-040d-7909-88fc-6a5a219bae85","019cf9ba-391a-7c7b-96b9-3757895c469c","","491","
                <div class=""stimulus-container"">
                    <img src=""images/semantic_sequence/cat_care_semantic/cat_care_semantic_2.png"" class=""exp-image"">
                    <div class=""question-area"">
                        <p style=""font-size: 20px; font-weight: bold; margin: 0;"">Is there a person in this image?</p>
                    </div>
                </div>","0","main_experiment_trial","2","cat_care_semantic","semantic_sequence","randomized","","","","",""
"","","","","","html-keyboard-response","77","180208","0.0-77.0","11A5BC3C5A924C01A2AB8DD3F80DAAC0","019cf9d0-040d-7909-88fc-6a5a219bae85","019cf9ba-391a-7c7b-96b9-3757895c469c","","null","
                <div class=""stimulus-container"">
                    <img src=""images/semantic_sequence/cat_care_semantic/cat_care_semantic_3.png"" class=""exp-image"">
                    <div class=""question-area""></div> 
                </div>","null","","","","","","","","","",""
"","","","","","html-button-response","78","180770","0.0-78.0","11A5BC3C5A924C01A2AB8DD3F80DAAC0","019cf9d0-040d-7909-88fc-6a5a219bae85","019cf9ba-391a-7c7b-96b9-3757895c469c","","560","
                <div class=""stimulus-container"">
                    <img src=""images/semantic_sequence/cat_care_semantic/cat_care_semantic_3.png"" class=""exp-image"">
                    <div class=""question-area"">
                        <p style=""font-size: 20px; font-weight: bold; margin: 0;"">Is there a person in this image?</p>
                    </div>
                </div>","0","main_experiment_trial","3","cat_care_semantic","semantic_sequence","randomized","","","","",""
"","","","","","html-keyboard-response","79","185773","0.0-79.0","11A5BC3C5A924C01A2AB8DD3F80DAAC0","019cf9d0-040d-7909-88fc-6a5a219bae85","019cf9ba-391a-7c7b-96b9-3757895c469c","","null","<div style=""background-color: white; width: 100vw; height: 100vh;""></div>","null","","","","","","","","","",""
"","","","","","html-keyboard-response","80","186788","0.0-80.0","11A5BC3C5A924C01A2AB8DD3F80DAAC0","019cf9d0-040d-7909-88fc-6a5a219bae85","019cf9ba-391a-7c7b-96b9-3757895c469c","","null","
                <div class=""stimulus-container"">
                    <img src=""images/semantic_sequence/exploring_nature_semantic/exploring_nature_semantic_1.png"" class=""exp-image"">
                    <div class=""question-area""></div> 
                </div>","null","","","","","","","","","",""
"","","","","","html-button-response","81","187590","0.0-81.0","11A5BC3C5A924C01A2AB8DD3F80DAAC0","019cf9d0-040d-7909-88fc-6a5a219bae85","019cf9ba-391a-7c7b-96b9-3757895c469c","","800","
                <div class=""stimulus-container"">
                    <img src=""images/semantic_sequence/exploring_nature_semantic/exploring_nature_semantic_1.png"" class=""exp-image"">
                    <div class=""question-area"">
                        <p style=""font-size: 20px; font-weight: bold; margin: 0;"">Is there a person in this image?</p>
                    </div>
                </div>","0","main_experiment_trial","1","exploring_nature_semantic","semantic_sequence","randomized","","","","",""
"","","","","","html-keyboard-response","82","188592","0.0-82.0","11A5BC3C5A924C01A2AB8DD3F80DAAC0","019cf9d0-040d-7909-88fc-6a5a219bae85","019cf9ba-391a-7c7b-96b9-3757895c469c","","null","
                <div class=""stimulus-container"">
                    <img src=""images/semantic_sequence/exploring_nature_semantic/exploring_nature_semantic_7.png"" class=""exp-image"">
                    <div class=""question-area""></div> 
                </div>","null","","","","","","","","","",""
"","","","","","html-button-response","83","189213","0.0-83.0","11A5BC3C5A924C01A2AB8DD3F80DAAC0","019cf9d0-040d-7909-88fc-6a5a219bae85","019cf9ba-391a-7c7b-96b9-3757895c469c","","620","
                <div class=""stimulus-container"">
                    <img src=""images/semantic_sequence/exploring_nature_semantic/exploring_nature_semantic_7.png"" class=""exp-image"">
                    <div class=""question-area"">
                        <p style=""font-size: 20px; font-weight: bold; margin: 0;"">Is there a person in this image?</p>
                    </div>
                </div>","0","main_experiment_trial","7","exploring_nature_semantic","semantic_sequence","randomized","","","","",""
"","","","","","html-keyboard-response","84","190232","0.0-84.0","11A5BC3C5A924C01A2AB8DD3F80DAAC0","019cf9d0-040d-7909-88fc-6a5a219bae85","019cf9ba-391a-7c7b-96b9-3757895c469c","","null","
                <div class=""stimulus-container"">
                    <img src=""images/semantic_sequence/exploring_nature_semantic/exploring_nature_semantic_4.png"" class=""exp-image"">
                    <div class=""question-area""></div> 
                </div>","null","","","","","","","","","",""
"","","","","","html-button-response","85","190721","0.0-85.0","11A5BC3C5A924C01A2AB8DD3F80DAAC0","019cf9d0-040d-7909-88fc-6a5a219bae85","019cf9ba-391a-7c7b-96b9-3757895c469c","","487","
                <div class=""stimulus-container"">
                    <img src=""images/semantic_sequence/exploring_nature_semantic/exploring_nature_semantic_4.png"" class=""exp-image"">
                    <div class=""question-area"">
                        <p style=""font-size: 20px; font-weight: bold; margin: 0;"">Is there a person in this image?</p>
                    </div>
                </div>","0","main_experiment_trial","4","exploring_nature_semantic","semantic_sequence","randomized","","","","",""
"","","","","","html-keyboard-response","86","191739","0.0-86.0","11A5BC3C5A924C01A2AB8DD3F80DAAC0","019cf9d0-040d-7909-88fc-6a5a219bae85","019cf9ba-391a-7c7b-96b9-3757895c469c","","null","
                <div class=""stimulus-container"">
                    <img src=""images/semantic_sequence/exploring_nature_semantic/exploring_nature_semantic_6.png"" class=""exp-image"">
                    <div class=""question-area""></div> 
                </div>","null","","","","","","","","","",""
"","","","","","html-button-response","87","192293","0.0-87.0","11A5BC3C5A924C01A2AB8DD3F80DAAC0","019cf9d0-040d-7909-88fc-6a5a219bae85","019cf9ba-391a-7c7b-96b9-3757895c469c","","552","
                <div class=""stimulus-container"">
                    <img src=""images/semantic_sequence/exploring_nature_semantic/exploring_nature_semantic_6.png"" class=""exp-image"">
                    <div class=""question-area"">
                        <p style=""font-size: 20px; font-weight: bold; margin: 0;"">Is there a person in this image?</p>
                    </div>
                </div>","0","main_experiment_trial","6","exploring_nature_semantic","semantic_sequence","randomized","","","","",""
"","","","","","html-keyboard-response","88","193310","0.0-88.0","11A5BC3C5A924C01A2AB8DD3F80DAAC0","019cf9d0-040d-7909-88fc-6a5a219bae85","019cf9ba-391a-7c7b-96b9-3757895c469c","","null","
                <div class=""stimulus-container"">
                    <img src=""images/semantic_sequence/exploring_nature_semantic/exploring_nature_semantic_9.png"" class=""exp-image"">
                    <div class=""question-area""></div> 
                </div>","null","","","","","","","","","",""
"","","","","","html-button-response","89","193784","0.0-89.0","11A5BC3C5A924C01A2AB8DD3F80DAAC0","019cf9d0-040d-7909-88fc-6a5a219bae85","019cf9ba-391a-7c7b-96b9-3757895c469c","","473","
                <div class=""stimulus-container"">
                    <img src=""images/semantic_sequence/exploring_nature_semantic/exploring_nature_semantic_9.png"" class=""exp-image"">
                    <div class=""question-area"">
                        <p style=""font-size: 20px; font-weight: bold; margin: 0;"">Is there a person in this image?</p>
                    </div>
                </div>","0","main_experiment_trial","9","exploring_nature_semantic","semantic_sequence","randomized","","","","",""
"","","","","","html-keyboard-response","90","194798","0.0-90.0","11A5BC3C5A924C01A2AB8DD3F80DAAC0","019cf9d0-040d-7909-88fc-6a5a219bae85","019cf9ba-391a-7c7b-96b9-3757895c469c","","null","
                <div class=""stimulus-container"">
                    <img src=""images/semantic_sequence/exploring_nature_semantic/exploring_nature_semantic_2.png"" class=""exp-image"">
                    <div class=""question-area""></div> 
                </div>","null","","","","","","","","","",""
"","","","","","html-button-response","91","195349","0.0-91.0","11A5BC3C5A924C01A2AB8DD3F80DAAC0","019cf9d0-040d-7909-88fc-6a5a219bae85","019cf9ba-391a-7c7b-96b9-3757895c469c","","550","
                <div class=""stimulus-container"">
                    <img src=""images/semantic_sequence/exploring_nature_semantic/exploring_nature_semantic_2.png"" class=""exp-image"">
                    <div class=""question-area"">
                        <p style=""font-size: 20px; font-weight: bold; margin: 0;"">Is there a person in this image?</p>
                    </div>
                </div>","0","main_experiment_trial","2","exploring_nature_semantic","semantic_sequence","randomized","","","","",""
"","","","","","html-keyboard-response","92","196359","0.0-92.0","11A5BC3C5A924C01A2AB8DD3F80DAAC0","019cf9d0-040d-7909-88fc-6a5a219bae85","019cf9ba-391a-7c7b-96b9-3757895c469c","","null","
                <div class=""stimulus-container"">
                    <img src=""images/semantic_sequence/exploring_nature_semantic/exploring_nature_semantic_3.png"" class=""exp-image"">
                    <div class=""question-area""></div> 
                </div>","null","","","","","","","","","",""
"","","","","","html-button-response","93","196848","0.0-93.0","11A5BC3C5A924C01A2AB8DD3F80DAAC0","019cf9d0-040d-7909-88fc-6a5a219bae85","019cf9ba-391a-7c7b-96b9-3757895c469c","","488","
                <div class=""stimulus-container"">
                    <img src=""images/semantic_sequence/exploring_nature_semantic/exploring_nature_semantic_3.png"" class=""exp-image"">
                    <div class=""question-area"">
                        <p style=""font-size: 20px; font-weight: bold; margin: 0;"">Is there a person in this image?</p>
                    </div>
                </div>","0","main_experiment_trial","3","exploring_nature_semantic","semantic_sequence","randomized","","","","",""
"","","","","","html-keyboard-response","94","197858","0.0-94.0","11A5BC3C5A924C01A2AB8DD3F80DAAC0","019cf9d0-040d-7909-88fc-6a5a219bae85","019cf9ba-391a-7c7b-96b9-3757895c469c","","null","
                <div class=""stimulus-container"">
                    <img src=""images/semantic_sequence/exploring_nature_semantic/exploring_nature_semantic_ten.png"" class=""exp-image"">
                    <div class=""question-area""></div> 
                </div>","null","","","","","","","","","",""
"","","","","","html-button-response","95","198404","0.0-95.0","11A5BC3C5A924C01A2AB8DD3F80DAAC0","019cf9d0-040d-7909-88fc-6a5a219bae85","019cf9ba-391a-7c7b-96b9-3757895c469c","","545","
                <div class=""stimulus-container"">
                    <img src=""images/semantic_sequence/exploring_nature_semantic/exploring_nature_semantic_ten.png"" class=""exp-image"">
                    <div class=""question-area"">
                        <p style=""font-size: 20px; font-weight: bold; margin: 0;"">Is there a person in this image?</p>
                    </div>
                </div>","0","main_experiment_trial","ten","exploring_nature_semantic","semantic_sequence","randomized","","","","",""
"","","","","","html-keyboard-response","96","199406","0.0-96.0","11A5BC3C5A924C01A2AB8DD3F80DAAC0","019cf9d0-040d-7909-88fc-6a5a219bae85","019cf9ba-391a-7c7b-96b9-3757895c469c","","null","
                <div class=""stimulus-container"">
                    <img src=""images/semantic_sequence/exploring_nature_semantic/exploring_nature_semantic_8.png"" class=""exp-image"">
                    <div class=""question-area""></div> 
                </div>","null","","","","","","","","","",""
"","","","","","html-button-response","97","199909","0.0-97.0","11A5BC3C5A924C01A2AB8DD3F80DAAC0","019cf9d0-040d-7909-88fc-6a5a219bae85","019cf9ba-391a-7c7b-96b9-3757895c469c","","501","
                <div class=""stimulus-container"">
                    <img src=""images/semantic_sequence/exploring_nature_semantic/exploring_nature_semantic_8.png"" class=""exp-image"">
                    <div class=""question-area"">
                        <p style=""font-size: 20px; font-weight: bold; margin: 0;"">Is there a person in this image?</p>
                    </div>
                </div>","0","main_experiment_trial","8","exploring_nature_semantic","semantic_sequence","randomized","","","","",""
"","","","","","html-keyboard-response","98","200927","0.0-98.0","11A5BC3C5A924C01A2AB8DD3F80DAAC0","019cf9d0-040d-7909-88fc-6a5a219bae85","019cf9ba-391a-7c7b-96b9-3757895c469c","","null","
                <div class=""stimulus-container"">
                    <img src=""images/semantic_sequence/exploring_nature_semantic/exploring_nature_semantic_5.png"" class=""exp-image"">
                    <div class=""question-area""></div> 
                </div>","null","","","","","","","","","",""
"","","","","","html-button-response","99","201562","0.0-99.0","11A5BC3C5A924C01A2AB8DD3F80DAAC0","019cf9d0-040d-7909-88fc-6a5a219bae85","019cf9ba-391a-7c7b-96b9-3757895c469c","","634","
                <div class=""stimulus-container"">
                    <img src=""images/semantic_sequence/exploring_nature_semantic/exploring_nature_semantic_5.png"" class=""exp-image"">
                    <div class=""question-area"">
                        <p style=""font-size: 20px; font-weight: bold; margin: 0;"">Is there a person in this image?</p>
                    </div>
                </div>","0","main_experiment_trial","5","exploring_nature_semantic","semantic_sequence","randomized","","","","",""
"","","","","","html-keyboard-response","100","206566","0.0-100.0","11A5BC3C5A924C01A2AB8DD3F80DAAC0","019cf9d0-040d-7909-88fc-6a5a219bae85","019cf9ba-391a-7c7b-96b9-3757895c469c","","null","<div style=""background-color: white; width: 100vw; height: 100vh;""></div>","null","","","","","","","","","",""
"","","","","","html-keyboard-response","101","207578","0.0-101.0","11A5BC3C5A924C01A2AB8DD3F80DAAC0","019cf9d0-040d-7909-88fc-6a5a219bae85","019cf9ba-391a-7c7b-96b9-3757895c469c","","null","
                <div class=""stimulus-container"">
                    <img src=""images/semantic_sequence/maintaining_a_car_semantic/maintaining_a_car_semantic_2.png"" class=""exp-image"">
                    <div class=""question-area""></div> 
                </div>","null","","","","","","","","","",""
"","","","","","html-button-response","102","208527","0.0-102.0","11A5BC3C5A924C01A2AB8DD3F80DAAC0","019cf9d0-040d-7909-88fc-6a5a219bae85","019cf9ba-391a-7c7b-96b9-3757895c469c","","948","
                <div class=""stimulus-container"">
                    <img src=""images/semantic_sequence/maintaining_a_car_semantic/maintaining_a_car_semantic_2.png"" class=""exp-image"">
                    <div class=""question-area"">
                        <p style=""font-size: 20px; font-weight: bold; margin: 0;"">Is there a person in this image?</p>
                    </div>
                </div>","0","main_experiment_trial","2","maintaining_a_car_semantic","semantic_sequence","randomized","","","","",""
"","","","","","html-keyboard-response","103","209539","0.0-103.0","11A5BC3C5A924C01A2AB8DD3F80DAAC0","019cf9d0-040d-7909-88fc-6a5a219bae85","019cf9ba-391a-7c7b-96b9-3757895c469c","","null","
                <div class=""stimulus-container"">
                    <img src=""images/semantic_sequence/maintaining_a_car_semantic/maintaining_a_car_semantic_8.png"" class=""exp-image"">
                    <div class=""question-area""></div> 
                </div>","null","","","","","","","","","",""
"","","","","","html-button-response","104","209985","0.0-104.0","11A5BC3C5A924C01A2AB8DD3F80DAAC0","019cf9d0-040d-7909-88fc-6a5a219bae85","019cf9ba-391a-7c7b-96b9-3757895c469c","","444","
                <div class=""stimulus-container"">
                    <img src=""images/semantic_sequence/maintaining_a_car_semantic/maintaining_a_car_semantic_8.png"" class=""exp-image"">
                    <div class=""question-area"">
                        <p style=""font-size: 20px; font-weight: bold; margin: 0;"">Is there a person in this image?</p>
                    </div>
                </div>","0","main_experiment_trial","8","maintaining_a_car_semantic","semantic_sequence","randomized","","","","",""
"","","","","","html-keyboard-response","105","211001","0.0-105.0","11A5BC3C5A924C01A2AB8DD3F80DAAC0","019cf9d0-040d-7909-88fc-6a5a219bae85","019cf9ba-391a-7c7b-96b9-3757895c469c","","null","
                <div class=""stimulus-container"">
                    <img src=""images/semantic_sequence/maintaining_a_car_semantic/maintaining_a_car_semantic_1.png"" class=""exp-image"">
                    <div class=""question-area""></div> 
                </div>","null","","","","","","","","","",""
"","","","","","html-button-response","106","211508","0.0-106.0","11A5BC3C5A924C01A2AB8DD3F80DAAC0","019cf9d0-040d-7909-88fc-6a5a219bae85","019cf9ba-391a-7c7b-96b9-3757895c469c","","504","
                <div class=""stimulus-container"">
                    <img src=""images/semantic_sequence/maintaining_a_car_semantic/maintaining_a_car_semantic_1.png"" class=""exp-image"">
                    <div class=""question-area"">
                        <p style=""font-size: 20px; font-weight: bold; margin: 0;"">Is there a person in this image?</p>
                    </div>
                </div>","0","main_experiment_trial","1","maintaining_a_car_semantic","semantic_sequence","randomized","","","","",""
"","","","","","html-keyboard-response","107","212525","0.0-107.0","11A5BC3C5A924C01A2AB8DD3F80DAAC0","019cf9d0-040d-7909-88fc-6a5a219bae85","019cf9ba-391a-7c7b-96b9-3757895c469c","","null","
                <div class=""stimulus-container"">
                    <img src=""images/semantic_sequence/maintaining_a_car_semantic/maintaining_a_car_semantic_3.png"" class=""exp-image"">
                    <div class=""question-area""></div> 
                </div>","null","","","","","","","","","",""
"","","","","","html-button-response","108","212997","0.0-108.0","11A5BC3C5A924C01A2AB8DD3F80DAAC0","019cf9d0-040d-7909-88fc-6a5a219bae85","019cf9ba-391a-7c7b-96b9-3757895c469c","","472","
                <div class=""stimulus-container"">
                    <img src=""images/semantic_sequence/maintaining_a_car_semantic/maintaining_a_car_semantic_3.png"" class=""exp-image"">
                    <div class=""question-area"">
                        <p style=""font-size: 20px; font-weight: bold; margin: 0;"">Is there a person in this image?</p>
                    </div>
                </div>","0","main_experiment_trial","3","maintaining_a_car_semantic","semantic_sequence","randomized","","","","",""
"","","","","","html-keyboard-response","109","214007","0.0-109.0","11A5BC3C5A924C01A2AB8DD3F80DAAC0","019cf9d0-040d-7909-88fc-6a5a219bae85","019cf9ba-391a-7c7b-96b9-3757895c469c","","null","
                <div class=""stimulus-container"">
                    <img src=""images/semantic_sequence/maintaining_a_car_semantic/maintaining_a_car_semantic_ten.png"" class=""exp-image"">
                    <div class=""question-area""></div> 
                </div>","null","","","","","","","","","",""
"","","","","","html-button-response","110","214505","0.0-110.0","11A5BC3C5A924C01A2AB8DD3F80DAAC0","019cf9d0-040d-7909-88fc-6a5a219bae85","019cf9ba-391a-7c7b-96b9-3757895c469c","","496","
                <div class=""stimulus-container"">
                    <img src=""images/semantic_sequence/maintaining_a_car_semantic/maintaining_a_car_semantic_ten.png"" class=""exp-image"">
                    <div class=""question-area"">
                        <p style=""font-size: 20px; font-weight: bold; margin: 0;"">Is there a person in this image?</p>
                    </div>
                </div>","0","main_experiment_trial","ten","maintaining_a_car_semantic","semantic_sequence","randomized","","","","",""
"","","","","","html-keyboard-response","111","215512","0.0-111.0","11A5BC3C5A924C01A2AB8DD3F80DAAC0","019cf9d0-040d-7909-88fc-6a5a219bae85","019cf9ba-391a-7c7b-96b9-3757895c469c","","null","
                <div class=""stimulus-container"">
                    <img src=""images/semantic_sequence/maintaining_a_car_semantic/maintaining_a_car_semantic_6.png"" class=""exp-image"">
                    <div class=""question-area""></div> 
                </div>","null","","","","","","","","","",""
"","","","","","html-button-response","112","215998","0.0-112.0","11A5BC3C5A924C01A2AB8DD3F80DAAC0","019cf9d0-040d-7909-88fc-6a5a219bae85","019cf9ba-391a-7c7b-96b9-3757895c469c","","484","
                <div class=""stimulus-container"">
                    <img src=""images/semantic_sequence/maintaining_a_car_semantic/maintaining_a_car_semantic_6.png"" class=""exp-image"">
                    <div class=""question-area"">
                        <p style=""font-size: 20px; font-weight: bold; margin: 0;"">Is there a person in this image?</p>
                    </div>
                </div>","0","main_experiment_trial","6","maintaining_a_car_semantic","semantic_sequence","randomized","","","","",""
"","","","","","html-keyboard-response","113","217012","0.0-113.0","11A5BC3C5A924C01A2AB8DD3F80DAAC0","019cf9d0-040d-7909-88fc-6a5a219bae85","019cf9ba-391a-7c7b-96b9-3757895c469c","","null","
                <div class=""stimulus-container"">
                    <img src=""images/semantic_sequence/maintaining_a_car_semantic/maintaining_a_car_semantic_9.png"" class=""exp-image"">
                    <div class=""question-area""></div> 
                </div>","null","","","","","","","","","",""
"","","","","","html-button-response","114","217455","0.0-114.0","11A5BC3C5A924C01A2AB8DD3F80DAAC0","019cf9d0-040d-7909-88fc-6a5a219bae85","019cf9ba-391a-7c7b-96b9-3757895c469c","","441","
                <div class=""stimulus-container"">
                    <img src=""images/semantic_sequence/maintaining_a_car_semantic/maintaining_a_car_semantic_9.png"" class=""exp-image"">
                    <div class=""question-area"">
                        <p style=""font-size: 20px; font-weight: bold; margin: 0;"">Is there a person in this image?</p>
                    </div>
                </div>","0","main_experiment_trial","9","maintaining_a_car_semantic","semantic_sequence","randomized","","","","",""
"","","","","","html-keyboard-response","115","218457","0.0-115.0","11A5BC3C5A924C01A2AB8DD3F80DAAC0","019cf9d0-040d-7909-88fc-6a5a219bae85","019cf9ba-391a-7c7b-96b9-3757895c469c","","null","
                <div class=""stimulus-container"">
                    <img src=""images/semantic_sequence/maintaining_a_car_semantic/maintaining_a_car_semantic_5.png"" class=""exp-image"">
                    <div class=""question-area""></div> 
                </div>","null","","","","","","","","","",""
"","","","","","html-button-response","116","218896","0.0-116.0","11A5BC3C5A924C01A2AB8DD3F80DAAC0","019cf9d0-040d-7909-88fc-6a5a219bae85","019cf9ba-391a-7c7b-96b9-3757895c469c","","437","
                <div class=""stimulus-container"">
                    <img src=""images/semantic_sequence/maintaining_a_car_semantic/maintaining_a_car_semantic_5.png"" class=""exp-image"">
                    <div class=""question-area"">
                        <p style=""font-size: 20px; font-weight: bold; margin: 0;"">Is there a person in this image?</p>
                    </div>
                </div>","0","main_experiment_trial","5","maintaining_a_car_semantic","semantic_sequence","randomized","","","","",""
"","","","","","html-keyboard-response","117","219911","0.0-117.0","11A5BC3C5A924C01A2AB8DD3F80DAAC0","019cf9d0-040d-7909-88fc-6a5a219bae85","019cf9ba-391a-7c7b-96b9-3757895c469c","","null","
                <div class=""stimulus-container"">
                    <img src=""images/semantic_sequence/maintaining_a_car_semantic/maintaining_a_car_semantic_4.png"" class=""exp-image"">
                    <div class=""question-area""></div> 
                </div>","null","","","","","","","","","",""
"","","","","","html-button-response","118","220354","0.0-118.0","11A5BC3C5A924C01A2AB8DD3F80DAAC0","019cf9d0-040d-7909-88fc-6a5a219bae85","019cf9ba-391a-7c7b-96b9-3757895c469c","","441","
                <div class=""stimulus-container"">
                    <img src=""images/semantic_sequence/maintaining_a_car_semantic/maintaining_a_car_semantic_4.png"" class=""exp-image"">
                    <div class=""question-area"">
                        <p style=""font-size: 20px; font-weight: bold; margin: 0;"">Is there a person in this image?</p>
                    </div>
                </div>","0","main_experiment_trial","4","maintaining_a_car_semantic","semantic_sequence","randomized","","","","",""
"","","","","","html-keyboard-response","119","221365","0.0-119.0","11A5BC3C5A924C01A2AB8DD3F80DAAC0","019cf9d0-040d-7909-88fc-6a5a219bae85","019cf9ba-391a-7c7b-96b9-3757895c469c","","null","
                <div class=""stimulus-container"">
                    <img src=""images/semantic_sequence/maintaining_a_car_semantic/maintaining_a_car_semantic_7.png"" class=""exp-image"">
                    <div class=""question-area""></div> 
                </div>","null","","","","","","","","","",""
"","","","","","html-button-response","120","221828","0.0-120.0","11A5BC3C5A924C01A2AB8DD3F80DAAC0","019cf9d0-040d-7909-88fc-6a5a219bae85","019cf9ba-391a-7c7b-96b9-3757895c469c","","461","
                <div class=""stimulus-container"">
                    <img src=""images/semantic_sequence/maintaining_a_car_semantic/maintaining_a_car_semantic_7.png"" class=""exp-image"">
                    <div class=""question-area"">
                        <p style=""font-size: 20px; font-weight: bold; margin: 0;"">Is there a person in this image?</p>
                    </div>
                </div>","0","main_experiment_trial","7","maintaining_a_car_semantic","semantic_sequence","randomized","","","","",""
"","","","","","html-keyboard-response","121","226845","0.0-121.0","11A5BC3C5A924C01A2AB8DD3F80DAAC0","019cf9d0-040d-7909-88fc-6a5a219bae85","019cf9ba-391a-7c7b-96b9-3757895c469c","","null","<div style=""background-color: white; width: 100vw; height: 100vh;""></div>","null","","","","","","","","","",""
"","","","","","html-keyboard-response","122","227848","0.0-122.0","11A5BC3C5A924C01A2AB8DD3F80DAAC0","019cf9d0-040d-7909-88fc-6a5a219bae85","019cf9ba-391a-7c7b-96b9-3757895c469c","","null","
                <div class=""stimulus-container"">
                    <img src=""images/causal_sequence/coin_causal/coin_causal_1.png"" class=""exp-image"">
                    <div class=""question-area""></div> 
                </div>","null","","","","","","","","","",""
"","","","","","html-button-response","123","228725","0.0-123.0","11A5BC3C5A924C01A2AB8DD3F80DAAC0","019cf9d0-040d-7909-88fc-6a5a219bae85","019cf9ba-391a-7c7b-96b9-3757895c469c","","875","
                <div class=""stimulus-container"">
                    <img src=""images/causal_sequence/coin_causal/coin_causal_1.png"" class=""exp-image"">
                    <div class=""question-area"">
                        <p style=""font-size: 20px; font-weight: bold; margin: 0;"">Is there a person in this image?</p>
                    </div>
                </div>","0","main_experiment_trial","1","coin_causal","causal_sequence","randomized","","","","",""
"","","","","","html-keyboard-response","124","229745","0.0-124.0","11A5BC3C5A924C01A2AB8DD3F80DAAC0","019cf9d0-040d-7909-88fc-6a5a219bae85","019cf9ba-391a-7c7b-96b9-3757895c469c","","null","
                <div class=""stimulus-container"">
                    <img src=""images/causal_sequence/coin_causal/coin_causal_4.png"" class=""exp-image"">
                    <div class=""question-area""></div> 
                </div>","null","","","","","","","","","",""
"","","","","","html-button-response","125","230534","0.0-125.0","11A5BC3C5A924C01A2AB8DD3F80DAAC0","019cf9d0-040d-7909-88fc-6a5a219bae85","019cf9ba-391a-7c7b-96b9-3757895c469c","","788","
                <div class=""stimulus-container"">
                    <img src=""images/causal_sequence/coin_causal/coin_causal_4.png"" class=""exp-image"">
                    <div class=""question-area"">
                        <p style=""font-size: 20px; font-weight: bold; margin: 0;"">Is there a person in this image?</p>
                    </div>
                </div>","0","main_experiment_trial","4","coin_causal","causal_sequence","randomized","","","","",""
"","","","","","html-keyboard-response","126","231539","0.0-126.0","11A5BC3C5A924C01A2AB8DD3F80DAAC0","019cf9d0-040d-7909-88fc-6a5a219bae85","019cf9ba-391a-7c7b-96b9-3757895c469c","","null","
                <div class=""stimulus-container"">
                    <img src=""images/causal_sequence/coin_causal/coin_causal_9.png"" class=""exp-image"">
                    <div class=""question-area""></div> 
                </div>","null","","","","","","","","","",""
"","","","","","html-button-response","127","232016","0.0-127.0","11A5BC3C5A924C01A2AB8DD3F80DAAC0","019cf9d0-040d-7909-88fc-6a5a219bae85","019cf9ba-391a-7c7b-96b9-3757895c469c","","475","
                <div class=""stimulus-container"">
                    <img src=""images/causal_sequence/coin_causal/coin_causal_9.png"" class=""exp-image"">
                    <div class=""question-area"">
                        <p style=""font-size: 20px; font-weight: bold; margin: 0;"">Is there a person in this image?</p>
                    </div>
                </div>","0","main_experiment_trial","9","coin_causal","causal_sequence","randomized","","","","",""
"","","","","","html-keyboard-response","128","233027","0.0-128.0","11A5BC3C5A924C01A2AB8DD3F80DAAC0","019cf9d0-040d-7909-88fc-6a5a219bae85","019cf9ba-391a-7c7b-96b9-3757895c469c","","null","
                <div class=""stimulus-container"">
                    <img src=""images/causal_sequence/coin_causal/coin_causal_3.png"" class=""exp-image"">
                    <div class=""question-area""></div> 
                </div>","null","","","","","","","","","",""
"","","","","","html-button-response","129","233564","0.0-129.0","11A5BC3C5A924C01A2AB8DD3F80DAAC0","019cf9d0-040d-7909-88fc-6a5a219bae85","019cf9ba-391a-7c7b-96b9-3757895c469c","","536","
                <div class=""stimulus-container"">
                    <img src=""images/causal_sequence/coin_causal/coin_causal_3.png"" class=""exp-image"">
                    <div class=""question-area"">
                        <p style=""font-size: 20px; font-weight: bold; margin: 0;"">Is there a person in this image?</p>
                    </div>
                </div>","0","main_experiment_trial","3","coin_causal","causal_sequence","randomized","","","","",""
"","","","","","html-keyboard-response","130","234577","0.0-130.0","11A5BC3C5A924C01A2AB8DD3F80DAAC0","019cf9d0-040d-7909-88fc-6a5a219bae85","019cf9ba-391a-7c7b-96b9-3757895c469c","","null","
                <div class=""stimulus-container"">
                    <img src=""images/causal_sequence/coin_causal/coin_causal_8.png"" class=""exp-image"">
                    <div class=""question-area""></div> 
                </div>","null","","","","","","","","","",""
"","","","","","html-button-response","131","235170","0.0-131.0","11A5BC3C5A924C01A2AB8DD3F80DAAC0","019cf9d0-040d-7909-88fc-6a5a219bae85","019cf9ba-391a-7c7b-96b9-3757895c469c","","591","
                <div class=""stimulus-container"">
                    <img src=""images/causal_sequence/coin_causal/coin_causal_8.png"" class=""exp-image"">
                    <div class=""question-area"">
                        <p style=""font-size: 20px; font-weight: bold; margin: 0;"">Is there a person in this image?</p>
                    </div>
                </div>","0","main_experiment_trial","8","coin_causal","causal_sequence","randomized","","","","",""
"","","","","","html-keyboard-response","132","236171","0.0-132.0","11A5BC3C5A924C01A2AB8DD3F80DAAC0","019cf9d0-040d-7909-88fc-6a5a219bae85","019cf9ba-391a-7c7b-96b9-3757895c469c","","null","
                <div class=""stimulus-container"">
                    <img src=""images/causal_sequence/coin_causal/coin_causal_5.png"" class=""exp-image"">
                    <div class=""question-area""></div> 
                </div>","null","","","","","","","","","",""
"","","","","","html-button-response","133","236734","0.0-133.0","11A5BC3C5A924C01A2AB8DD3F80DAAC0","019cf9d0-040d-7909-88fc-6a5a219bae85","019cf9ba-391a-7c7b-96b9-3757895c469c","","560","
                <div class=""stimulus-container"">
                    <img src=""images/causal_sequence/coin_causal/coin_causal_5.png"" class=""exp-image"">
                    <div class=""question-area"">
                        <p style=""font-size: 20px; font-weight: bold; margin: 0;"">Is there a person in this image?</p>
                    </div>
                </div>","0","main_experiment_trial","5","coin_causal","causal_sequence","randomized","","","","",""
"","","","","","html-keyboard-response","134","237743","0.0-134.0","11A5BC3C5A924C01A2AB8DD3F80DAAC0","019cf9d0-040d-7909-88fc-6a5a219bae85","019cf9ba-391a-7c7b-96b9-3757895c469c","","null","
                <div class=""stimulus-container"">
                    <img src=""images/causal_sequence/coin_causal/coin_causal_6.png"" class=""exp-image"">
                    <div class=""question-area""></div> 
                </div>","null","","","","","","","","","",""
"","","","","","html-button-response","135","238200","0.0-135.0","11A5BC3C5A924C01A2AB8DD3F80DAAC0","019cf9d0-040d-7909-88fc-6a5a219bae85","019cf9ba-391a-7c7b-96b9-3757895c469c","","455","
                <div class=""stimulus-container"">
                    <img src=""images/causal_sequence/coin_causal/coin_causal_6.png"" class=""exp-image"">
                    <div class=""question-area"">
                        <p style=""font-size: 20px; font-weight: bold; margin: 0;"">Is there a person in this image?</p>
                    </div>
                </div>","0","main_experiment_trial","6","coin_causal","causal_sequence","randomized","","","","",""
"","","","","","html-keyboard-response","136","239209","0.0-136.0","11A5BC3C5A924C01A2AB8DD3F80DAAC0","019cf9d0-040d-7909-88fc-6a5a219bae85","019cf9ba-391a-7c7b-96b9-3757895c469c","","null","
                <div class=""stimulus-container"">
                    <img src=""images/causal_sequence/coin_causal/coin_causal_2.png"" class=""exp-image"">
                    <div class=""question-area""></div> 
                </div>","null","","","","","","","","","",""
"","","","","","html-button-response","137","239773","0.0-137.0","11A5BC3C5A924C01A2AB8DD3F80DAAC0","019cf9d0-040d-7909-88fc-6a5a219bae85","019cf9ba-391a-7c7b-96b9-3757895c469c","","562","
                <div class=""stimulus-container"">
                    <img src=""images/causal_sequence/coin_causal/coin_causal_2.png"" class=""exp-image"">
                    <div class=""question-area"">
                        <p style=""font-size: 20px; font-weight: bold; margin: 0;"">Is there a person in this image?</p>
                    </div>
                </div>","0","main_experiment_trial","2","coin_causal","causal_sequence","randomized","","","","",""
"","","","","","html-keyboard-response","138","240784","0.0-138.0","11A5BC3C5A924C01A2AB8DD3F80DAAC0","019cf9d0-040d-7909-88fc-6a5a219bae85","019cf9ba-391a-7c7b-96b9-3757895c469c","","null","
                <div class=""stimulus-container"">
                    <img src=""images/causal_sequence/coin_causal/coin_causal_7.png"" class=""exp-image"">
                    <div class=""question-area""></div> 
                </div>","null","","","","","","","","","",""
"","","","","","html-button-response","139","241869","0.0-139.0","11A5BC3C5A924C01A2AB8DD3F80DAAC0","019cf9d0-040d-7909-88fc-6a5a219bae85","019cf9ba-391a-7c7b-96b9-3757895c469c","","1083","
                <div class=""stimulus-container"">
                    <img src=""images/causal_sequence/coin_causal/coin_causal_7.png"" class=""exp-image"">
                    <div class=""question-area"">
                        <p style=""font-size: 20px; font-weight: bold; margin: 0;"">Is there a person in this image?</p>
                    </div>
                </div>","1","main_experiment_trial","7","coin_causal","causal_sequence","randomized","","","","",""
"","","","","","html-keyboard-response","140","242871","0.0-140.0","11A5BC3C5A924C01A2AB8DD3F80DAAC0","019cf9d0-040d-7909-88fc-6a5a219bae85","019cf9ba-391a-7c7b-96b9-3757895c469c","","null","
                <div class=""stimulus-container"">
                    <img src=""images/causal_sequence/coin_causal/coin_causal_ten.png"" class=""exp-image"">
                    <div class=""question-area""></div> 
                </div>","null","","","","","","","","","",""
"","","","","","html-button-response","141","243554","0.0-141.0","11A5BC3C5A924C01A2AB8DD3F80DAAC0","019cf9d0-040d-7909-88fc-6a5a219bae85","019cf9ba-391a-7c7b-96b9-3757895c469c","","682","
                <div class=""stimulus-container"">
                    <img src=""images/causal_sequence/coin_causal/coin_causal_ten.png"" class=""exp-image"">
                    <div class=""question-area"">
                        <p style=""font-size: 20px; font-weight: bold; margin: 0;"">Is there a person in this image?</p>
                    </div>
                </div>","0","main_experiment_trial","ten","coin_causal","causal_sequence","randomized","","","","",""
"","","","","","html-keyboard-response","142","248558","0.0-142.0","11A5BC3C5A924C01A2AB8DD3F80DAAC0","019cf9d0-040d-7909-88fc-6a5a219bae85","019cf9ba-391a-7c7b-96b9-3757895c469c","","null","<div style=""background-color: white; width: 100vw; height: 100vh;""></div>","null","","","","","","","","","",""
"","","","","","html-keyboard-response","143","249570","0.0-143.0","11A5BC3C5A924C01A2AB8DD3F80DAAC0","019cf9d0-040d-7909-88fc-6a5a219bae85","019cf9ba-391a-7c7b-96b9-3757895c469c","","null","
                <div class=""stimulus-container"">
                    <img src=""images/causal_sequence/package_causal/package_causal_ten.png"" class=""exp-image"">
                    <div class=""question-area""></div> 
                </div>","null","","","","","","","","","",""
"","","","","","html-button-response","144","250387","0.0-144.0","11A5BC3C5A924C01A2AB8DD3F80DAAC0","019cf9d0-040d-7909-88fc-6a5a219bae85","019cf9ba-391a-7c7b-96b9-3757895c469c","","816","
                <div class=""stimulus-container"">
                    <img src=""images/causal_sequence/package_causal/package_causal_ten.png"" class=""exp-image"">
                    <div class=""question-area"">
                        <p style=""font-size: 20px; font-weight: bold; margin: 0;"">Is there a person in this image?</p>
                    </div>
                </div>","0","main_experiment_trial","ten","package_causal","causal_sequence","randomized","","","","",""
"","","","","","html-keyboard-response","145","251391","0.0-145.0","11A5BC3C5A924C01A2AB8DD3F80DAAC0","019cf9d0-040d-7909-88fc-6a5a219bae85","019cf9ba-391a-7c7b-96b9-3757895c469c","","null","
                <div class=""stimulus-container"">
                    <img src=""images/causal_sequence/package_causal/package_causal_4.png"" class=""exp-image"">
                    <div class=""question-area""></div> 
                </div>","null","","","","","","","","","",""
"","","","","","html-button-response","146","252772","0.0-146.0","11A5BC3C5A924C01A2AB8DD3F80DAAC0","019cf9d0-040d-7909-88fc-6a5a219bae85","019cf9ba-391a-7c7b-96b9-3757895c469c","","1379","
                <div class=""stimulus-container"">
                    <img src=""images/causal_sequence/package_causal/package_causal_4.png"" class=""exp-image"">
                    <div class=""question-area"">
                        <p style=""font-size: 20px; font-weight: bold; margin: 0;"">Is there a person in this image?</p>
                    </div>
                </div>","1","main_experiment_trial","4","package_causal","causal_sequence","randomized","","","","",""
"","","","","","html-keyboard-response","147","253785","0.0-147.0","11A5BC3C5A924C01A2AB8DD3F80DAAC0","019cf9d0-040d-7909-88fc-6a5a219bae85","019cf9ba-391a-7c7b-96b9-3757895c469c","","null","
                <div class=""stimulus-container"">
                    <img src=""images/causal_sequence/package_causal/package_causal_9.png"" class=""exp-image"">
                    <div class=""question-area""></div> 
                </div>","null","","","","","","","","","",""
"","","","","","html-button-response","148","254900","0.0-148.0","11A5BC3C5A924C01A2AB8DD3F80DAAC0","019cf9d0-040d-7909-88fc-6a5a219bae85","019cf9ba-391a-7c7b-96b9-3757895c469c","","1112","
                <div class=""stimulus-container"">
                    <img src=""images/causal_sequence/package_causal/package_causal_9.png"" class=""exp-image"">
                    <div class=""question-area"">
                        <p style=""font-size: 20px; font-weight: bold; margin: 0;"">Is there a person in this image?</p>
                    </div>
                </div>","0","main_experiment_trial","9","package_causal","causal_sequence","randomized","","","","",""
"","","","","","html-keyboard-response","149","255917","0.0-149.0","11A5BC3C5A924C01A2AB8DD3F80DAAC0","019cf9d0-040d-7909-88fc-6a5a219bae85","019cf9ba-391a-7c7b-96b9-3757895c469c","","null","
                <div class=""stimulus-container"">
                    <img src=""images/causal_sequence/package_causal/package_causal_1.png"" class=""exp-image"">
                    <div class=""question-area""></div> 
                </div>","null","","","","","","","","","",""
"","","","","","html-button-response","150","256408","0.0-150.0","11A5BC3C5A924C01A2AB8DD3F80DAAC0","019cf9d0-040d-7909-88fc-6a5a219bae85","019cf9ba-391a-7c7b-96b9-3757895c469c","","489","
                <div class=""stimulus-container"">
                    <img src=""images/causal_sequence/package_causal/package_causal_1.png"" class=""exp-image"">
                    <div class=""question-area"">
                        <p style=""font-size: 20px; font-weight: bold; margin: 0;"">Is there a person in this image?</p>
                    </div>
                </div>","0","main_experiment_trial","1","package_causal","causal_sequence","randomized","","","","",""
"","","","","","html-keyboard-response","151","257424","0.0-151.0","11A5BC3C5A924C01A2AB8DD3F80DAAC0","019cf9d0-040d-7909-88fc-6a5a219bae85","019cf9ba-391a-7c7b-96b9-3757895c469c","","null","
                <div class=""stimulus-container"">
                    <img src=""images/causal_sequence/package_causal/package_causal_7.png"" class=""exp-image"">
                    <div class=""question-area""></div> 
                </div>","null","","","","","","","","","",""
"","","","","","html-button-response","152","257865","0.0-152.0","11A5BC3C5A924C01A2AB8DD3F80DAAC0","019cf9d0-040d-7909-88fc-6a5a219bae85","019cf9ba-391a-7c7b-96b9-3757895c469c","","440","
                <div class=""stimulus-container"">
                    <img src=""images/causal_sequence/package_causal/package_causal_7.png"" class=""exp-image"">
                    <div class=""question-area"">
                        <p style=""font-size: 20px; font-weight: bold; margin: 0;"">Is there a person in this image?</p>
                    </div>
                </div>","0","main_experiment_trial","7","package_causal","causal_sequence","randomized","","","","",""
"","","","","","html-keyboard-response","153","258884","0.0-153.0","11A5BC3C5A924C01A2AB8DD3F80DAAC0","019cf9d0-040d-7909-88fc-6a5a219bae85","019cf9ba-391a-7c7b-96b9-3757895c469c","","null","
                <div class=""stimulus-container"">
                    <img src=""images/causal_sequence/package_causal/package_causal_3.png"" class=""exp-image"">
                    <div class=""question-area""></div> 
                </div>","null","","","","","","","","","",""
"","","","","","html-button-response","154","259357","0.0-154.0","11A5BC3C5A924C01A2AB8DD3F80DAAC0","019cf9d0-040d-7909-88fc-6a5a219bae85","019cf9ba-391a-7c7b-96b9-3757895c469c","","471","
                <div class=""stimulus-container"">
                    <img src=""images/causal_sequence/package_causal/package_causal_3.png"" class=""exp-image"">
                    <div class=""question-area"">
                        <p style=""font-size: 20px; font-weight: bold; margin: 0;"">Is there a person in this image?</p>
                    </div>
                </div>","0","main_experiment_trial","3","package_causal","causal_sequence","randomized","","","","",""
"","","","","","html-keyboard-response","155","260374","0.0-155.0","11A5BC3C5A924C01A2AB8DD3F80DAAC0","019cf9d0-040d-7909-88fc-6a5a219bae85","019cf9ba-391a-7c7b-96b9-3757895c469c","","null","
                <div class=""stimulus-container"">
                    <img src=""images/causal_sequence/package_causal/package_causal_2.png"" class=""exp-image"">
                    <div class=""question-area""></div> 
                </div>","null","","","","","","","","","",""
"","","","","","html-button-response","156","261044","0.0-156.0","11A5BC3C5A924C01A2AB8DD3F80DAAC0","019cf9d0-040d-7909-88fc-6a5a219bae85","019cf9ba-391a-7c7b-96b9-3757895c469c","","668","
                <div class=""stimulus-container"">
                    <img src=""images/causal_sequence/package_causal/package_causal_2.png"" class=""exp-image"">
                    <div class=""question-area"">
                        <p style=""font-size: 20px; font-weight: bold; margin: 0;"">Is there a person in this image?</p>
                    </div>
                </div>","0","main_experiment_trial","2","package_causal","causal_sequence","randomized","","","","",""
"","","","","","html-keyboard-response","157","262055","0.0-157.0","11A5BC3C5A924C01A2AB8DD3F80DAAC0","019cf9d0-040d-7909-88fc-6a5a219bae85","019cf9ba-391a-7c7b-96b9-3757895c469c","","null","
                <div class=""stimulus-container"">
                    <img src=""images/causal_sequence/package_causal/package_causal_8.png"" class=""exp-image"">
                    <div class=""question-area""></div> 
                </div>","null","","","","","","","","","",""
"","","","","","html-button-response","158","262697","0.0-158.0","11A5BC3C5A924C01A2AB8DD3F80DAAC0","019cf9d0-040d-7909-88fc-6a5a219bae85","019cf9ba-391a-7c7b-96b9-3757895c469c","","640","
                <div class=""stimulus-container"">
                    <img src=""images/causal_sequence/package_causal/package_causal_8.png"" class=""exp-image"">
                    <div class=""question-area"">
                        <p style=""font-size: 20px; font-weight: bold; margin: 0;"">Is there a person in this image?</p>
                    </div>
                </div>","0","main_experiment_trial","8","package_causal","causal_sequence","randomized","","","","",""
"","","","","","html-keyboard-response","159","263703","0.0-159.0","11A5BC3C5A924C01A2AB8DD3F80DAAC0","019cf9d0-040d-7909-88fc-6a5a219bae85","019cf9ba-391a-7c7b-96b9-3757895c469c","","null","
                <div class=""stimulus-container"">
                    <img src=""images/causal_sequence/package_causal/package_causal_5.png"" class=""exp-image"">
                    <div class=""question-area""></div> 
                </div>","null","","","","","","","","","",""
"","","","","","html-button-response","160","264220","0.0-160.0","11A5BC3C5A924C01A2AB8DD3F80DAAC0","019cf9d0-040d-7909-88fc-6a5a219bae85","019cf9ba-391a-7c7b-96b9-3757895c469c","","516","
                <div class=""stimulus-container"">
                    <img src=""images/causal_sequence/package_causal/package_causal_5.png"" class=""exp-image"">
                    <div class=""question-area"">
                        <p style=""font-size: 20px; font-weight: bold; margin: 0;"">Is there a person in this image?</p>
                    </div>
                </div>","0","main_experiment_trial","5","package_causal","causal_sequence","randomized","","","","",""
"","","","","","html-keyboard-response","161","265237","0.0-161.0","11A5BC3C5A924C01A2AB8DD3F80DAAC0","019cf9d0-040d-7909-88fc-6a5a219bae85","019cf9ba-391a-7c7b-96b9-3757895c469c","","null","
                <div class=""stimulus-container"">
                    <img src=""images/causal_sequence/package_causal/package_causal_6.png"" class=""exp-image"">
                    <div class=""question-area""></div> 
                </div>","null","","","","","","","","","",""
"","","","","","html-button-response","162","265833","0.0-162.0","11A5BC3C5A924C01A2AB8DD3F80DAAC0","019cf9d0-040d-7909-88fc-6a5a219bae85","019cf9ba-391a-7c7b-96b9-3757895c469c","","596","
                <div class=""stimulus-container"">
                    <img src=""images/causal_sequence/package_causal/package_causal_6.png"" class=""exp-image"">
                    <div class=""question-area"">
                        <p style=""font-size: 20px; font-weight: bold; margin: 0;"">Is there a person in this image?</p>
                    </div>
                </div>","0","main_experiment_trial","6","package_causal","causal_sequence","randomized","","","","",""
"","","","","","html-keyboard-response","163","270835","0.0-163.0","11A5BC3C5A924C01A2AB8DD3F80DAAC0","019cf9d0-040d-7909-88fc-6a5a219bae85","019cf9ba-391a-7c7b-96b9-3757895c469c","","null","<div style=""background-color: white; width: 100vw; height: 100vh;""></div>","null","","","","","","","","","",""
"","","","","","html-keyboard-response","164","271846","0.0-164.0","11A5BC3C5A924C01A2AB8DD3F80DAAC0","019cf9d0-040d-7909-88fc-6a5a219bae85","019cf9ba-391a-7c7b-96b9-3757895c469c","","null","
                <div class=""stimulus-container"">
                    <img src=""images/semantic_sequence/redecorating_a_house_semantic/redecorating_a_house_semantic_8.png"" class=""exp-image"">
                    <div class=""question-area""></div> 
                </div>","null","","","","","","","","","",""
"","","","","","html-button-response","165","272756","0.0-165.0","11A5BC3C5A924C01A2AB8DD3F80DAAC0","019cf9d0-040d-7909-88fc-6a5a219bae85","019cf9ba-391a-7c7b-96b9-3757895c469c","","909","
                <div class=""stimulus-container"">
                    <img src=""images/semantic_sequence/redecorating_a_house_semantic/redecorating_a_house_semantic_8.png"" class=""exp-image"">
                    <div class=""question-area"">
                        <p style=""font-size: 20px; font-weight: bold; margin: 0;"">Is there a person in this image?</p>
                    </div>
                </div>","0","main_experiment_trial","8","redecorating_a_house_semantic","semantic_sequence","randomized","","","","",""
"","","","","","html-keyboard-response","166","273770","0.0-166.0","11A5BC3C5A924C01A2AB8DD3F80DAAC0","019cf9d0-040d-7909-88fc-6a5a219bae85","019cf9ba-391a-7c7b-96b9-3757895c469c","","null","
                <div class=""stimulus-container"">
                    <img src=""images/semantic_sequence/redecorating_a_house_semantic/redecorating_a_house_semantic_4.png"" class=""exp-image"">
                    <div class=""question-area""></div> 
                </div>","null","","","","","","","","","",""
"","","","","","html-button-response","167","274206","0.0-167.0","11A5BC3C5A924C01A2AB8DD3F80DAAC0","019cf9d0-040d-7909-88fc-6a5a219bae85","019cf9ba-391a-7c7b-96b9-3757895c469c","","434","
                <div class=""stimulus-container"">
                    <img src=""images/semantic_sequence/redecorating_a_house_semantic/redecorating_a_house_semantic_4.png"" class=""exp-image"">
                    <div class=""question-area"">
                        <p style=""font-size: 20px; font-weight: bold; margin: 0;"">Is there a person in this image?</p>
                    </div>
                </div>","0","main_experiment_trial","4","redecorating_a_house_semantic","semantic_sequence","randomized","","","","",""
"","","","","","html-keyboard-response","168","275224","0.0-168.0","11A5BC3C5A924C01A2AB8DD3F80DAAC0","019cf9d0-040d-7909-88fc-6a5a219bae85","019cf9ba-391a-7c7b-96b9-3757895c469c","","null","
                <div class=""stimulus-container"">
                    <img src=""images/semantic_sequence/redecorating_a_house_semantic/redecorating_a_house_semantic_2.png"" class=""exp-image"">
                    <div class=""question-area""></div> 
                </div>","null","","","","","","","","","",""
"","","","","","html-button-response","169","275655","0.0-169.0","11A5BC3C5A924C01A2AB8DD3F80DAAC0","019cf9d0-040d-7909-88fc-6a5a219bae85","019cf9ba-391a-7c7b-96b9-3757895c469c","","430","
                <div class=""stimulus-container"">
                    <img src=""images/semantic_sequence/redecorating_a_house_semantic/redecorating_a_house_semantic_2.png"" class=""exp-image"">
                    <div class=""question-area"">
                        <p style=""font-size: 20px; font-weight: bold; margin: 0;"">Is there a person in this image?</p>
                    </div>
                </div>","0","main_experiment_trial","2","redecorating_a_house_semantic","semantic_sequence","randomized","","","","",""
"","","","","","html-keyboard-response","170","276673","0.0-170.0","11A5BC3C5A924C01A2AB8DD3F80DAAC0","019cf9d0-040d-7909-88fc-6a5a219bae85","019cf9ba-391a-7c7b-96b9-3757895c469c","","null","
                <div class=""stimulus-container"">
                    <img src=""images/semantic_sequence/redecorating_a_house_semantic/redecorating_a_house_semantic_6.png"" class=""exp-image"">
                    <div class=""question-area""></div> 
                </div>","null","","","","","","","","","",""
"","","","","","html-button-response","171","277122","0.0-171.0","11A5BC3C5A924C01A2AB8DD3F80DAAC0","019cf9d0-040d-7909-88fc-6a5a219bae85","019cf9ba-391a-7c7b-96b9-3757895c469c","","447","
                <div class=""stimulus-container"">
                    <img src=""images/semantic_sequence/redecorating_a_house_semantic/redecorating_a_house_semantic_6.png"" class=""exp-image"">
                    <div class=""question-area"">
                        <p style=""font-size: 20px; font-weight: bold; margin: 0;"">Is there a person in this image?</p>
                    </div>
                </div>","0","main_experiment_trial","6","redecorating_a_house_semantic","semantic_sequence","randomized","","","","",""
"","","","","","html-keyboard-response","172","278128","0.0-172.0","11A5BC3C5A924C01A2AB8DD3F80DAAC0","019cf9d0-040d-7909-88fc-6a5a219bae85","019cf9ba-391a-7c7b-96b9-3757895c469c","","null","
                <div class=""stimulus-container"">
                    <img src=""images/semantic_sequence/redecorating_a_house_semantic/redecorating_a_house_semantic_1.png"" class=""exp-image"">
                    <div class=""question-area""></div> 
                </div>","null","","","","","","","","","",""
"","","","","","html-button-response","173","278595","0.0-173.0","11A5BC3C5A924C01A2AB8DD3F80DAAC0","019cf9d0-040d-7909-88fc-6a5a219bae85","019cf9ba-391a-7c7b-96b9-3757895c469c","","466","
                <div class=""stimulus-container"">
                    <img src=""images/semantic_sequence/redecorating_a_house_semantic/redecorating_a_house_semantic_1.png"" class=""exp-image"">
                    <div class=""question-area"">
                        <p style=""font-size: 20px; font-weight: bold; margin: 0;"">Is there a person in this image?</p>
                    </div>
                </div>","0","main_experiment_trial","1","redecorating_a_house_semantic","semantic_sequence","randomized","","","","",""
"","","","","","html-keyboard-response","174","279598","0.0-174.0","11A5BC3C5A924C01A2AB8DD3F80DAAC0","019cf9d0-040d-7909-88fc-6a5a219bae85","019cf9ba-391a-7c7b-96b9-3757895c469c","","null","
                <div class=""stimulus-container"">
                    <img src=""images/semantic_sequence/redecorating_a_house_semantic/redecorating_a_house_semantic_9.png"" class=""exp-image"">
                    <div class=""question-area""></div> 
                </div>","null","","","","","","","","","",""
"","","","","","html-button-response","175","280152","0.0-175.0","11A5BC3C5A924C01A2AB8DD3F80DAAC0","019cf9d0-040d-7909-88fc-6a5a219bae85","019cf9ba-391a-7c7b-96b9-3757895c469c","","552","
                <div class=""stimulus-container"">
                    <img src=""images/semantic_sequence/redecorating_a_house_semantic/redecorating_a_house_semantic_9.png"" class=""exp-image"">
                    <div class=""question-area"">
                        <p style=""font-size: 20px; font-weight: bold; margin: 0;"">Is there a person in this image?</p>
                    </div>
                </div>","0","main_experiment_trial","9","redecorating_a_house_semantic","semantic_sequence","randomized","","","","",""
"","","","","","html-keyboard-response","176","281164","0.0-176.0","11A5BC3C5A924C01A2AB8DD3F80DAAC0","019cf9d0-040d-7909-88fc-6a5a219bae85","019cf9ba-391a-7c7b-96b9-3757895c469c","","null","
                <div class=""stimulus-container"">
                    <img src=""images/semantic_sequence/redecorating_a_house_semantic/redecorating_a_house_semantic_7.png"" class=""exp-image"">
                    <div class=""question-area""></div> 
                </div>","null","","","","","","","","","",""
"","","","","","html-button-response","177","281659","0.0-177.0","11A5BC3C5A924C01A2AB8DD3F80DAAC0","019cf9d0-040d-7909-88fc-6a5a219bae85","019cf9ba-391a-7c7b-96b9-3757895c469c","","493","
                <div class=""stimulus-container"">
                    <img src=""images/semantic_sequence/redecorating_a_house_semantic/redecorating_a_house_semantic_7.png"" class=""exp-image"">
                    <div class=""question-area"">
                        <p style=""font-size: 20px; font-weight: bold; margin: 0;"">Is there a person in this image?</p>
                    </div>
                </div>","0","main_experiment_trial","7","redecorating_a_house_semantic","semantic_sequence","randomized","","","","",""
"","","","","","html-keyboard-response","178","282670","0.0-178.0","11A5BC3C5A924C01A2AB8DD3F80DAAC0","019cf9d0-040d-7909-88fc-6a5a219bae85","019cf9ba-391a-7c7b-96b9-3757895c469c","","null","
                <div class=""stimulus-container"">
                    <img src=""images/semantic_sequence/redecorating_a_house_semantic/redecorating_a_house_semantic_ten.png"" class=""exp-image"">
                    <div class=""question-area""></div> 
                </div>","null","","","","","","","","","",""
