"success","timeout","failed_images","failed_audio","failed_video","trial_type","trial_index","time_elapsed","internal_node_id","subject_id","study_id","session_id","view_history","rt","stimulus","response","task","image_index","folder","sequence_type","valuable_image_index","reward_type","chosen_image_index","target_X","correct_choice"
"true","false","[]","[]","[]","preload","0","13163","0.0-0.0","DDF9CC347F5D4544A341532EF7995E62","019cf7be-a08d-7c0e-be8b-7cca7a7985b6","019cf7bd-52b9-7f96-9138-a5960b400b31","","","","","","","","","","","","",""
"","","","","","instructions","1","28447","0.0-1.0","DDF9CC347F5D4544A341532EF7995E62","019cf7be-a08d-7c0e-be8b-7cca7a7985b6","019cf7bd-52b9-7f96-9138-a5960b400b31","[{""page_index"":0,""viewing_time"":15285}]","15285","","","","","","","","","","",""
"","","","","","instructions","2","36893","0.0-2.0","DDF9CC347F5D4544A341532EF7995E62","019cf7be-a08d-7c0e-be8b-7cca7a7985b6","019cf7bd-52b9-7f96-9138-a5960b400b31","[{""page_index"":0,""viewing_time"":8444}]","8444","","","","","","","","","","",""
"true","","","","","fullscreen","3","39575","0.0-3.0","DDF9CC347F5D4544A341532EF7995E62","019cf7be-a08d-7c0e-be8b-7cca7a7985b6","019cf7bd-52b9-7f96-9138-a5960b400b31","","1680","","","","","","","","","","",""
"","","","","","instructions","4","41908","0.0-4.0","DDF9CC347F5D4544A341532EF7995E62","019cf7be-a08d-7c0e-be8b-7cca7a7985b6","019cf7bd-52b9-7f96-9138-a5960b400b31","[{""page_index"":0,""viewing_time"":2332}]","2332","","","","","","","","","","",""
"","","","","","instructions","5","43839","0.0-5.0","DDF9CC347F5D4544A341532EF7995E62","019cf7be-a08d-7c0e-be8b-7cca7a7985b6","019cf7bd-52b9-7f96-9138-a5960b400b31","[{""page_index"":0,""viewing_time"":1930}]","1930","","","","","","","","","","",""
"","","","","","html-keyboard-response","6","47843","0.0-6.0","DDF9CC347F5D4544A341532EF7995E62","019cf7be-a08d-7c0e-be8b-7cca7a7985b6","019cf7bd-52b9-7f96-9138-a5960b400b31","","null","
                <div class=""stimulus-container"">
                    <img src=""images/instructions/movie_1.png"" class=""exp-image"">
                    <div class=""question-area""></div> 
                </div>","null","","","","","","","","",""
"","","","","","html-button-response","7","50157","0.0-7.0","DDF9CC347F5D4544A341532EF7995E62","019cf7be-a08d-7c0e-be8b-7cca7a7985b6","019cf7bd-52b9-7f96-9138-a5960b400b31","","2312","
                <div class=""stimulus-container"">
                    <img src=""images/instructions/movie_1.png"" class=""exp-image"">
                    <div class=""question-area"">
                        <p style=""font-size: 20px; font-weight: bold; margin: 0;"">Was there a person in this image?</p>
                    </div>
                </div>","0","example_question","1","","","","","","",""
"","","","","","html-keyboard-response","8","54159","0.0-8.0","DDF9CC347F5D4544A341532EF7995E62","019cf7be-a08d-7c0e-be8b-7cca7a7985b6","019cf7bd-52b9-7f96-9138-a5960b400b31","","null","
                <div class=""stimulus-container"">
                    <img src=""images/instructions/movie_2.png"" class=""exp-image"">
                    <div class=""question-area""></div> 
                </div>","null","","","","","","","","",""
"","","","","","html-button-response","9","54756","0.0-9.0","DDF9CC347F5D4544A341532EF7995E62","019cf7be-a08d-7c0e-be8b-7cca7a7985b6","019cf7bd-52b9-7f96-9138-a5960b400b31","","596","
                <div class=""stimulus-container"">
                    <img src=""images/instructions/movie_2.png"" class=""exp-image"">
                    <div class=""question-area"">
                        <p style=""font-size: 20px; font-weight: bold; margin: 0;"">Was there a person in this image?</p>
                    </div>
                </div>","0","example_question","2","","","","","","",""
"","","","","","html-keyboard-response","10","58758","0.0-10.0","DDF9CC347F5D4544A341532EF7995E62","019cf7be-a08d-7c0e-be8b-7cca7a7985b6","019cf7bd-52b9-7f96-9138-a5960b400b31","","null","
                <div class=""stimulus-container"">
                    <img src=""images/instructions/movie_3.png"" class=""exp-image"">
                    <div class=""question-area""></div> 
                </div>","null","","","","","","","","",""
"","","","","","html-button-response","11","59206","0.0-11.0","DDF9CC347F5D4544A341532EF7995E62","019cf7be-a08d-7c0e-be8b-7cca7a7985b6","019cf7bd-52b9-7f96-9138-a5960b400b31","","447","
                <div class=""stimulus-container"">
                    <img src=""images/instructions/movie_3.png"" class=""exp-image"">
                    <div class=""question-area"">
                        <p style=""font-size: 20px; font-weight: bold; margin: 0;"">Was there a person in this image?</p>
                    </div>
                </div>","0","example_question","3","","","","","","",""
"","","","","","html-keyboard-response","12","63208","0.0-12.0","DDF9CC347F5D4544A341532EF7995E62","019cf7be-a08d-7c0e-be8b-7cca7a7985b6","019cf7bd-52b9-7f96-9138-a5960b400b31","","null","
                <div class=""stimulus-container"">
                    <img src=""images/instructions/movie_4.png"" class=""exp-image"">
                    <div class=""question-area""></div> 
                </div>","null","","","","","","","","",""
"","","","","","html-button-response","13","63640","0.0-13.0","DDF9CC347F5D4544A341532EF7995E62","019cf7be-a08d-7c0e-be8b-7cca7a7985b6","019cf7bd-52b9-7f96-9138-a5960b400b31","","431","
                <div class=""stimulus-container"">
                    <img src=""images/instructions/movie_4.png"" class=""exp-image"">
                    <div class=""question-area"">
                        <p style=""font-size: 20px; font-weight: bold; margin: 0;"">Was there a person in this image?</p>
                    </div>
                </div>","0","example_question","4","","","","","","",""
"","","","","","instructions","14","65273","0.0-14.0","DDF9CC347F5D4544A341532EF7995E62","019cf7be-a08d-7c0e-be8b-7cca7a7985b6","019cf7bd-52b9-7f96-9138-a5960b400b31","[{""page_index"":0,""viewing_time"":1633}]","1633","","","","","","","","","","",""
"","","","","","instructions","15","70056","0.0-15.0","DDF9CC347F5D4544A341532EF7995E62","019cf7be-a08d-7c0e-be8b-7cca7a7985b6","019cf7bd-52b9-7f96-9138-a5960b400b31","[{""page_index"":0,""viewing_time"":4783}]","4783","","","","","","","","","","",""
"","","","","","html-keyboard-response","16","71058","0.0-16.0","DDF9CC347F5D4544A341532EF7995E62","019cf7be-a08d-7c0e-be8b-7cca7a7985b6","019cf7bd-52b9-7f96-9138-a5960b400b31","","null","<div style=""background-color: white; width: 100vw; height: 100vh;""></div>","null","","","","","","","","",""
"","","","","","html-keyboard-response","17","76060","0.0-17.0","DDF9CC347F5D4544A341532EF7995E62","019cf7be-a08d-7c0e-be8b-7cca7a7985b6","019cf7bd-52b9-7f96-9138-a5960b400b31","","null","
                <div class=""stimulus-container"">
                    <img src=""images/semantic_sequence/exploring_nature_semantic/exploring_nature_semantic_1.png"" class=""exp-image"">
                    <div class=""question-area""></div> 
                </div>","null","","","","","","","","",""
"","","","","","html-button-response","18","76940","0.0-18.0","DDF9CC347F5D4544A341532EF7995E62","019cf7be-a08d-7c0e-be8b-7cca7a7985b6","019cf7bd-52b9-7f96-9138-a5960b400b31","","878","
                <div class=""stimulus-container"">
                    <img src=""images/semantic_sequence/exploring_nature_semantic/exploring_nature_semantic_1.png"" class=""exp-image"">
                    <div class=""question-area"">
                        <p style=""font-size: 20px; font-weight: bold; margin: 0;"">Is there a person in this image?</p>
                    </div>
                </div>","0","main_experiment_trial","1","exploring_nature_semantic","semantic_sequence","","","","",""
"","","","","","html-keyboard-response","19","81942","0.0-19.0","DDF9CC347F5D4544A341532EF7995E62","019cf7be-a08d-7c0e-be8b-7cca7a7985b6","019cf7bd-52b9-7f96-9138-a5960b400b31","","null","
                <div class=""stimulus-container"">
                    <img src=""images/semantic_sequence/exploring_nature_semantic/exploring_nature_semantic_2.png"" class=""exp-image"">
                    <div class=""question-area""></div> 
                </div>","null","","","","","","","","",""
"","","","","","html-button-response","20","82657","0.0-20.0","DDF9CC347F5D4544A341532EF7995E62","019cf7be-a08d-7c0e-be8b-7cca7a7985b6","019cf7bd-52b9-7f96-9138-a5960b400b31","","714","
                <div class=""stimulus-container"">
                    <img src=""images/semantic_sequence/exploring_nature_semantic/exploring_nature_semantic_2.png"" class=""exp-image"">
                    <div class=""question-area"">
                        <p style=""font-size: 20px; font-weight: bold; margin: 0;"">Is there a person in this image?</p>
                    </div>
                </div>","0","main_experiment_trial","2","exploring_nature_semantic","semantic_sequence","","","","",""
"","","","","","html-keyboard-response","21","87659","0.0-21.0","DDF9CC347F5D4544A341532EF7995E62","019cf7be-a08d-7c0e-be8b-7cca7a7985b6","019cf7bd-52b9-7f96-9138-a5960b400b31","","null","
                <div class=""stimulus-container"">
                    <img src=""images/semantic_sequence/exploring_nature_semantic/exploring_nature_semantic_3.png"" class=""exp-image"">
                    <div class=""question-area""></div> 
                </div>","null","","","","","","","","",""
"","","","","","html-button-response","22","88074","0.0-22.0","DDF9CC347F5D4544A341532EF7995E62","019cf7be-a08d-7c0e-be8b-7cca7a7985b6","019cf7bd-52b9-7f96-9138-a5960b400b31","","413","
                <div class=""stimulus-container"">
                    <img src=""images/semantic_sequence/exploring_nature_semantic/exploring_nature_semantic_3.png"" class=""exp-image"">
                    <div class=""question-area"">
                        <p style=""font-size: 20px; font-weight: bold; margin: 0;"">Is there a person in this image?</p>
                    </div>
                </div>","0","main_experiment_trial","3","exploring_nature_semantic","semantic_sequence","","","","",""
"","","","","","html-keyboard-response","23","93077","0.0-23.0","DDF9CC347F5D4544A341532EF7995E62","019cf7be-a08d-7c0e-be8b-7cca7a7985b6","019cf7bd-52b9-7f96-9138-a5960b400b31","","null","
                <div class=""stimulus-container"">
                    <img src=""images/semantic_sequence/exploring_nature_semantic/exploring_nature_semantic_4.png"" class=""exp-image"">
                    <div class=""question-area""></div> 
                </div>","null","","","","","","","","",""
"","","","","","html-button-response","24","93558","0.0-24.0","DDF9CC347F5D4544A341532EF7995E62","019cf7be-a08d-7c0e-be8b-7cca7a7985b6","019cf7bd-52b9-7f96-9138-a5960b400b31","","480","
                <div class=""stimulus-container"">
                    <img src=""images/semantic_sequence/exploring_nature_semantic/exploring_nature_semantic_4.png"" class=""exp-image"">
                    <div class=""question-area"">
                        <p style=""font-size: 20px; font-weight: bold; margin: 0;"">Is there a person in this image?</p>
                    </div>
                </div>","0","main_experiment_trial","4","exploring_nature_semantic","semantic_sequence","","","","",""
"","","","","","html-keyboard-response","25","98561","0.0-25.0","DDF9CC347F5D4544A341532EF7995E62","019cf7be-a08d-7c0e-be8b-7cca7a7985b6","019cf7bd-52b9-7f96-9138-a5960b400b31","","null","
                <div class=""stimulus-container"">
                    <img src=""images/semantic_sequence/exploring_nature_semantic/exploring_nature_semantic_5.png"" class=""exp-image"">
                    <div class=""question-area""></div> 
                </div>","null","","","","","","","","",""
"","","","","","html-button-response","26","99006","0.0-26.0","DDF9CC347F5D4544A341532EF7995E62","019cf7be-a08d-7c0e-be8b-7cca7a7985b6","019cf7bd-52b9-7f96-9138-a5960b400b31","","444","
                <div class=""stimulus-container"">
                    <img src=""images/semantic_sequence/exploring_nature_semantic/exploring_nature_semantic_5.png"" class=""exp-image"">
                    <div class=""question-area"">
                        <p style=""font-size: 20px; font-weight: bold; margin: 0;"">Is there a person in this image?</p>
                    </div>
                </div>","0","main_experiment_trial","5","exploring_nature_semantic","semantic_sequence","","","","",""
"","","","","","html-keyboard-response","27","104008","0.0-27.0","DDF9CC347F5D4544A341532EF7995E62","019cf7be-a08d-7c0e-be8b-7cca7a7985b6","019cf7bd-52b9-7f96-9138-a5960b400b31","","null","
                <div class=""stimulus-container"">
                    <img src=""images/semantic_sequence/exploring_nature_semantic/exploring_nature_semantic_6.png"" class=""exp-image"">
                    <div class=""question-area""></div> 
                </div>","null","","","","","","","","",""
"","","","","","html-button-response","28","104440","0.0-28.0","DDF9CC347F5D4544A341532EF7995E62","019cf7be-a08d-7c0e-be8b-7cca7a7985b6","019cf7bd-52b9-7f96-9138-a5960b400b31","","431","
                <div class=""stimulus-container"">
                    <img src=""images/semantic_sequence/exploring_nature_semantic/exploring_nature_semantic_6.png"" class=""exp-image"">
                    <div class=""question-area"">
                        <p style=""font-size: 20px; font-weight: bold; margin: 0;"">Is there a person in this image?</p>
                    </div>
                </div>","0","main_experiment_trial","6","exploring_nature_semantic","semantic_sequence","","","","",""
"","","","","","html-keyboard-response","29","109443","0.0-29.0","DDF9CC347F5D4544A341532EF7995E62","019cf7be-a08d-7c0e-be8b-7cca7a7985b6","019cf7bd-52b9-7f96-9138-a5960b400b31","","null","
                <div class=""stimulus-container"">
                    <img src=""images/semantic_sequence/exploring_nature_semantic/exploring_nature_semantic_7.png"" class=""exp-image"">
                    <div class=""question-area""></div> 
                </div>","null","","","","","","","","",""
"","","","","","html-button-response","30","109955","0.0-30.0","DDF9CC347F5D4544A341532EF7995E62","019cf7be-a08d-7c0e-be8b-7cca7a7985b6","019cf7bd-52b9-7f96-9138-a5960b400b31","","511","
                <div class=""stimulus-container"">
                    <img src=""images/semantic_sequence/exploring_nature_semantic/exploring_nature_semantic_7.png"" class=""exp-image"">
                    <div class=""question-area"">
                        <p style=""font-size: 20px; font-weight: bold; margin: 0;"">Is there a person in this image?</p>
                    </div>
                </div>","0","main_experiment_trial","7","exploring_nature_semantic","semantic_sequence","","","","",""
"","","","","","html-keyboard-response","31","114957","0.0-31.0","DDF9CC347F5D4544A341532EF7995E62","019cf7be-a08d-7c0e-be8b-7cca7a7985b6","019cf7bd-52b9-7f96-9138-a5960b400b31","","null","
                <div class=""stimulus-container"">
                    <img src=""images/semantic_sequence/exploring_nature_semantic/exploring_nature_semantic_8.png"" class=""exp-image"">
                    <div class=""question-area""></div> 
                </div>","null","","","","","","","","",""
"","","","","","html-button-response","32","117959","0.0-32.0","DDF9CC347F5D4544A341532EF7995E62","019cf7be-a08d-7c0e-be8b-7cca7a7985b6","019cf7bd-52b9-7f96-9138-a5960b400b31","","null","
                <div class=""stimulus-container"">
                    <img src=""images/semantic_sequence/exploring_nature_semantic/exploring_nature_semantic_8.png"" class=""exp-image"">
                    <div class=""question-area"">
                        <p style=""font-size: 20px; font-weight: bold; margin: 0;"">Is there a person in this image?</p>
                    </div>
                </div>","null","main_experiment_trial","8","exploring_nature_semantic","semantic_sequence","","","","",""
"","","","","","html-keyboard-response","33","122961","0.0-33.0","DDF9CC347F5D4544A341532EF7995E62","019cf7be-a08d-7c0e-be8b-7cca7a7985b6","019cf7bd-52b9-7f96-9138-a5960b400b31","","null","
                <div class=""stimulus-container"">
                    <img src=""images/semantic_sequence/exploring_nature_semantic/exploring_nature_semantic_9.png"" class=""exp-image"">
                    <div class=""question-area""></div> 
                </div>","null","","","","","","","","",""
"","","","","","html-button-response","34","124072","0.0-34.0","DDF9CC347F5D4544A341532EF7995E62","019cf7be-a08d-7c0e-be8b-7cca7a7985b6","019cf7bd-52b9-7f96-9138-a5960b400b31","","1110","
                <div class=""stimulus-container"">
                    <img src=""images/semantic_sequence/exploring_nature_semantic/exploring_nature_semantic_9.png"" class=""exp-image"">
                    <div class=""question-area"">
                        <p style=""font-size: 20px; font-weight: bold; margin: 0;"">Is there a person in this image?</p>
                    </div>
                </div>","0","main_experiment_trial","9","exploring_nature_semantic","semantic_sequence","","","","",""
"","","","","","html-keyboard-response","35","129075","0.0-35.0","DDF9CC347F5D4544A341532EF7995E62","019cf7be-a08d-7c0e-be8b-7cca7a7985b6","019cf7bd-52b9-7f96-9138-a5960b400b31","","null","
                <div class=""stimulus-container"">
                    <img src=""images/semantic_sequence/exploring_nature_semantic/exploring_nature_semantic_ten.png"" class=""exp-image"">
                    <div class=""question-area""></div> 
                </div>","null","","","","","","","","",""
"","","","","","html-button-response","36","130523","0.0-36.0","DDF9CC347F5D4544A341532EF7995E62","019cf7be-a08d-7c0e-be8b-7cca7a7985b6","019cf7bd-52b9-7f96-9138-a5960b400b31","","1447","
                <div class=""stimulus-container"">
                    <img src=""images/semantic_sequence/exploring_nature_semantic/exploring_nature_semantic_ten.png"" class=""exp-image"">
                    <div class=""question-area"">
                        <p style=""font-size: 20px; font-weight: bold; margin: 0;"">Is there a person in this image?</p>
                    </div>
                </div>","0","main_experiment_trial","ten","exploring_nature_semantic","semantic_sequence","","","","",""
"","","","","","html-keyboard-response","37","131524","0.0-37.0","DDF9CC347F5D4544A341532EF7995E62","019cf7be-a08d-7c0e-be8b-7cca7a7985b6","019cf7bd-52b9-7f96-9138-a5960b400b31","","null","<div style=""background-color: white; width: 100vw; height: 100vh;""></div>","null","","","","","","","","",""
"","","","","","html-keyboard-response","38","136526","0.0-38.0","DDF9CC347F5D4544A341532EF7995E62","019cf7be-a08d-7c0e-be8b-7cca7a7985b6","019cf7bd-52b9-7f96-9138-a5960b400b31","","null","
                <div class=""stimulus-container"">
                    <img src=""images/semantic_sequence/cat_care_semantic/cat_care_semantic_1.png"" class=""exp-image"">
                    <div class=""question-area""></div> 
                </div>","null","","","","","","","","",""
"","","","","","html-button-response","39","137905","0.0-39.0","DDF9CC347F5D4544A341532EF7995E62","019cf7be-a08d-7c0e-be8b-7cca7a7985b6","019cf7bd-52b9-7f96-9138-a5960b400b31","","1378","
                <div class=""stimulus-container"">
                    <img src=""images/semantic_sequence/cat_care_semantic/cat_care_semantic_1.png"" class=""exp-image"">
                    <div class=""question-area"">
                        <p style=""font-size: 20px; font-weight: bold; margin: 0;"">Is there a person in this image?</p>
                    </div>
                </div>","0","main_experiment_trial","1","cat_care_semantic","semantic_sequence","","","","",""
"","","","","","html-keyboard-response","40","142907","0.0-40.0","DDF9CC347F5D4544A341532EF7995E62","019cf7be-a08d-7c0e-be8b-7cca7a7985b6","019cf7bd-52b9-7f96-9138-a5960b400b31","","null","
                <div class=""stimulus-container"">
                    <img src=""images/semantic_sequence/cat_care_semantic/cat_care_semantic_2.png"" class=""exp-image"">
                    <div class=""question-area""></div> 
                </div>","null","","","","","","","","",""
"","","","","","html-button-response","41","143455","0.0-41.0","DDF9CC347F5D4544A341532EF7995E62","019cf7be-a08d-7c0e-be8b-7cca7a7985b6","019cf7bd-52b9-7f96-9138-a5960b400b31","","547","
                <div class=""stimulus-container"">
                    <img src=""images/semantic_sequence/cat_care_semantic/cat_care_semantic_2.png"" class=""exp-image"">
                    <div class=""question-area"">
                        <p style=""font-size: 20px; font-weight: bold; margin: 0;"">Is there a person in this image?</p>
                    </div>
                </div>","0","main_experiment_trial","2","cat_care_semantic","semantic_sequence","","","","",""
"","","","","","html-keyboard-response","42","148456","0.0-42.0","DDF9CC347F5D4544A341532EF7995E62","019cf7be-a08d-7c0e-be8b-7cca7a7985b6","019cf7bd-52b9-7f96-9138-a5960b400b31","","null","
                <div class=""stimulus-container"">
                    <img src=""images/semantic_sequence/cat_care_semantic/cat_care_semantic_3.png"" class=""exp-image"">
                    <div class=""question-area""></div> 
                </div>","null","","","","","","","","",""
"","","","","","html-button-response","43","148938","0.0-43.0","DDF9CC347F5D4544A341532EF7995E62","019cf7be-a08d-7c0e-be8b-7cca7a7985b6","019cf7bd-52b9-7f96-9138-a5960b400b31","","481","
                <div class=""stimulus-container"">
                    <img src=""images/semantic_sequence/cat_care_semantic/cat_care_semantic_3.png"" class=""exp-image"">
                    <div class=""question-area"">
                        <p style=""font-size: 20px; font-weight: bold; margin: 0;"">Is there a person in this image?</p>
                    </div>
                </div>","0","main_experiment_trial","3","cat_care_semantic","semantic_sequence","","","","",""
"","","","","","html-keyboard-response","44","153940","0.0-44.0","DDF9CC347F5D4544A341532EF7995E62","019cf7be-a08d-7c0e-be8b-7cca7a7985b6","019cf7bd-52b9-7f96-9138-a5960b400b31","","null","
                <div class=""stimulus-container"">
                    <img src=""images/semantic_sequence/cat_care_semantic/cat_care_semantic_4.png"" class=""exp-image"">
                    <div class=""question-area""></div> 
                </div>","null","","","","","","","","",""
"","","","","","html-button-response","45","154471","0.0-45.0","DDF9CC347F5D4544A341532EF7995E62","019cf7be-a08d-7c0e-be8b-7cca7a7985b6","019cf7bd-52b9-7f96-9138-a5960b400b31","","530","
                <div class=""stimulus-container"">
                    <img src=""images/semantic_sequence/cat_care_semantic/cat_care_semantic_4.png"" class=""exp-image"">
                    <div class=""question-area"">
                        <p style=""font-size: 20px; font-weight: bold; margin: 0;"">Is there a person in this image?</p>
                    </div>
                </div>","0","main_experiment_trial","4","cat_care_semantic","semantic_sequence","","","","",""
"","","","","","html-keyboard-response","46","159474","0.0-46.0","DDF9CC347F5D4544A341532EF7995E62","019cf7be-a08d-7c0e-be8b-7cca7a7985b6","019cf7bd-52b9-7f96-9138-a5960b400b31","","null","
                <div class=""stimulus-container"">
                    <img src=""images/semantic_sequence/cat_care_semantic/cat_care_semantic_5.png"" class=""exp-image"">
                    <div class=""question-area""></div> 
                </div>","null","","","","","","","","",""
"","","","","","html-button-response","47","159873","0.0-47.0","DDF9CC347F5D4544A341532EF7995E62","019cf7be-a08d-7c0e-be8b-7cca7a7985b6","019cf7bd-52b9-7f96-9138-a5960b400b31","","399","
                <div class=""stimulus-container"">
                    <img src=""images/semantic_sequence/cat_care_semantic/cat_care_semantic_5.png"" class=""exp-image"">
                    <div class=""question-area"">
                        <p style=""font-size: 20px; font-weight: bold; margin: 0;"">Is there a person in this image?</p>
                    </div>
                </div>","0","main_experiment_trial","5","cat_care_semantic","semantic_sequence","","","","",""
"","","","","","html-keyboard-response","48","164875","0.0-48.0","DDF9CC347F5D4544A341532EF7995E62","019cf7be-a08d-7c0e-be8b-7cca7a7985b6","019cf7bd-52b9-7f96-9138-a5960b400b31","","null","
                <div class=""stimulus-container"">
                    <img src=""images/semantic_sequence/cat_care_semantic/cat_care_semantic_6.png"" class=""exp-image"">
                    <div class=""question-area""></div> 
                </div>","null","","","","","","","","",""
"","","","","","html-button-response","49","165322","0.0-49.0","DDF9CC347F5D4544A341532EF7995E62","019cf7be-a08d-7c0e-be8b-7cca7a7985b6","019cf7bd-52b9-7f96-9138-a5960b400b31","","446","
                <div class=""stimulus-container"">
                    <img src=""images/semantic_sequence/cat_care_semantic/cat_care_semantic_6.png"" class=""exp-image"">
                    <div class=""question-area"">
                        <p style=""font-size: 20px; font-weight: bold; margin: 0;"">Is there a person in this image?</p>
                    </div>
                </div>","0","main_experiment_trial","6","cat_care_semantic","semantic_sequence","","","","",""
"","","","","","html-keyboard-response","50","170324","0.0-50.0","DDF9CC347F5D4544A341532EF7995E62","019cf7be-a08d-7c0e-be8b-7cca7a7985b6","019cf7bd-52b9-7f96-9138-a5960b400b31","","null","
                <div class=""stimulus-container"">
                    <img src=""images/semantic_sequence/cat_care_semantic/cat_care_semantic_7.png"" class=""exp-image"">
                    <div class=""question-area""></div> 
                </div>","null","","","","","","","","",""
"","","","","","html-button-response","51","170788","0.0-51.0","DDF9CC347F5D4544A341532EF7995E62","019cf7be-a08d-7c0e-be8b-7cca7a7985b6","019cf7bd-52b9-7f96-9138-a5960b400b31","","462","
                <div class=""stimulus-container"">
                    <img src=""images/semantic_sequence/cat_care_semantic/cat_care_semantic_7.png"" class=""exp-image"">
                    <div class=""question-area"">
                        <p style=""font-size: 20px; font-weight: bold; margin: 0;"">Is there a person in this image?</p>
                    </div>
                </div>","0","main_experiment_trial","7","cat_care_semantic","semantic_sequence","","","","",""
"","","","","","html-keyboard-response","52","175790","0.0-52.0","DDF9CC347F5D4544A341532EF7995E62","019cf7be-a08d-7c0e-be8b-7cca7a7985b6","019cf7bd-52b9-7f96-9138-a5960b400b31","","null","
                <div class=""stimulus-container"">
                    <img src=""images/semantic_sequence/cat_care_semantic/cat_care_semantic_8.png"" class=""exp-image"">
                    <div class=""question-area""></div> 
                </div>","null","","","","","","","","",""
"","","","","","html-button-response","53","176221","0.0-53.0","DDF9CC347F5D4544A341532EF7995E62","019cf7be-a08d-7c0e-be8b-7cca7a7985b6","019cf7bd-52b9-7f96-9138-a5960b400b31","","430","
                <div class=""stimulus-container"">
                    <img src=""images/semantic_sequence/cat_care_semantic/cat_care_semantic_8.png"" class=""exp-image"">
                    <div class=""question-area"">
                        <p style=""font-size: 20px; font-weight: bold; margin: 0;"">Is there a person in this image?</p>
                    </div>
                </div>","0","main_experiment_trial","8","cat_care_semantic","semantic_sequence","","","","",""
"","","","","","html-keyboard-response","54","181224","0.0-54.0","DDF9CC347F5D4544A341532EF7995E62","019cf7be-a08d-7c0e-be8b-7cca7a7985b6","019cf7bd-52b9-7f96-9138-a5960b400b31","","null","
                <div class=""stimulus-container"">
                    <img src=""images/semantic_sequence/cat_care_semantic/cat_care_semantic_9.png"" class=""exp-image"">
                    <div class=""question-area""></div> 
                </div>","null","","","","","","","","",""
"","","","","","html-button-response","55","181638","0.0-55.0","DDF9CC347F5D4544A341532EF7995E62","019cf7be-a08d-7c0e-be8b-7cca7a7985b6","019cf7bd-52b9-7f96-9138-a5960b400b31","","413","
                <div class=""stimulus-container"">
                    <img src=""images/semantic_sequence/cat_care_semantic/cat_care_semantic_9.png"" class=""exp-image"">
                    <div class=""question-area"">
                        <p style=""font-size: 20px; font-weight: bold; margin: 0;"">Is there a person in this image?</p>
                    </div>
                </div>","0","main_experiment_trial","9","cat_care_semantic","semantic_sequence","","","","",""
"","","","","","html-keyboard-response","56","186640","0.0-56.0","DDF9CC347F5D4544A341532EF7995E62","019cf7be-a08d-7c0e-be8b-7cca7a7985b6","019cf7bd-52b9-7f96-9138-a5960b400b31","","null","
                <div class=""stimulus-container"">
                    <img src=""images/semantic_sequence/cat_care_semantic/cat_care_semantic_ten.png"" class=""exp-image"">
                    <div class=""question-area""></div> 
                </div>","null","","","","","","","","",""
"","","","","","html-button-response","57","187071","0.0-57.0","DDF9CC347F5D4544A341532EF7995E62","019cf7be-a08d-7c0e-be8b-7cca7a7985b6","019cf7bd-52b9-7f96-9138-a5960b400b31","","430","
                <div class=""stimulus-container"">
                    <img src=""images/semantic_sequence/cat_care_semantic/cat_care_semantic_ten.png"" class=""exp-image"">
                    <div class=""question-area"">
                        <p style=""font-size: 20px; font-weight: bold; margin: 0;"">Is there a person in this image?</p>
                    </div>
                </div>","1","main_experiment_trial","ten","cat_care_semantic","semantic_sequence","","","","",""
"","","","","","html-keyboard-response","58","188072","0.0-58.0","DDF9CC347F5D4544A341532EF7995E62","019cf7be-a08d-7c0e-be8b-7cca7a7985b6","019cf7bd-52b9-7f96-9138-a5960b400b31","","null","<div style=""background-color: white; width: 100vw; height: 100vh;""></div>","null","","","","","","","","",""
"","","","","","html-keyboard-response","59","193074","0.0-59.0","DDF9CC347F5D4544A341532EF7995E62","019cf7be-a08d-7c0e-be8b-7cca7a7985b6","019cf7bd-52b9-7f96-9138-a5960b400b31","","null","
                <div class=""stimulus-container"">
                    <img src=""images/semantic_sequence/kitchen_operations_semantic/kitchen_operations_semantic_1.png"" class=""exp-image"">
                    <div class=""question-area""></div> 
                </div>","null","","","","","","","","",""
"","","","","","html-button-response","60","193805","0.0-60.0","DDF9CC347F5D4544A341532EF7995E62","019cf7be-a08d-7c0e-be8b-7cca7a7985b6","019cf7bd-52b9-7f96-9138-a5960b400b31","","730","
                <div class=""stimulus-container"">
                    <img src=""images/semantic_sequence/kitchen_operations_semantic/kitchen_operations_semantic_1.png"" class=""exp-image"">
                    <div class=""question-area"">
                        <p style=""font-size: 20px; font-weight: bold; margin: 0;"">Is there a person in this image?</p>
                    </div>
                </div>","0","main_experiment_trial","1","kitchen_operations_semantic","semantic_sequence","","","","",""
"","","","","","html-keyboard-response","61","198807","0.0-61.0","DDF9CC347F5D4544A341532EF7995E62","019cf7be-a08d-7c0e-be8b-7cca7a7985b6","019cf7bd-52b9-7f96-9138-a5960b400b31","","null","
                <div class=""stimulus-container"">
                    <img src=""images/semantic_sequence/kitchen_operations_semantic/kitchen_operations_semantic_2.png"" class=""exp-image"">
                    <div class=""question-area""></div> 
                </div>","null","","","","","","","","",""
"","","","","","html-button-response","62","200304","0.0-62.0","DDF9CC347F5D4544A341532EF7995E62","019cf7be-a08d-7c0e-be8b-7cca7a7985b6","019cf7bd-52b9-7f96-9138-a5960b400b31","","1496","
                <div class=""stimulus-container"">
                    <img src=""images/semantic_sequence/kitchen_operations_semantic/kitchen_operations_semantic_2.png"" class=""exp-image"">
                    <div class=""question-area"">
                        <p style=""font-size: 20px; font-weight: bold; margin: 0;"">Is there a person in this image?</p>
                    </div>
                </div>","0","main_experiment_trial","2","kitchen_operations_semantic","semantic_sequence","","","","",""
"","","","","","html-keyboard-response","63","205306","0.0-63.0","DDF9CC347F5D4544A341532EF7995E62","019cf7be-a08d-7c0e-be8b-7cca7a7985b6","019cf7bd-52b9-7f96-9138-a5960b400b31","","null","
                <div class=""stimulus-container"">
                    <img src=""images/semantic_sequence/kitchen_operations_semantic/kitchen_operations_semantic_3.png"" class=""exp-image"">
                    <div class=""question-area""></div> 
                </div>","null","","","","","","","","",""
"","","","","","html-button-response","64","205871","0.0-64.0","DDF9CC347F5D4544A341532EF7995E62","019cf7be-a08d-7c0e-be8b-7cca7a7985b6","019cf7bd-52b9-7f96-9138-a5960b400b31","","563","
                <div class=""stimulus-container"">
                    <img src=""images/semantic_sequence/kitchen_operations_semantic/kitchen_operations_semantic_3.png"" class=""exp-image"">
                    <div class=""question-area"">
                        <p style=""font-size: 20px; font-weight: bold; margin: 0;"">Is there a person in this image?</p>
                    </div>
                </div>","0","main_experiment_trial","3","kitchen_operations_semantic","semantic_sequence","","","","",""
"","","","","","html-keyboard-response","65","210873","0.0-65.0","DDF9CC347F5D4544A341532EF7995E62","019cf7be-a08d-7c0e-be8b-7cca7a7985b6","019cf7bd-52b9-7f96-9138-a5960b400b31","","null","
                <div class=""stimulus-container"">
                    <img src=""images/semantic_sequence/kitchen_operations_semantic/kitchen_operations_semantic_4.png"" class=""exp-image"">
                    <div class=""question-area""></div> 
                </div>","null","","","","","","","","",""
"","","","","","html-button-response","66","211388","0.0-66.0","DDF9CC347F5D4544A341532EF7995E62","019cf7be-a08d-7c0e-be8b-7cca7a7985b6","019cf7bd-52b9-7f96-9138-a5960b400b31","","514","
                <div class=""stimulus-container"">
                    <img src=""images/semantic_sequence/kitchen_operations_semantic/kitchen_operations_semantic_4.png"" class=""exp-image"">
                    <div class=""question-area"">
                        <p style=""font-size: 20px; font-weight: bold; margin: 0;"">Is there a person in this image?</p>
                    </div>
                </div>","0","main_experiment_trial","4","kitchen_operations_semantic","semantic_sequence","","","","",""
"","","","","","html-keyboard-response","67","216391","0.0-67.0","DDF9CC347F5D4544A341532EF7995E62","019cf7be-a08d-7c0e-be8b-7cca7a7985b6","019cf7bd-52b9-7f96-9138-a5960b400b31","","null","
                <div class=""stimulus-container"">
                    <img src=""images/semantic_sequence/kitchen_operations_semantic/kitchen_operations_semantic_5.png"" class=""exp-image"">
                    <div class=""question-area""></div> 
                </div>","null","","","","","","","","",""
"","","","","","html-button-response","68","216871","0.0-68.0","DDF9CC347F5D4544A341532EF7995E62","019cf7be-a08d-7c0e-be8b-7cca7a7985b6","019cf7bd-52b9-7f96-9138-a5960b400b31","","479","
                <div class=""stimulus-container"">
                    <img src=""images/semantic_sequence/kitchen_operations_semantic/kitchen_operations_semantic_5.png"" class=""exp-image"">
                    <div class=""question-area"">
                        <p style=""font-size: 20px; font-weight: bold; margin: 0;"">Is there a person in this image?</p>
                    </div>
                </div>","0","main_experiment_trial","5","kitchen_operations_semantic","semantic_sequence","","","","",""
"","","","","","html-keyboard-response","69","221873","0.0-69.0","DDF9CC347F5D4544A341532EF7995E62","019cf7be-a08d-7c0e-be8b-7cca7a7985b6","019cf7bd-52b9-7f96-9138-a5960b400b31","","null","
                <div class=""stimulus-container"">
                    <img src=""images/semantic_sequence/kitchen_operations_semantic/kitchen_operations_semantic_6.png"" class=""exp-image"">
                    <div class=""question-area""></div> 
                </div>","null","","","","","","","","",""
"","","","","","html-button-response","70","224875","0.0-70.0","DDF9CC347F5D4544A341532EF7995E62","019cf7be-a08d-7c0e-be8b-7cca7a7985b6","019cf7bd-52b9-7f96-9138-a5960b400b31","","null","
                <div class=""stimulus-container"">
                    <img src=""images/semantic_sequence/kitchen_operations_semantic/kitchen_operations_semantic_6.png"" class=""exp-image"">
                    <div class=""question-area"">
                        <p style=""font-size: 20px; font-weight: bold; margin: 0;"">Is there a person in this image?</p>
                    </div>
                </div>","null","main_experiment_trial","6","kitchen_operations_semantic","semantic_sequence","","","","",""
"","","","","","html-keyboard-response","71","229877","0.0-71.0","DDF9CC347F5D4544A341532EF7995E62","019cf7be-a08d-7c0e-be8b-7cca7a7985b6","019cf7bd-52b9-7f96-9138-a5960b400b31","","null","
                <div class=""stimulus-container"">
                    <img src=""images/semantic_sequence/kitchen_operations_semantic/kitchen_operations_semantic_7.png"" class=""exp-image"">
                    <div class=""question-area""></div> 
                </div>","null","","","","","","","","",""
"","","","","","html-button-response","72","230537","0.0-72.0","DDF9CC347F5D4544A341532EF7995E62","019cf7be-a08d-7c0e-be8b-7cca7a7985b6","019cf7bd-52b9-7f96-9138-a5960b400b31","","659","
                <div class=""stimulus-container"">
                    <img src=""images/semantic_sequence/kitchen_operations_semantic/kitchen_operations_semantic_7.png"" class=""exp-image"">
                    <div class=""question-area"">
                        <p style=""font-size: 20px; font-weight: bold; margin: 0;"">Is there a person in this image?</p>
                    </div>
                </div>","0","main_experiment_trial","7","kitchen_operations_semantic","semantic_sequence","","","","",""
"","","","","","html-keyboard-response","73","235539","0.0-73.0","DDF9CC347F5D4544A341532EF7995E62","019cf7be-a08d-7c0e-be8b-7cca7a7985b6","019cf7bd-52b9-7f96-9138-a5960b400b31","","null","
                <div class=""stimulus-container"">
                    <img src=""images/semantic_sequence/kitchen_operations_semantic/kitchen_operations_semantic_8.png"" class=""exp-image"">
                    <div class=""question-area""></div> 
                </div>","null","","","","","","","","",""
"","","","","","html-button-response","74","236388","0.0-74.0","DDF9CC347F5D4544A341532EF7995E62","019cf7be-a08d-7c0e-be8b-7cca7a7985b6","019cf7bd-52b9-7f96-9138-a5960b400b31","","847","
                <div class=""stimulus-container"">
                    <img src=""images/semantic_sequence/kitchen_operations_semantic/kitchen_operations_semantic_8.png"" class=""exp-image"">
                    <div class=""question-area"">
                        <p style=""font-size: 20px; font-weight: bold; margin: 0;"">Is there a person in this image?</p>
                    </div>
                </div>","0","main_experiment_trial","8","kitchen_operations_semantic","semantic_sequence","","","","",""
"","","","","","html-keyboard-response","75","241389","0.0-75.0","DDF9CC347F5D4544A341532EF7995E62","019cf7be-a08d-7c0e-be8b-7cca7a7985b6","019cf7bd-52b9-7f96-9138-a5960b400b31","","null","
                <div class=""stimulus-container"">
                    <img src=""images/semantic_sequence/kitchen_operations_semantic/kitchen_operations_semantic_9.png"" class=""exp-image"">
                    <div class=""question-area""></div> 
                </div>","null","","","","","","","","",""
"","","","","","html-button-response","76","242154","0.0-76.0","DDF9CC347F5D4544A341532EF7995E62","019cf7be-a08d-7c0e-be8b-7cca7a7985b6","019cf7bd-52b9-7f96-9138-a5960b400b31","","763","
                <div class=""stimulus-container"">
                    <img src=""images/semantic_sequence/kitchen_operations_semantic/kitchen_operations_semantic_9.png"" class=""exp-image"">
                    <div class=""question-area"">
                        <p style=""font-size: 20px; font-weight: bold; margin: 0;"">Is there a person in this image?</p>
                    </div>
                </div>","0","main_experiment_trial","9","kitchen_operations_semantic","semantic_sequence","","","","",""
"","","","","","html-keyboard-response","77","247156","0.0-77.0","DDF9CC347F5D4544A341532EF7995E62","019cf7be-a08d-7c0e-be8b-7cca7a7985b6","019cf7bd-52b9-7f96-9138-a5960b400b31","","null","
                <div class=""stimulus-container"">
                    <img src=""images/semantic_sequence/kitchen_operations_semantic/kitchen_operations_semantic_ten.png"" class=""exp-image"">
                    <div class=""question-area""></div> 
                </div>","null","","","","","","","","",""
"","","","","","html-button-response","78","248287","0.0-78.0","DDF9CC347F5D4544A341532EF7995E62","019cf7be-a08d-7c0e-be8b-7cca7a7985b6","019cf7bd-52b9-7f96-9138-a5960b400b31","","1130","
                <div class=""stimulus-container"">
                    <img src=""images/semantic_sequence/kitchen_operations_semantic/kitchen_operations_semantic_ten.png"" class=""exp-image"">
                    <div class=""question-area"">
                        <p style=""font-size: 20px; font-weight: bold; margin: 0;"">Is there a person in this image?</p>
                    </div>
                </div>","0","main_experiment_trial","ten","kitchen_operations_semantic","semantic_sequence","","","","",""
"","","","","","html-keyboard-response","79","249289","0.0-79.0","DDF9CC347F5D4544A341532EF7995E62","019cf7be-a08d-7c0e-be8b-7cca7a7985b6","019cf7bd-52b9-7f96-9138-a5960b400b31","","null","<div style=""background-color: white; width: 100vw; height: 100vh;""></div>","null","","","","","","","","",""
"","","","","","html-keyboard-response","80","254291","0.0-80.0","DDF9CC347F5D4544A341532EF7995E62","019cf7be-a08d-7c0e-be8b-7cca7a7985b6","019cf7bd-52b9-7f96-9138-a5960b400b31","","null","
                <div class=""stimulus-container"">
                    <img src=""images/schematic_sequence/flight_scheme/flight_scheme_1.png"" class=""exp-image"">
                    <div class=""question-area""></div> 
                </div>","null","","","","","","","","",""
"","","","","","html-button-response","81","254937","0.0-81.0","DDF9CC347F5D4544A341532EF7995E62","019cf7be-a08d-7c0e-be8b-7cca7a7985b6","019cf7bd-52b9-7f96-9138-a5960b400b31","","646","
                <div class=""stimulus-container"">
                    <img src=""images/schematic_sequence/flight_scheme/flight_scheme_1.png"" class=""exp-image"">
                    <div class=""question-area"">
                        <p style=""font-size: 20px; font-weight: bold; margin: 0;"">Is there a person in this image?</p>
                    </div>
                </div>","0","main_experiment_trial","1","flight_scheme","schematic_sequence","","","","",""
"","","","","","html-keyboard-response","82","259940","0.0-82.0","DDF9CC347F5D4544A341532EF7995E62","019cf7be-a08d-7c0e-be8b-7cca7a7985b6","019cf7bd-52b9-7f96-9138-a5960b400b31","","null","
                <div class=""stimulus-container"">
                    <img src=""images/schematic_sequence/flight_scheme/flight_scheme_2.png"" class=""exp-image"">
                    <div class=""question-area""></div> 
                </div>","null","","","","","","","","",""
"","","","","","html-button-response","83","260688","0.0-83.0","DDF9CC347F5D4544A341532EF7995E62","019cf7be-a08d-7c0e-be8b-7cca7a7985b6","019cf7bd-52b9-7f96-9138-a5960b400b31","","747","
                <div class=""stimulus-container"">
                    <img src=""images/schematic_sequence/flight_scheme/flight_scheme_2.png"" class=""exp-image"">
                    <div class=""question-area"">
                        <p style=""font-size: 20px; font-weight: bold; margin: 0;"">Is there a person in this image?</p>
                    </div>
                </div>","1","main_experiment_trial","2","flight_scheme","schematic_sequence","","","","",""
"","","","","","html-keyboard-response","84","265690","0.0-84.0","DDF9CC347F5D4544A341532EF7995E62","019cf7be-a08d-7c0e-be8b-7cca7a7985b6","019cf7bd-52b9-7f96-9138-a5960b400b31","","null","
                <div class=""stimulus-container"">
                    <img src=""images/schematic_sequence/flight_scheme/flight_scheme_3.png"" class=""exp-image"">
                    <div class=""question-area""></div> 
                </div>","null","","","","","","","","",""
"","","","","","html-button-response","85","266952","0.0-85.0","DDF9CC347F5D4544A341532EF7995E62","019cf7be-a08d-7c0e-be8b-7cca7a7985b6","019cf7bd-52b9-7f96-9138-a5960b400b31","","1261","
                <div class=""stimulus-container"">
                    <img src=""images/schematic_sequence/flight_scheme/flight_scheme_3.png"" class=""exp-image"">
                    <div class=""question-area"">
                        <p style=""font-size: 20px; font-weight: bold; margin: 0;"">Is there a person in this image?</p>
                    </div>
                </div>","0","main_experiment_trial","3","flight_scheme","schematic_sequence","","","","",""
"","","","","","html-keyboard-response","86","271954","0.0-86.0","DDF9CC347F5D4544A341532EF7995E62","019cf7be-a08d-7c0e-be8b-7cca7a7985b6","019cf7bd-52b9-7f96-9138-a5960b400b31","","null","
                <div class=""stimulus-container"">
                    <img src=""images/schematic_sequence/flight_scheme/flight_scheme_4.png"" class=""exp-image"">
                    <div class=""question-area""></div> 
                </div>","null","","","","","","","","",""
"","","","","","html-button-response","87","272637","0.0-87.0","DDF9CC347F5D4544A341532EF7995E62","019cf7be-a08d-7c0e-be8b-7cca7a7985b6","019cf7bd-52b9-7f96-9138-a5960b400b31","","682","
                <div class=""stimulus-container"">
                    <img src=""images/schematic_sequence/flight_scheme/flight_scheme_4.png"" class=""exp-image"">
                    <div class=""question-area"">
                        <p style=""font-size: 20px; font-weight: bold; margin: 0;"">Is there a person in this image?</p>
                    </div>
                </div>","0","main_experiment_trial","4","flight_scheme","schematic_sequence","","","","",""
"","","","","","html-keyboard-response","88","277639","0.0-88.0","DDF9CC347F5D4544A341532EF7995E62","019cf7be-a08d-7c0e-be8b-7cca7a7985b6","019cf7bd-52b9-7f96-9138-a5960b400b31","","null","
                <div class=""stimulus-container"">
                    <img src=""images/schematic_sequence/flight_scheme/flight_scheme_5.png"" class=""exp-image"">
                    <div class=""question-area""></div> 
                </div>","null","","","","","","","","",""
"","","","","","html-button-response","89","278937","0.0-89.0","DDF9CC347F5D4544A341532EF7995E62","019cf7be-a08d-7c0e-be8b-7cca7a7985b6","019cf7bd-52b9-7f96-9138-a5960b400b31","","1297","
                <div class=""stimulus-container"">
                    <img src=""images/schematic_sequence/flight_scheme/flight_scheme_5.png"" class=""exp-image"">
                    <div class=""question-area"">
                        <p style=""font-size: 20px; font-weight: bold; margin: 0;"">Is there a person in this image?</p>
                    </div>
                </div>","0","main_experiment_trial","5","flight_scheme","schematic_sequence","","","","",""
"","","","","","html-keyboard-response","90","283939","0.0-90.0","DDF9CC347F5D4544A341532EF7995E62","019cf7be-a08d-7c0e-be8b-7cca7a7985b6","019cf7bd-52b9-7f96-9138-a5960b400b31","","null","
                <div class=""stimulus-container"">
                    <img src=""images/schematic_sequence/flight_scheme/flight_scheme_6.png"" class=""exp-image"">
                    <div class=""question-area""></div> 
                </div>","null","","","","","","","","",""
"","","","","","html-button-response","91","284736","0.0-91.0","DDF9CC347F5D4544A341532EF7995E62","019cf7be-a08d-7c0e-be8b-7cca7a7985b6","019cf7bd-52b9-7f96-9138-a5960b400b31","","796","
                <div class=""stimulus-container"">
                    <img src=""images/schematic_sequence/flight_scheme/flight_scheme_6.png"" class=""exp-image"">
                    <div class=""question-area"">
                        <p style=""font-size: 20px; font-weight: bold; margin: 0;"">Is there a person in this image?</p>
                    </div>
                </div>","1","main_experiment_trial","6","flight_scheme","schematic_sequence","","","","",""
"","","","","","html-keyboard-response","92","289738","0.0-92.0","DDF9CC347F5D4544A341532EF7995E62","019cf7be-a08d-7c0e-be8b-7cca7a7985b6","019cf7bd-52b9-7f96-9138-a5960b400b31","","null","
                <div class=""stimulus-container"">
                    <img src=""images/schematic_sequence/flight_scheme/flight_scheme_7.png"" class=""exp-image"">
                    <div class=""question-area""></div> 
                </div>","null","","","","","","","","",""
"","","","","","html-button-response","93","290620","0.0-93.0","DDF9CC347F5D4544A341532EF7995E62","019cf7be-a08d-7c0e-be8b-7cca7a7985b6","019cf7bd-52b9-7f96-9138-a5960b400b31","","880","
                <div class=""stimulus-container"">
                    <img src=""images/schematic_sequence/flight_scheme/flight_scheme_7.png"" class=""exp-image"">
                    <div class=""question-area"">
                        <p style=""font-size: 20px; font-weight: bold; margin: 0;"">Is there a person in this image?</p>
                    </div>
                </div>","1","main_experiment_trial","7","flight_scheme","schematic_sequence","","","","",""
"","","","","","html-keyboard-response","94","295623","0.0-94.0","DDF9CC347F5D4544A341532EF7995E62","019cf7be-a08d-7c0e-be8b-7cca7a7985b6","019cf7bd-52b9-7f96-9138-a5960b400b31","","null","
                <div class=""stimulus-container"">
                    <img src=""images/schematic_sequence/flight_scheme/flight_scheme_8.png"" class=""exp-image"">
                    <div class=""question-area""></div> 
                </div>","null","","","","","","","","",""
"","","","","","html-button-response","95","296453","0.0-95.0","DDF9CC347F5D4544A341532EF7995E62","019cf7be-a08d-7c0e-be8b-7cca7a7985b6","019cf7bd-52b9-7f96-9138-a5960b400b31","","829","
                <div class=""stimulus-container"">
                    <img src=""images/schematic_sequence/flight_scheme/flight_scheme_8.png"" class=""exp-image"">
                    <div class=""question-area"">
                        <p style=""font-size: 20px; font-weight: bold; margin: 0;"">Is there a person in this image?</p>
                    </div>
                </div>","1","main_experiment_trial","8","flight_scheme","schematic_sequence","","","","",""
"","","","","","html-keyboard-response","96","301454","0.0-96.0","DDF9CC347F5D4544A341532EF7995E62","019cf7be-a08d-7c0e-be8b-7cca7a7985b6","019cf7bd-52b9-7f96-9138-a5960b400b31","","null","
                <div class=""stimulus-container"">
                    <img src=""images/schematic_sequence/flight_scheme/flight_scheme_9.png"" class=""exp-image"">
                    <div class=""question-area""></div> 
                </div>","null","","","","","","","","",""
"","","","","","html-button-response","97","302288","0.0-97.0","DDF9CC347F5D4544A341532EF7995E62","019cf7be-a08d-7c0e-be8b-7cca7a7985b6","019cf7bd-52b9-7f96-9138-a5960b400b31","","832","
                <div class=""stimulus-container"">
                    <img src=""images/schematic_sequence/flight_scheme/flight_scheme_9.png"" class=""exp-image"">
                    <div class=""question-area"">
                        <p style=""font-size: 20px; font-weight: bold; margin: 0;"">Is there a person in this image?</p>
                    </div>
                </div>","0","main_experiment_trial","9","flight_scheme","schematic_sequence","","","","",""
"","","","","","html-keyboard-response","98","307290","0.0-98.0","DDF9CC347F5D4544A341532EF7995E62","019cf7be-a08d-7c0e-be8b-7cca7a7985b6","019cf7bd-52b9-7f96-9138-a5960b400b31","","null","
                <div class=""stimulus-container"">
                    <img src=""images/schematic_sequence/flight_scheme/flight_scheme_ten.png"" class=""exp-image"">
                    <div class=""question-area""></div> 
                </div>","null","","","","","","","","",""
"","","","","","html-button-response","99","308336","0.0-99.0","DDF9CC347F5D4544A341532EF7995E62","019cf7be-a08d-7c0e-be8b-7cca7a7985b6","019cf7bd-52b9-7f96-9138-a5960b400b31","","1045","
                <div class=""stimulus-container"">
                    <img src=""images/schematic_sequence/flight_scheme/flight_scheme_ten.png"" class=""exp-image"">
                    <div class=""question-area"">
                        <p style=""font-size: 20px; font-weight: bold; margin: 0;"">Is there a person in this image?</p>
                    </div>
                </div>","0","main_experiment_trial","ten","flight_scheme","schematic_sequence","","","","",""
"","","","","","html-keyboard-response","100","309337","0.0-100.0","DDF9CC347F5D4544A341532EF7995E62","019cf7be-a08d-7c0e-be8b-7cca7a7985b6","019cf7bd-52b9-7f96-9138-a5960b400b31","","null","<div style=""background-color: white; width: 100vw; height: 100vh;""></div>","null","","","","","","","","",""
"","","","","","html-keyboard-response","101","314338","0.0-101.0","DDF9CC347F5D4544A341532EF7995E62","019cf7be-a08d-7c0e-be8b-7cca7a7985b6","019cf7bd-52b9-7f96-9138-a5960b400b31","","null","
                <div class=""stimulus-container"">
                    <img src=""images/schematic_sequence/supermarket_scheme/supermarket_scheme_1.png"" class=""exp-image"">
                    <div class=""question-area""></div> 
                </div>","null","","","","","","","","",""
"","","","","","html-button-response","102","314885","0.0-102.0","DDF9CC347F5D4544A341532EF7995E62","019cf7be-a08d-7c0e-be8b-7cca7a7985b6","019cf7bd-52b9-7f96-9138-a5960b400b31","","546","
                <div class=""stimulus-container"">
                    <img src=""images/schematic_sequence/supermarket_scheme/supermarket_scheme_1.png"" class=""exp-image"">
                    <div class=""question-area"">
                        <p style=""font-size: 20px; font-weight: bold; margin: 0;"">Is there a person in this image?</p>
                    </div>
                </div>","1","main_experiment_trial","1","supermarket_scheme","schematic_sequence","","","","",""
"","","","","","html-keyboard-response","103","319886","0.0-103.0","DDF9CC347F5D4544A341532EF7995E62","019cf7be-a08d-7c0e-be8b-7cca7a7985b6","019cf7bd-52b9-7f96-9138-a5960b400b31","","null","
                <div class=""stimulus-container"">
                    <img src=""images/schematic_sequence/supermarket_scheme/supermarket_scheme_2.png"" class=""exp-image"">
                    <div class=""question-area""></div> 
                </div>","null","","","","","","","","",""
"","","","","","html-button-response","104","320769","0.0-104.0","DDF9CC347F5D4544A341532EF7995E62","019cf7be-a08d-7c0e-be8b-7cca7a7985b6","019cf7bd-52b9-7f96-9138-a5960b400b31","","882","
                <div class=""stimulus-container"">
                    <img src=""images/schematic_sequence/supermarket_scheme/supermarket_scheme_2.png"" class=""exp-image"">
                    <div class=""question-area"">
                        <p style=""font-size: 20px; font-weight: bold; margin: 0;"">Is there a person in this image?</p>
                    </div>
                </div>","1","main_experiment_trial","2","supermarket_scheme","schematic_sequence","","","","",""
"","","","","","html-keyboard-response","105","325771","0.0-105.0","DDF9CC347F5D4544A341532EF7995E62","019cf7be-a08d-7c0e-be8b-7cca7a7985b6","019cf7bd-52b9-7f96-9138-a5960b400b31","","null","
                <div class=""stimulus-container"">
                    <img src=""images/schematic_sequence/supermarket_scheme/supermarket_scheme_3.png"" class=""exp-image"">
                    <div class=""question-area""></div> 
                </div>","null","","","","","","","","",""
"","","","","","html-button-response","106","326286","0.0-106.0","DDF9CC347F5D4544A341532EF7995E62","019cf7be-a08d-7c0e-be8b-7cca7a7985b6","019cf7bd-52b9-7f96-9138-a5960b400b31","","514","
                <div class=""stimulus-container"">
                    <img src=""images/schematic_sequence/supermarket_scheme/supermarket_scheme_3.png"" class=""exp-image"">
                    <div class=""question-area"">
                        <p style=""font-size: 20px; font-weight: bold; margin: 0;"">Is there a person in this image?</p>
                    </div>
                </div>","1","main_experiment_trial","3","supermarket_scheme","schematic_sequence","","","","",""
"","","","","","html-keyboard-response","107","331288","0.0-107.0","DDF9CC347F5D4544A341532EF7995E62","019cf7be-a08d-7c0e-be8b-7cca7a7985b6","019cf7bd-52b9-7f96-9138-a5960b400b31","","null","
                <div class=""stimulus-container"">
                    <img src=""images/schematic_sequence/supermarket_scheme/supermarket_scheme_4.png"" class=""exp-image"">
                    <div class=""question-area""></div> 
                </div>","null","","","","","","","","",""
"","","","","","html-button-response","108","334290","0.0-108.0","DDF9CC347F5D4544A341532EF7995E62","019cf7be-a08d-7c0e-be8b-7cca7a7985b6","019cf7bd-52b9-7f96-9138-a5960b400b31","","null","
                <div class=""stimulus-container"">
                    <img src=""images/schematic_sequence/supermarket_scheme/supermarket_scheme_4.png"" class=""exp-image"">
                    <div class=""question-area"">
                        <p style=""font-size: 20px; font-weight: bold; margin: 0;"">Is there a person in this image?</p>
                    </div>
                </div>","null","main_experiment_trial","4","supermarket_scheme","schematic_sequence","","","","",""
"","","","","","html-keyboard-response","109","339291","0.0-109.0","DDF9CC347F5D4544A341532EF7995E62","019cf7be-a08d-7c0e-be8b-7cca7a7985b6","019cf7bd-52b9-7f96-9138-a5960b400b31","","null","
                <div class=""stimulus-container"">
                    <img src=""images/schematic_sequence/supermarket_scheme/supermarket_scheme_5.png"" class=""exp-image"">
                    <div class=""question-area""></div> 
                </div>","null","","","","","","","","",""
"","","","","","html-button-response","110","339753","0.0-110.0","DDF9CC347F5D4544A341532EF7995E62","019cf7be-a08d-7c0e-be8b-7cca7a7985b6","019cf7bd-52b9-7f96-9138-a5960b400b31","","461","
                <div class=""stimulus-container"">
                    <img src=""images/schematic_sequence/supermarket_scheme/supermarket_scheme_5.png"" class=""exp-image"">
                    <div class=""question-area"">
                        <p style=""font-size: 20px; font-weight: bold; margin: 0;"">Is there a person in this image?</p>
                    </div>
                </div>","1","main_experiment_trial","5","supermarket_scheme","schematic_sequence","","","","",""
"","","","","","html-keyboard-response","111","344755","0.0-111.0","DDF9CC347F5D4544A341532EF7995E62","019cf7be-a08d-7c0e-be8b-7cca7a7985b6","019cf7bd-52b9-7f96-9138-a5960b400b31","","null","
                <div class=""stimulus-container"">
                    <img src=""images/schematic_sequence/supermarket_scheme/supermarket_scheme_6.png"" class=""exp-image"">
                    <div class=""question-area""></div> 
                </div>","null","","","","","","","","",""
"","","","","","html-button-response","112","347449","0.0-112.0","DDF9CC347F5D4544A341532EF7995E62","019cf7be-a08d-7c0e-be8b-7cca7a7985b6","019cf7bd-52b9-7f96-9138-a5960b400b31","","2680","
                <div class=""stimulus-container"">
                    <img src=""images/schematic_sequence/supermarket_scheme/supermarket_scheme_6.png"" class=""exp-image"">
                    <div class=""question-area"">
                        <p style=""font-size: 20px; font-weight: bold; margin: 0;"">Is there a person in this image?</p>
                    </div>
                </div>","0","main_experiment_trial","6","supermarket_scheme","schematic_sequence","","","","",""
"","","","","","html-keyboard-response","113","352458","0.0-113.0","DDF9CC347F5D4544A341532EF7995E62","019cf7be-a08d-7c0e-be8b-7cca7a7985b6","019cf7bd-52b9-7f96-9138-a5960b400b31","","null","
                <div class=""stimulus-container"">
                    <img src=""images/schematic_sequence/supermarket_scheme/supermarket_scheme_7.png"" class=""exp-image"">
                    <div class=""question-area""></div> 
                </div>","null","","","","","","","","",""
"","","","","","html-button-response","114","355461","0.0-114.0","DDF9CC347F5D4544A341532EF7995E62","019cf7be-a08d-7c0e-be8b-7cca7a7985b6","019cf7bd-52b9-7f96-9138-a5960b400b31","","null","
                <div class=""stimulus-container"">
                    <img src=""images/schematic_sequence/supermarket_scheme/supermarket_scheme_7.png"" class=""exp-image"">
                    <div class=""question-area"">
                        <p style=""font-size: 20px; font-weight: bold; margin: 0;"">Is there a person in this image?</p>
                    </div>
                </div>","null","main_experiment_trial","7","supermarket_scheme","schematic_sequence","","","","",""
"","","","","","html-keyboard-response","115","360464","0.0-115.0","DDF9CC347F5D4544A341532EF7995E62","019cf7be-a08d-7c0e-be8b-7cca7a7985b6","019cf7bd-52b9-7f96-9138-a5960b400b31","","null","
                <div class=""stimulus-container"">
                    <img src=""images/schematic_sequence/supermarket_scheme/supermarket_scheme_8.png"" class=""exp-image"">
                    <div class=""question-area""></div> 
                </div>","null","","","","","","","","",""
"","","","","","html-button-response","116","361171","0.0-116.0","DDF9CC347F5D4544A341532EF7995E62","019cf7be-a08d-7c0e-be8b-7cca7a7985b6","019cf7bd-52b9-7f96-9138-a5960b400b31","","700","
                <div class=""stimulus-container"">
                    <img src=""images/schematic_sequence/supermarket_scheme/supermarket_scheme_8.png"" class=""exp-image"">
                    <div class=""question-area"">
                        <p style=""font-size: 20px; font-weight: bold; margin: 0;"">Is there a person in this image?</p>
                    </div>
                </div>","0","main_experiment_trial","8","supermarket_scheme","schematic_sequence","","","","",""
"","","","","","html-keyboard-response","117","366175","0.0-117.0","DDF9CC347F5D4544A341532EF7995E62","019cf7be-a08d-7c0e-be8b-7cca7a7985b6","019cf7bd-52b9-7f96-9138-a5960b400b31","","null","
                <div class=""stimulus-container"">
                    <img src=""images/schematic_sequence/supermarket_scheme/supermarket_scheme_9.png"" class=""exp-image"">
                    <div class=""question-area""></div> 
                </div>","null","","","","","","","","",""
"","","","","","html-button-response","118","368269","0.0-118.0","DDF9CC347F5D4544A341532EF7995E62","019cf7be-a08d-7c0e-be8b-7cca7a7985b6","019cf7bd-52b9-7f96-9138-a5960b400b31","","2094","
                <div class=""stimulus-container"">
                    <img src=""images/schematic_sequence/supermarket_scheme/supermarket_scheme_9.png"" class=""exp-image"">
                    <div class=""question-area"">
                        <p style=""font-size: 20px; font-weight: bold; margin: 0;"">Is there a person in this image?</p>
                    </div>
                </div>","0","main_experiment_trial","9","supermarket_scheme","schematic_sequence","","","","",""
"","","","","","html-keyboard-response","119","373272","0.0-119.0","DDF9CC347F5D4544A341532EF7995E62","019cf7be-a08d-7c0e-be8b-7cca7a7985b6","019cf7bd-52b9-7f96-9138-a5960b400b31","","null","
                <div class=""stimulus-container"">
                    <img src=""images/schematic_sequence/supermarket_scheme/supermarket_scheme_ten.png"" class=""exp-image"">
                    <div class=""question-area""></div> 
                </div>","null","","","","","","","","",""
"","","","","","html-button-response","120","374653","0.0-120.0","DDF9CC347F5D4544A341532EF7995E62","019cf7be-a08d-7c0e-be8b-7cca7a7985b6","019cf7bd-52b9-7f96-9138-a5960b400b31","","1379","
                <div class=""stimulus-container"">
                    <img src=""images/schematic_sequence/supermarket_scheme/supermarket_scheme_ten.png"" class=""exp-image"">
                    <div class=""question-area"">
                        <p style=""font-size: 20px; font-weight: bold; margin: 0;"">Is there a person in this image?</p>
                    </div>
                </div>","1","main_experiment_trial","ten","supermarket_scheme","schematic_sequence","","","","",""
"","","","","","html-keyboard-response","121","375654","0.0-121.0","DDF9CC347F5D4544A341532EF7995E62","019cf7be-a08d-7c0e-be8b-7cca7a7985b6","019cf7bd-52b9-7f96-9138-a5960b400b31","","null","<div style=""background-color: white; width: 100vw; height: 100vh;""></div>","null","","","","","","","","",""
"","","","","","html-keyboard-response","122","380657","0.0-122.0","DDF9CC347F5D4544A341532EF7995E62","019cf7be-a08d-7c0e-be8b-7cca7a7985b6","019cf7bd-52b9-7f96-9138-a5960b400b31","","null","
                <div class=""stimulus-container"">
                    <img src=""images/schematic_sequence/hotel_scheme/hotel_scheme_1.png"" class=""exp-image"">
                    <div class=""question-area""></div> 
                </div>","null","","","","","","","","",""
"","","","","","html-button-response","123","382036","0.0-123.0","DDF9CC347F5D4544A341532EF7995E62","019cf7be-a08d-7c0e-be8b-7cca7a7985b6","019cf7bd-52b9-7f96-9138-a5960b400b31","","1378","
                <div class=""stimulus-container"">
                    <img src=""images/schematic_sequence/hotel_scheme/hotel_scheme_1.png"" class=""exp-image"">
                    <div class=""question-area"">
                        <p style=""font-size: 20px; font-weight: bold; margin: 0;"">Is there a person in this image?</p>
                    </div>
                </div>","1","main_experiment_trial","1","hotel_scheme","schematic_sequence","","","","",""
"","","","","","html-keyboard-response","124","387038","0.0-124.0","DDF9CC347F5D4544A341532EF7995E62","019cf7be-a08d-7c0e-be8b-7cca7a7985b6","019cf7bd-52b9-7f96-9138-a5960b400b31","","null","
                <div class=""stimulus-container"">
                    <img src=""images/schematic_sequence/hotel_scheme/hotel_scheme_2.png"" class=""exp-image"">
                    <div class=""question-area""></div> 
                </div>","null","","","","","","","","",""
"","","","","","html-button-response","125","387918","0.0-125.0","DDF9CC347F5D4544A341532EF7995E62","019cf7be-a08d-7c0e-be8b-7cca7a7985b6","019cf7bd-52b9-7f96-9138-a5960b400b31","","879","
                <div class=""stimulus-container"">
                    <img src=""images/schematic_sequence/hotel_scheme/hotel_scheme_2.png"" class=""exp-image"">
                    <div class=""question-area"">
                        <p style=""font-size: 20px; font-weight: bold; margin: 0;"">Is there a person in this image?</p>
                    </div>
                </div>","0","main_experiment_trial","2","hotel_scheme","schematic_sequence","","","","",""
"","","","","","html-keyboard-response","126","392920","0.0-126.0","DDF9CC347F5D4544A341532EF7995E62","019cf7be-a08d-7c0e-be8b-7cca7a7985b6","019cf7bd-52b9-7f96-9138-a5960b400b31","","null","
                <div class=""stimulus-container"">
                    <img src=""images/schematic_sequence/hotel_scheme/hotel_scheme_3.png"" class=""exp-image"">
                    <div class=""question-area""></div> 
                </div>","null","","","","","","","","",""
"","","","","","html-button-response","127","395922","0.0-127.0","DDF9CC347F5D4544A341532EF7995E62","019cf7be-a08d-7c0e-be8b-7cca7a7985b6","019cf7bd-52b9-7f96-9138-a5960b400b31","","null","
                <div class=""stimulus-container"">
                    <img src=""images/schematic_sequence/hotel_scheme/hotel_scheme_3.png"" class=""exp-image"">
                    <div class=""question-area"">
                        <p style=""font-size: 20px; font-weight: bold; margin: 0;"">Is there a person in this image?</p>
                    </div>
                </div>","null","main_experiment_trial","3","hotel_scheme","schematic_sequence","","","","",""
"","","","","","html-keyboard-response","128","400925","0.0-128.0","DDF9CC347F5D4544A341532EF7995E62","019cf7be-a08d-7c0e-be8b-7cca7a7985b6","019cf7bd-52b9-7f96-9138-a5960b400b31","","null","
                <div class=""stimulus-container"">
                    <img src=""images/schematic_sequence/hotel_scheme/hotel_scheme_4.png"" class=""exp-image"">
                    <div class=""question-area""></div> 
                </div>","null","","","","","","","","",""
"","","","","","html-button-response","129","401702","0.0-129.0","DDF9CC347F5D4544A341532EF7995E62","019cf7be-a08d-7c0e-be8b-7cca7a7985b6","019cf7bd-52b9-7f96-9138-a5960b400b31","","775","
                <div class=""stimulus-container"">
                    <img src=""images/schematic_sequence/hotel_scheme/hotel_scheme_4.png"" class=""exp-image"">
                    <div class=""question-area"">
                        <p style=""font-size: 20px; font-weight: bold; margin: 0;"">Is there a person in this image?</p>
                    </div>
                </div>","1","main_experiment_trial","4","hotel_scheme","schematic_sequence","","","","",""
"","","","","","html-keyboard-response","130","406706","0.0-130.0","DDF9CC347F5D4544A341532EF7995E62","019cf7be-a08d-7c0e-be8b-7cca7a7985b6","019cf7bd-52b9-7f96-9138-a5960b400b31","","null","
                <div class=""stimulus-container"">
                    <img src=""images/schematic_sequence/hotel_scheme/hotel_scheme_5.png"" class=""exp-image"">
                    <div class=""question-area""></div> 
                </div>","null","","","","","","","","",""
"","","","","","html-button-response","131","407422","0.0-131.0","DDF9CC347F5D4544A341532EF7995E62","019cf7be-a08d-7c0e-be8b-7cca7a7985b6","019cf7bd-52b9-7f96-9138-a5960b400b31","","715","
                <div class=""stimulus-container"">
                    <img src=""images/schematic_sequence/hotel_scheme/hotel_scheme_5.png"" class=""exp-image"">
                    <div class=""question-area"">
                        <p style=""font-size: 20px; font-weight: bold; margin: 0;"">Is there a person in this image?</p>
                    </div>
                </div>","0","main_experiment_trial","5","hotel_scheme","schematic_sequence","","","","",""
"","","","","","html-keyboard-response","132","412426","0.0-132.0","DDF9CC347F5D4544A341532EF7995E62","019cf7be-a08d-7c0e-be8b-7cca7a7985b6","019cf7bd-52b9-7f96-9138-a5960b400b31","","null","
                <div class=""stimulus-container"">
                    <img src=""images/schematic_sequence/hotel_scheme/hotel_scheme_6.png"" class=""exp-image"">
                    <div class=""question-area""></div> 
                </div>","null","","","","","","","","",""
"","","","","","html-button-response","133","412939","0.0-133.0","DDF9CC347F5D4544A341532EF7995E62","019cf7be-a08d-7c0e-be8b-7cca7a7985b6","019cf7bd-52b9-7f96-9138-a5960b400b31","","511","
                <div class=""stimulus-container"">
                    <img src=""images/schematic_sequence/hotel_scheme/hotel_scheme_6.png"" class=""exp-image"">
                    <div class=""question-area"">
                        <p style=""font-size: 20px; font-weight: bold; margin: 0;"">Is there a person in this image?</p>
                    </div>
                </div>","0","main_experiment_trial","6","hotel_scheme","schematic_sequence","","","","",""
"","","","","","html-keyboard-response","134","417941","0.0-134.0","DDF9CC347F5D4544A341532EF7995E62","019cf7be-a08d-7c0e-be8b-7cca7a7985b6","019cf7bd-52b9-7f96-9138-a5960b400b31","","null","
                <div class=""stimulus-container"">
                    <img src=""images/schematic_sequence/hotel_scheme/hotel_scheme_7.png"" class=""exp-image"">
                    <div class=""question-area""></div> 
                </div>","null","","","","","","","","",""
"","","","","","html-button-response","135","418441","0.0-135.0","DDF9CC347F5D4544A341532EF7995E62","019cf7be-a08d-7c0e-be8b-7cca7a7985b6","019cf7bd-52b9-7f96-9138-a5960b400b31","","499","
                <div class=""stimulus-container"">
                    <img src=""images/schematic_sequence/hotel_scheme/hotel_scheme_7.png"" class=""exp-image"">
                    <div class=""question-area"">
                        <p style=""font-size: 20px; font-weight: bold; margin: 0;"">Is there a person in this image?</p>
                    </div>
                </div>","0","main_experiment_trial","7","hotel_scheme","schematic_sequence","","","","",""
"","","","","","html-keyboard-response","136","423445","0.0-136.0","DDF9CC347F5D4544A341532EF7995E62","019cf7be-a08d-7c0e-be8b-7cca7a7985b6","019cf7bd-52b9-7f96-9138-a5960b400b31","","null","
                <div class=""stimulus-container"">
                    <img src=""images/schematic_sequence/hotel_scheme/hotel_scheme_8.png"" class=""exp-image"">
                    <div class=""question-area""></div> 
                </div>","null","","","","","","","","",""
"","","","","","html-button-response","137","424026","0.0-137.0","DDF9CC347F5D4544A341532EF7995E62","019cf7be-a08d-7c0e-be8b-7cca7a7985b6","019cf7bd-52b9-7f96-9138-a5960b400b31","","580","
                <div class=""stimulus-container"">
                    <img src=""images/schematic_sequence/hotel_scheme/hotel_scheme_8.png"" class=""exp-image"">
                    <div class=""question-area"">
                        <p style=""font-size: 20px; font-weight: bold; margin: 0;"">Is there a person in this image?</p>
                    </div>
                </div>","0","main_experiment_trial","8","hotel_scheme","schematic_sequence","","","","",""
"","","","","","html-keyboard-response","138","429029","0.0-138.0","DDF9CC347F5D4544A341532EF7995E62","019cf7be-a08d-7c0e-be8b-7cca7a7985b6","019cf7bd-52b9-7f96-9138-a5960b400b31","","null","
                <div class=""stimulus-container"">
                    <img src=""images/schematic_sequence/hotel_scheme/hotel_scheme_9.png"" class=""exp-image"">
                    <div class=""question-area""></div> 
                </div>","null","","","","","","","","",""
"","","","","","html-button-response","139","430125","0.0-139.0","DDF9CC347F5D4544A341532EF7995E62","019cf7be-a08d-7c0e-be8b-7cca7a7985b6","019cf7bd-52b9-7f96-9138-a5960b400b31","","1095","
                <div class=""stimulus-container"">
                    <img src=""images/schematic_sequence/hotel_scheme/hotel_scheme_9.png"" class=""exp-image"">
                    <div class=""question-area"">
                        <p style=""font-size: 20px; font-weight: bold; margin: 0;"">Is there a person in this image?</p>
                    </div>
                </div>","0","main_experiment_trial","9","hotel_scheme","schematic_sequence","","","","",""
"","","","","","html-keyboard-response","140","435127","0.0-140.0","DDF9CC347F5D4544A341532EF7995E62","019cf7be-a08d-7c0e-be8b-7cca7a7985b6","019cf7bd-52b9-7f96-9138-a5960b400b31","","null","
                <div class=""stimulus-container"">
                    <img src=""images/schematic_sequence/hotel_scheme/hotel_scheme_ten.png"" class=""exp-image"">
                    <div class=""question-area""></div> 
                </div>","null","","","","","","","","",""
"","","","","","html-button-response","141","435625","0.0-141.0","DDF9CC347F5D4544A341532EF7995E62","019cf7be-a08d-7c0e-be8b-7cca7a7985b6","019cf7bd-52b9-7f96-9138-a5960b400b31","","497","
                <div class=""stimulus-container"">
                    <img src=""images/schematic_sequence/hotel_scheme/hotel_scheme_ten.png"" class=""exp-image"">
                    <div class=""question-area"">
                        <p style=""font-size: 20px; font-weight: bold; margin: 0;"">Is there a person in this image?</p>
                    </div>
                </div>","0","main_experiment_trial","ten","hotel_scheme","schematic_sequence","","","","",""
"","","","","","html-keyboard-response","142","436626","0.0-142.0","DDF9CC347F5D4544A341532EF7995E62","019cf7be-a08d-7c0e-be8b-7cca7a7985b6","019cf7bd-52b9-7f96-9138-a5960b400b31","","null","<div style=""background-color: white; width: 100vw; height: 100vh;""></div>","null","","","","","","","","",""
"","","","","","html-keyboard-response","143","441628","0.0-143.0","DDF9CC347F5D4544A341532EF7995E62","019cf7be-a08d-7c0e-be8b-7cca7a7985b6","019cf7bd-52b9-7f96-9138-a5960b400b31","","null","
                <div class=""stimulus-container"">
                    <img src=""images/schematic_sequence/restaurant_scheme/restaurant_scheme_1.png"" class=""exp-image"">
                    <div class=""question-area""></div> 
                </div>","null","","","","","","","","",""
"","","","","","html-button-response","144","442109","0.0-144.0","DDF9CC347F5D4544A341532EF7995E62","019cf7be-a08d-7c0e-be8b-7cca7a7985b6","019cf7bd-52b9-7f96-9138-a5960b400b31","","479","
                <div class=""stimulus-container"">
                    <img src=""images/schematic_sequence/restaurant_scheme/restaurant_scheme_1.png"" class=""exp-image"">
                    <div class=""question-area"">
                        <p style=""font-size: 20px; font-weight: bold; margin: 0;"">Is there a person in this image?</p>
                    </div>
                </div>","0","main_experiment_trial","1","restaurant_scheme","schematic_sequence","","","","",""
"","","","","","html-keyboard-response","145","447111","0.0-145.0","DDF9CC347F5D4544A341532EF7995E62","019cf7be-a08d-7c0e-be8b-7cca7a7985b6","019cf7bd-52b9-7f96-9138-a5960b400b31","","null","
                <div class=""stimulus-container"">
                    <img src=""images/schematic_sequence/restaurant_scheme/restaurant_scheme_2.png"" class=""exp-image"">
                    <div class=""question-area""></div> 
                </div>","null","","","","","","","","",""
"","","","","","html-button-response","146","447594","0.0-146.0","DDF9CC347F5D4544A341532EF7995E62","019cf7be-a08d-7c0e-be8b-7cca7a7985b6","019cf7bd-52b9-7f96-9138-a5960b400b31","","482","
                <div class=""stimulus-container"">
                    <img src=""images/schematic_sequence/restaurant_scheme/restaurant_scheme_2.png"" class=""exp-image"">
                    <div class=""question-area"">
                        <p style=""font-size: 20px; font-weight: bold; margin: 0;"">Is there a person in this image?</p>
                    </div>
                </div>","1","main_experiment_trial","2","restaurant_scheme","schematic_sequence","","","","",""
"","","","","","html-keyboard-response","147","452597","0.0-147.0","DDF9CC347F5D4544A341532EF7995E62","019cf7be-a08d-7c0e-be8b-7cca7a7985b6","019cf7bd-52b9-7f96-9138-a5960b400b31","","null","
                <div class=""stimulus-container"">
                    <img src=""images/schematic_sequence/restaurant_scheme/restaurant_scheme_3.png"" class=""exp-image"">
                    <div class=""question-area""></div> 
                </div>","null","","","","","","","","",""
"","","","","","html-button-response","148","454393","0.0-148.0","DDF9CC347F5D4544A341532EF7995E62","019cf7be-a08d-7c0e-be8b-7cca7a7985b6","019cf7bd-52b9-7f96-9138-a5960b400b31","","1795","
                <div class=""stimulus-container"">
                    <img src=""images/schematic_sequence/restaurant_scheme/restaurant_scheme_3.png"" class=""exp-image"">
                    <div class=""question-area"">
                        <p style=""font-size: 20px; font-weight: bold; margin: 0;"">Is there a person in this image?</p>
                    </div>
                </div>","1","main_experiment_trial","3","restaurant_scheme","schematic_sequence","","","","",""
"","","","","","html-keyboard-response","149","459395","0.0-149.0","DDF9CC347F5D4544A341532EF7995E62","019cf7be-a08d-7c0e-be8b-7cca7a7985b6","019cf7bd-52b9-7f96-9138-a5960b400b31","","null","
                <div class=""stimulus-container"">
                    <img src=""images/schematic_sequence/restaurant_scheme/restaurant_scheme_4.png"" class=""exp-image"">
                    <div class=""question-area""></div> 
                </div>","null","","","","","","","","",""
"","","","","","html-button-response","150","460409","0.0-150.0","DDF9CC347F5D4544A341532EF7995E62","019cf7be-a08d-7c0e-be8b-7cca7a7985b6","019cf7bd-52b9-7f96-9138-a5960b400b31","","1013","
                <div class=""stimulus-container"">
                    <img src=""images/schematic_sequence/restaurant_scheme/restaurant_scheme_4.png"" class=""exp-image"">
                    <div class=""question-area"">
                        <p style=""font-size: 20px; font-weight: bold; margin: 0;"">Is there a person in this image?</p>
                    </div>
                </div>","0","main_experiment_trial","4","restaurant_scheme","schematic_sequence","","","","",""
"","","","","","html-keyboard-response","151","465411","0.0-151.0","DDF9CC347F5D4544A341532EF7995E62","019cf7be-a08d-7c0e-be8b-7cca7a7985b6","019cf7bd-52b9-7f96-9138-a5960b400b31","","null","
                <div class=""stimulus-container"">
                    <img src=""images/schematic_sequence/restaurant_scheme/restaurant_scheme_5.png"" class=""exp-image"">
                    <div class=""question-area""></div> 
                </div>","null","","","","","","","","",""
"","","","","","html-button-response","152","466127","0.0-152.0","DDF9CC347F5D4544A341532EF7995E62","019cf7be-a08d-7c0e-be8b-7cca7a7985b6","019cf7bd-52b9-7f96-9138-a5960b400b31","","715","
                <div class=""stimulus-container"">
                    <img src=""images/schematic_sequence/restaurant_scheme/restaurant_scheme_5.png"" class=""exp-image"">
                    <div class=""question-area"">
                        <p style=""font-size: 20px; font-weight: bold; margin: 0;"">Is there a person in this image?</p>
                    </div>
                </div>","0","main_experiment_trial","5","restaurant_scheme","schematic_sequence","","","","",""
"","","","","","html-keyboard-response","153","471129","0.0-153.0","DDF9CC347F5D4544A341532EF7995E62","019cf7be-a08d-7c0e-be8b-7cca7a7985b6","019cf7bd-52b9-7f96-9138-a5960b400b31","","null","
                <div class=""stimulus-container"">
                    <img src=""images/schematic_sequence/restaurant_scheme/restaurant_scheme_6.png"" class=""exp-image"">
                    <div class=""question-area""></div> 
                </div>","null","","","","","","","","",""
"","","","","","html-button-response","154","471959","0.0-154.0","DDF9CC347F5D4544A341532EF7995E62","019cf7be-a08d-7c0e-be8b-7cca7a7985b6","019cf7bd-52b9-7f96-9138-a5960b400b31","","828","
                <div class=""stimulus-container"">
                    <img src=""images/schematic_sequence/restaurant_scheme/restaurant_scheme_6.png"" class=""exp-image"">
                    <div class=""question-area"">
                        <p style=""font-size: 20px; font-weight: bold; margin: 0;"">Is there a person in this image?</p>
                    </div>
                </div>","1","main_experiment_trial","6","restaurant_scheme","schematic_sequence","","","","",""
"","","","","","html-keyboard-response","155","476962","0.0-155.0","DDF9CC347F5D4544A341532EF7995E62","019cf7be-a08d-7c0e-be8b-7cca7a7985b6","019cf7bd-52b9-7f96-9138-a5960b400b31","","null","
                <div class=""stimulus-container"">
                    <img src=""images/schematic_sequence/restaurant_scheme/restaurant_scheme_7.png"" class=""exp-image"">
                    <div class=""question-area""></div> 
                </div>","null","","","","","","","","",""
"","","","","","html-button-response","156","477927","0.0-156.0","DDF9CC347F5D4544A341532EF7995E62","019cf7be-a08d-7c0e-be8b-7cca7a7985b6","019cf7bd-52b9-7f96-9138-a5960b400b31","","964","
                <div class=""stimulus-container"">
                    <img src=""images/schematic_sequence/restaurant_scheme/restaurant_scheme_7.png"" class=""exp-image"">
                    <div class=""question-area"">
                        <p style=""font-size: 20px; font-weight: bold; margin: 0;"">Is there a person in this image?</p>
                    </div>
                </div>","1","main_experiment_trial","7","restaurant_scheme","schematic_sequence","","","","",""
"","","","","","html-keyboard-response","157","482929","0.0-157.0","DDF9CC347F5D4544A341532EF7995E62","019cf7be-a08d-7c0e-be8b-7cca7a7985b6","019cf7bd-52b9-7f96-9138-a5960b400b31","","null","
                <div class=""stimulus-container"">
                    <img src=""images/schematic_sequence/restaurant_scheme/restaurant_scheme_8.png"" class=""exp-image"">
                    <div class=""question-area""></div> 
                </div>","null","","","","","","","","",""
"","","","","","html-button-response","158","483793","0.0-158.0","DDF9CC347F5D4544A341532EF7995E62","019cf7be-a08d-7c0e-be8b-7cca7a7985b6","019cf7bd-52b9-7f96-9138-a5960b400b31","","863","
                <div class=""stimulus-container"">
                    <img src=""images/schematic_sequence/restaurant_scheme/restaurant_scheme_8.png"" class=""exp-image"">
                    <div class=""question-area"">
                        <p style=""font-size: 20px; font-weight: bold; margin: 0;"">Is there a person in this image?</p>
                    </div>
                </div>","1","main_experiment_trial","8","restaurant_scheme","schematic_sequence","","","","",""
"","","","","","html-keyboard-response","159","488795","0.0-159.0","DDF9CC347F5D4544A341532EF7995E62","019cf7be-a08d-7c0e-be8b-7cca7a7985b6","019cf7bd-52b9-7f96-9138-a5960b400b31","","null","
                <div class=""stimulus-container"">
                    <img src=""images/schematic_sequence/restaurant_scheme/restaurant_scheme_9.png"" class=""exp-image"">
                    <div class=""question-area""></div> 
                </div>","null","","","","","","","","",""
"","","","","","html-button-response","160","489259","0.0-160.0","DDF9CC347F5D4544A341532EF7995E62","019cf7be-a08d-7c0e-be8b-7cca7a7985b6","019cf7bd-52b9-7f96-9138-a5960b400b31","","462","
                <div class=""stimulus-container"">
                    <img src=""images/schematic_sequence/restaurant_scheme/restaurant_scheme_9.png"" class=""exp-image"">
                    <div class=""question-area"">
                        <p style=""font-size: 20px; font-weight: bold; margin: 0;"">Is there a person in this image?</p>
                    </div>
                </div>","0","main_experiment_trial","9","restaurant_scheme","schematic_sequence","","","","",""
"","","","","","html-keyboard-response","161","494260","0.0-161.0","DDF9CC347F5D4544A341532EF7995E62","019cf7be-a08d-7c0e-be8b-7cca7a7985b6","019cf7bd-52b9-7f96-9138-a5960b400b31","","null","
                <div class=""stimulus-container"">
                    <img src=""images/schematic_sequence/restaurant_scheme/restaurant_scheme_ten.png"" class=""exp-image"">
                    <div class=""question-area""></div> 
                </div>","null","","","","","","","","",""
"","","","","","html-button-response","162","494693","0.0-162.0","DDF9CC347F5D4544A341532EF7995E62","019cf7be-a08d-7c0e-be8b-7cca7a7985b6","019cf7bd-52b9-7f96-9138-a5960b400b31","","431","
                <div class=""stimulus-container"">
                    <img src=""images/schematic_sequence/restaurant_scheme/restaurant_scheme_ten.png"" class=""exp-image"">
                    <div class=""question-area"">
                        <p style=""font-size: 20px; font-weight: bold; margin: 0;"">Is there a person in this image?</p>
                    </div>
                </div>","0","main_experiment_trial","ten","restaurant_scheme","schematic_sequence","","","","",""
"","","","","","html-keyboard-response","163","495693","0.0-163.0","DDF9CC347F5D4544A341532EF7995E62","019cf7be-a08d-7c0e-be8b-7cca7a7985b6","019cf7bd-52b9-7f96-9138-a5960b400b31","","null","<div style=""background-color: white; width: 100vw; height: 100vh;""></div>","null","","","","","","","","",""
"","","","","","html-keyboard-response","164","500696","0.0-164.0","DDF9CC347F5D4544A341532EF7995E62","019cf7be-a08d-7c0e-be8b-7cca7a7985b6","019cf7bd-52b9-7f96-9138-a5960b400b31","","null","
                <div class=""stimulus-container"">
                    <img src=""images/schematic_sequence/interview_scheme/interview_scheme_1.png"" class=""exp-image"">
                    <div class=""question-area""></div> 
                </div>","null","","","","","","","","",""
"","","","","","html-button-response","165","501393","0.0-165.0","DDF9CC347F5D4544A341532EF7995E62","019cf7be-a08d-7c0e-be8b-7cca7a7985b6","019cf7bd-52b9-7f96-9138-a5960b400b31","","696","
                <div class=""stimulus-container"">
                    <img src=""images/schematic_sequence/interview_scheme/interview_scheme_1.png"" class=""exp-image"">
                    <div class=""question-area"">
                        <p style=""font-size: 20px; font-weight: bold; margin: 0;"">Is there a person in this image?</p>
                    </div>
                </div>","1","main_experiment_trial","1","interview_scheme","schematic_sequence","","","","",""
"","","","","","html-keyboard-response","166","506395","0.0-166.0","DDF9CC347F5D4544A341532EF7995E62","019cf7be-a08d-7c0e-be8b-7cca7a7985b6","019cf7bd-52b9-7f96-9138-a5960b400b31","","null","
                <div class=""stimulus-container"">
                    <img src=""images/schematic_sequence/interview_scheme/interview_scheme_2.png"" class=""exp-image"">
                    <div class=""question-area""></div> 
                </div>","null","","","","","","","","",""
"","","","","","html-button-response","167","507258","0.0-167.0","DDF9CC347F5D4544A341532EF7995E62","019cf7be-a08d-7c0e-be8b-7cca7a7985b6","019cf7bd-52b9-7f96-9138-a5960b400b31","","863","
                <div class=""stimulus-container"">
                    <img src=""images/schematic_sequence/interview_scheme/interview_scheme_2.png"" class=""exp-image"">
                    <div class=""question-area"">
                        <p style=""font-size: 20px; font-weight: bold; margin: 0;"">Is there a person in this image?</p>
                    </div>
                </div>","1","main_experiment_trial","2","interview_scheme","schematic_sequence","","","","",""
"","","","","","html-keyboard-response","168","512258","0.0-168.0","DDF9CC347F5D4544A341532EF7995E62","019cf7be-a08d-7c0e-be8b-7cca7a7985b6","019cf7bd-52b9-7f96-9138-a5960b400b31","","null","
                <div class=""stimulus-container"">
                    <img src=""images/schematic_sequence/interview_scheme/interview_scheme_3.png"" class=""exp-image"">
                    <div class=""question-area""></div> 
                </div>","null","","","","","","","","",""
"","","","","","html-button-response","169","513010","0.0-169.0","DDF9CC347F5D4544A341532EF7995E62","019cf7be-a08d-7c0e-be8b-7cca7a7985b6","019cf7bd-52b9-7f96-9138-a5960b400b31","","751","
                <div class=""stimulus-container"">
                    <img src=""images/schematic_sequence/interview_scheme/interview_scheme_3.png"" class=""exp-image"">
                    <div class=""question-area"">
                        <p style=""font-size: 20px; font-weight: bold; margin: 0;"">Is there a person in this image?</p>
                    </div>
                </div>","1","main_experiment_trial","3","interview_scheme","schematic_sequence","","","","",""
"","","","","","html-keyboard-response","170","518013","0.0-170.0","DDF9CC347F5D4544A341532EF7995E62","019cf7be-a08d-7c0e-be8b-7cca7a7985b6","019cf7bd-52b9-7f96-9138-a5960b400b31","","null","
                <div class=""stimulus-container"">
                    <img src=""images/schematic_sequence/interview_scheme/interview_scheme_4.png"" class=""exp-image"">
                    <div class=""question-area""></div> 
                </div>","null","","","","","","","","",""
"","","","","","html-button-response","171","518477","0.0-171.0","DDF9CC347F5D4544A341532EF7995E62","019cf7be-a08d-7c0e-be8b-7cca7a7985b6","019cf7bd-52b9-7f96-9138-a5960b400b31","","463","
                <div class=""stimulus-container"">
                    <img src=""images/schematic_sequence/interview_scheme/interview_scheme_4.png"" class=""exp-image"">
                    <div class=""question-area"">
                        <p style=""font-size: 20px; font-weight: bold; margin: 0;"">Is there a person in this image?</p>
                    </div>
                </div>","1","main_experiment_trial","4","interview_scheme","schematic_sequence","","","","",""
"","","","","","html-keyboard-response","172","523479","0.0-172.0","DDF9CC347F5D4544A341532EF7995E62","019cf7be-a08d-7c0e-be8b-7cca7a7985b6","019cf7bd-52b9-7f96-9138-a5960b400b31","","null","
                <div class=""stimulus-container"">
                    <img src=""images/schematic_sequence/interview_scheme/interview_scheme_5.png"" class=""exp-image"">
                    <div class=""question-area""></div> 
                </div>","null","","","","","","","","",""
"","","","","","html-button-response","173","524408","0.0-173.0","DDF9CC347F5D4544A341532EF7995E62","019cf7be-a08d-7c0e-be8b-7cca7a7985b6","019cf7bd-52b9-7f96-9138-a5960b400b31","","928","
                <div class=""stimulus-container"">
                    <img src=""images/schematic_sequence/interview_scheme/interview_scheme_5.png"" class=""exp-image"">
                    <div class=""question-area"">
                        <p style=""font-size: 20px; font-weight: bold; margin: 0;"">Is there a person in this image?</p>
                    </div>
                </div>","0","main_experiment_trial","5","interview_scheme","schematic_sequence","","","","",""
"","","","","","html-keyboard-response","174","529409","0.0-174.0","DDF9CC347F5D4544A341532EF7995E62","019cf7be-a08d-7c0e-be8b-7cca7a7985b6","019cf7bd-52b9-7f96-9138-a5960b400b31","","null","
                <div class=""stimulus-container"">
                    <img src=""images/schematic_sequence/interview_scheme/interview_scheme_6.png"" class=""exp-image"">
                    <div class=""question-area""></div> 
                </div>","null","","","","","","","","",""
"","","","","","html-button-response","175","530660","0.0-175.0","DDF9CC347F5D4544A341532EF7995E62","019cf7be-a08d-7c0e-be8b-7cca7a7985b6","019cf7bd-52b9-7f96-9138-a5960b400b31","","1250","
                <div class=""stimulus-container"">
                    <img src=""images/schematic_sequence/interview_scheme/interview_scheme_6.png"" class=""exp-image"">
                    <div class=""question-area"">
                        <p style=""font-size: 20px; font-weight: bold; margin: 0;"">Is there a person in this image?</p>
                    </div>
                </div>","0","main_experiment_trial","6","interview_scheme","schematic_sequence","","","","",""
"","","","","","html-keyboard-response","176","535662","0.0-176.0","DDF9CC347F5D4544A341532EF7995E62","019cf7be-a08d-7c0e-be8b-7cca7a7985b6","019cf7bd-52b9-7f96-9138-a5960b400b31","","null","
                <div class=""stimulus-container"">
                    <img src=""images/schematic_sequence/interview_scheme/interview_scheme_7.png"" class=""exp-image"">
                    <div class=""question-area""></div> 
                </div>","null","","","","","","","","",""
"","","","","","html-button-response","177","536959","0.0-177.0","DDF9CC347F5D4544A341532EF7995E62","019cf7be-a08d-7c0e-be8b-7cca7a7985b6","019cf7bd-52b9-7f96-9138-a5960b400b31","","1295","
                <div class=""stimulus-container"">
                    <img src=""images/schematic_sequence/interview_scheme/interview_scheme_7.png"" class=""exp-image"">
                    <div class=""question-area"">
                        <p style=""font-size: 20px; font-weight: bold; margin: 0;"">Is there a person in this image?</p>
                    </div>
                </div>","0","main_experiment_trial","7","interview_scheme","schematic_sequence","","","","",""
"","","","","","html-keyboard-response","178","541961","0.0-178.0","DDF9CC347F5D4544A341532EF7995E62","019cf7be-a08d-7c0e-be8b-7cca7a7985b6","019cf7bd-52b9-7f96-9138-a5960b400b31","","null","
                <div class=""stimulus-container"">
                    <img src=""images/schematic_sequence/interview_scheme/interview_scheme_8.png"" class=""exp-image"">
                    <div class=""question-area""></div> 
                </div>","null","","","","","","","","",""
"","","","","","html-button-response","179","543126","0.0-179.0","DDF9CC347F5D4544A341532EF7995E62","019cf7be-a08d-7c0e-be8b-7cca7a7985b6","019cf7bd-52b9-7f96-9138-a5960b400b31","","1164","
                <div class=""stimulus-container"">
                    <img src=""images/schematic_sequence/interview_scheme/interview_scheme_8.png"" class=""exp-image"">
                    <div class=""question-area"">
                        <p style=""font-size: 20px; font-weight: bold; margin: 0;"">Is there a person in this image?</p>
                    </div>
                </div>","0","main_experiment_trial","8","interview_scheme","schematic_sequence","","","","",""
"","","","","","html-keyboard-response","180","548129","0.0-180.0","DDF9CC347F5D4544A341532EF7995E62","019cf7be-a08d-7c0e-be8b-7cca7a7985b6","019cf7bd-52b9-7f96-9138-a5960b400b31","","null","
                <div class=""stimulus-container"">
                    <img src=""images/schematic_sequence/interview_scheme/interview_scheme_9.png"" class=""exp-image"">
                    <div class=""question-area""></div> 
                </div>","null","","","","","","","","",""
"","","","","","html-button-response","181","548643","0.0-181.0","DDF9CC347F5D4544A341532EF7995E62","019cf7be-a08d-7c0e-be8b-7cca7a7985b6","019cf7bd-52b9-7f96-9138-a5960b400b31","","513","
                <div class=""stimulus-container"">
                    <img src=""images/schematic_sequence/interview_scheme/interview_scheme_9.png"" class=""exp-image"">
