"success","timeout","failed_images","failed_audio","failed_video","trial_type","trial_index","time_elapsed","internal_node_id","subject_id","study_id","session_id","view_history","rt","stimulus","response","task","image_index","folder","sequence_type","valuable_image_index","reward_type","chosen_image_index","correct_choice"
"true","false","[]","[]","[]","preload","0","7610","0.0-0.0","416EBD8D331F46B39221A4C38A815F35","019cef9c-bf63-74f1-acdd-f2538addcae3","019cef87-c56d-7b55-9135-c5814367ec25","","","","","","","","","","","",""
"","","","","","instructions","1","606852","0.0-1.0","416EBD8D331F46B39221A4C38A815F35","019cef9c-bf63-74f1-acdd-f2538addcae3","019cef87-c56d-7b55-9135-c5814367ec25","[{""page_index"":0,""viewing_time"":599194}]","599195","","","","","","","","","",""
"","","","","","instructions","2","612947","0.0-2.0","416EBD8D331F46B39221A4C38A815F35","019cef9c-bf63-74f1-acdd-f2538addcae3","019cef87-c56d-7b55-9135-c5814367ec25","[{""page_index"":0,""viewing_time"":6095}]","6095","","","","","","","","","",""
"true","","","","","fullscreen","3","619154","0.0-3.0","416EBD8D331F46B39221A4C38A815F35","019cef9c-bf63-74f1-acdd-f2538addcae3","019cef87-c56d-7b55-9135-c5814367ec25","","5186","","","","","","","","","",""
"","","","","","instructions","4","710148","0.0-4.0","416EBD8D331F46B39221A4C38A815F35","019cef9c-bf63-74f1-acdd-f2538addcae3","019cef87-c56d-7b55-9135-c5814367ec25","[{""page_index"":0,""viewing_time"":90989}]","90990","","","","","","","","","",""
"","","","","","instructions","5","714684","0.0-5.0","416EBD8D331F46B39221A4C38A815F35","019cef9c-bf63-74f1-acdd-f2538addcae3","019cef87-c56d-7b55-9135-c5814367ec25","[{""page_index"":0,""viewing_time"":4536}]","4536","","","","","","","","","",""
"","","","","","html-keyboard-response","6","718690","0.0-6.0","416EBD8D331F46B39221A4C38A815F35","019cef9c-bf63-74f1-acdd-f2538addcae3","019cef87-c56d-7b55-9135-c5814367ec25","","null","
                <div class=""stimulus-container"">
                    <img src=""images/instructions/movie_1.png"" class=""exp-image"">
                    <div class=""question-area""></div> 
                </div>","null","","","","","","","",""
"","","","","","html-button-response","7","720821","0.0-7.0","416EBD8D331F46B39221A4C38A815F35","019cef9c-bf63-74f1-acdd-f2538addcae3","019cef87-c56d-7b55-9135-c5814367ec25","","2129","
                <div class=""stimulus-container"">
                    <img src=""images/instructions/movie_1.png"" class=""exp-image"">
                    <div class=""question-area"">
                        <p style=""font-size: 20px; font-weight: bold; margin: 0;"">Was there a person in this image?</p>
                    </div>
                </div>","0","example_question","1","","","","","",""
"","","","","","html-keyboard-response","8","724833","0.0-8.0","416EBD8D331F46B39221A4C38A815F35","019cef9c-bf63-74f1-acdd-f2538addcae3","019cef87-c56d-7b55-9135-c5814367ec25","","null","
                <div class=""stimulus-container"">
                    <img src=""images/instructions/movie_2.png"" class=""exp-image"">
                    <div class=""question-area""></div> 
                </div>","null","","","","","","","",""
"","","","","","html-button-response","9","725681","0.0-9.0","416EBD8D331F46B39221A4C38A815F35","019cef9c-bf63-74f1-acdd-f2538addcae3","019cef87-c56d-7b55-9135-c5814367ec25","","848","
                <div class=""stimulus-container"">
                    <img src=""images/instructions/movie_2.png"" class=""exp-image"">
                    <div class=""question-area"">
                        <p style=""font-size: 20px; font-weight: bold; margin: 0;"">Was there a person in this image?</p>
                    </div>
                </div>","1","example_question","2","","","","","",""
"","","","","","html-keyboard-response","10","729696","0.0-10.0","416EBD8D331F46B39221A4C38A815F35","019cef9c-bf63-74f1-acdd-f2538addcae3","019cef87-c56d-7b55-9135-c5814367ec25","","null","
                <div class=""stimulus-container"">
                    <img src=""images/instructions/movie_3.png"" class=""exp-image"">
                    <div class=""question-area""></div> 
                </div>","null","","","","","","","",""
"","","","","","html-button-response","11","730905","0.0-11.0","416EBD8D331F46B39221A4C38A815F35","019cef9c-bf63-74f1-acdd-f2538addcae3","019cef87-c56d-7b55-9135-c5814367ec25","","1208","
                <div class=""stimulus-container"">
                    <img src=""images/instructions/movie_3.png"" class=""exp-image"">
                    <div class=""question-area"">
                        <p style=""font-size: 20px; font-weight: bold; margin: 0;"">Was there a person in this image?</p>
                    </div>
                </div>","0","example_question","3","","","","","",""
"","","","","","html-keyboard-response","12","734912","0.0-12.0","416EBD8D331F46B39221A4C38A815F35","019cef9c-bf63-74f1-acdd-f2538addcae3","019cef87-c56d-7b55-9135-c5814367ec25","","null","
                <div class=""stimulus-container"">
                    <img src=""images/instructions/movie_4.png"" class=""exp-image"">
                    <div class=""question-area""></div> 
                </div>","null","","","","","","","",""
"","","","","","html-button-response","13","737920","0.0-13.0","416EBD8D331F46B39221A4C38A815F35","019cef9c-bf63-74f1-acdd-f2538addcae3","019cef87-c56d-7b55-9135-c5814367ec25","","null","
                <div class=""stimulus-container"">
                    <img src=""images/instructions/movie_4.png"" class=""exp-image"">
                    <div class=""question-area"">
                        <p style=""font-size: 20px; font-weight: bold; margin: 0;"">Was there a person in this image?</p>
                    </div>
                </div>","null","example_question","4","","","","","",""
"","","","","","instructions","14","749325","0.0-14.0","416EBD8D331F46B39221A4C38A815F35","019cef9c-bf63-74f1-acdd-f2538addcae3","019cef87-c56d-7b55-9135-c5814367ec25","[{""page_index"":0,""viewing_time"":11405}]","11406","","","","","","","","","",""
"","","","","","instructions","15","754296","0.0-15.0","416EBD8D331F46B39221A4C38A815F35","019cef9c-bf63-74f1-acdd-f2538addcae3","019cef87-c56d-7b55-9135-c5814367ec25","[{""page_index"":0,""viewing_time"":4970}]","4970","","","","","","","","","",""
"","","","","","html-keyboard-response","16","755301","0.0-16.0","416EBD8D331F46B39221A4C38A815F35","019cef9c-bf63-74f1-acdd-f2538addcae3","019cef87-c56d-7b55-9135-c5814367ec25","","null","<div style=""background-color: white; width: 100vw; height: 100vh;""></div>","null","","","","","","","",""
"","","","","","html-keyboard-response","17","760312","0.0-17.0","416EBD8D331F46B39221A4C38A815F35","019cef9c-bf63-74f1-acdd-f2538addcae3","019cef87-c56d-7b55-9135-c5814367ec25","","null","
                <div class=""stimulus-container"">
                    <img src=""images/causal_sequence/museum_causal/museum_causal_1.png"" class=""exp-image"">
                    <div class=""question-area""></div> 
                </div>","null","","","","","","","",""
"","","","","","html-button-response","18","761233","0.0-18.0","416EBD8D331F46B39221A4C38A815F35","019cef9c-bf63-74f1-acdd-f2538addcae3","019cef87-c56d-7b55-9135-c5814367ec25","","920","
                <div class=""stimulus-container"">
                    <img src=""images/causal_sequence/museum_causal/museum_causal_1.png"" class=""exp-image"">
                    <div class=""question-area"">
                        <p style=""font-size: 20px; font-weight: bold; margin: 0;"">Is there a person in this image?</p>
                    </div>
                </div>","0","main_experiment_trial","1","museum_causal","causal_sequence","","","",""
"","","","","","html-keyboard-response","19","766245","0.0-19.0","416EBD8D331F46B39221A4C38A815F35","019cef9c-bf63-74f1-acdd-f2538addcae3","019cef87-c56d-7b55-9135-c5814367ec25","","null","
                <div class=""stimulus-container"">
                    <img src=""images/causal_sequence/museum_causal/museum_causal_2.png"" class=""exp-image"">
                    <div class=""question-area""></div> 
                </div>","null","","","","","","","",""
"","","","","","html-button-response","20","767089","0.0-20.0","416EBD8D331F46B39221A4C38A815F35","019cef9c-bf63-74f1-acdd-f2538addcae3","019cef87-c56d-7b55-9135-c5814367ec25","","844","
                <div class=""stimulus-container"">
                    <img src=""images/causal_sequence/museum_causal/museum_causal_2.png"" class=""exp-image"">
                    <div class=""question-area"">
                        <p style=""font-size: 20px; font-weight: bold; margin: 0;"">Is there a person in this image?</p>
                    </div>
                </div>","0","main_experiment_trial","2","museum_causal","causal_sequence","","","",""
"","","","","","html-keyboard-response","21","772102","0.0-21.0","416EBD8D331F46B39221A4C38A815F35","019cef9c-bf63-74f1-acdd-f2538addcae3","019cef87-c56d-7b55-9135-c5814367ec25","","null","
                <div class=""stimulus-container"">
                    <img src=""images/causal_sequence/museum_causal/museum_causal_3.png"" class=""exp-image"">
                    <div class=""question-area""></div> 
                </div>","null","","","","","","","",""
"","","","","","html-button-response","22","772996","0.0-22.0","416EBD8D331F46B39221A4C38A815F35","019cef9c-bf63-74f1-acdd-f2538addcae3","019cef87-c56d-7b55-9135-c5814367ec25","","893","
                <div class=""stimulus-container"">
                    <img src=""images/causal_sequence/museum_causal/museum_causal_3.png"" class=""exp-image"">
                    <div class=""question-area"">
                        <p style=""font-size: 20px; font-weight: bold; margin: 0;"">Is there a person in this image?</p>
                    </div>
                </div>","0","main_experiment_trial","3","museum_causal","causal_sequence","","","",""
"","","","","","html-keyboard-response","23","778009","0.0-23.0","416EBD8D331F46B39221A4C38A815F35","019cef9c-bf63-74f1-acdd-f2538addcae3","019cef87-c56d-7b55-9135-c5814367ec25","","null","
                <div class=""stimulus-container"">
                    <img src=""images/causal_sequence/museum_causal/museum_causal_4.png"" class=""exp-image"">
                    <div class=""question-area""></div> 
                </div>","null","","","","","","","",""
"","","","","","html-button-response","24","779607","0.0-24.0","416EBD8D331F46B39221A4C38A815F35","019cef9c-bf63-74f1-acdd-f2538addcae3","019cef87-c56d-7b55-9135-c5814367ec25","","1597","
                <div class=""stimulus-container"">
                    <img src=""images/causal_sequence/museum_causal/museum_causal_4.png"" class=""exp-image"">
                    <div class=""question-area"">
                        <p style=""font-size: 20px; font-weight: bold; margin: 0;"">Is there a person in this image?</p>
                    </div>
                </div>","1","main_experiment_trial","4","museum_causal","causal_sequence","","","",""
"","","","","","html-keyboard-response","25","784618","0.0-25.0","416EBD8D331F46B39221A4C38A815F35","019cef9c-bf63-74f1-acdd-f2538addcae3","019cef87-c56d-7b55-9135-c5814367ec25","","null","
                <div class=""stimulus-container"">
                    <img src=""images/causal_sequence/museum_causal/museum_causal_5.png"" class=""exp-image"">
                    <div class=""question-area""></div> 
                </div>","null","","","","","","","",""
"","","","","","html-button-response","26","785452","0.0-26.0","416EBD8D331F46B39221A4C38A815F35","019cef9c-bf63-74f1-acdd-f2538addcae3","019cef87-c56d-7b55-9135-c5814367ec25","","829","
                <div class=""stimulus-container"">
                    <img src=""images/causal_sequence/museum_causal/museum_causal_5.png"" class=""exp-image"">
                    <div class=""question-area"">
                        <p style=""font-size: 20px; font-weight: bold; margin: 0;"">Is there a person in this image?</p>
                    </div>
                </div>","0","main_experiment_trial","5","museum_causal","causal_sequence","","","",""
"","","","","","html-keyboard-response","27","790464","0.0-27.0","416EBD8D331F46B39221A4C38A815F35","019cef9c-bf63-74f1-acdd-f2538addcae3","019cef87-c56d-7b55-9135-c5814367ec25","","null","
                <div class=""stimulus-container"">
                    <img src=""images/causal_sequence/museum_causal/museum_causal_6.png"" class=""exp-image"">
                    <div class=""question-area""></div> 
                </div>","null","","","","","","","",""
"","","","","","html-button-response","28","791411","0.0-28.0","416EBD8D331F46B39221A4C38A815F35","019cef9c-bf63-74f1-acdd-f2538addcae3","019cef87-c56d-7b55-9135-c5814367ec25","","947","
                <div class=""stimulus-container"">
                    <img src=""images/causal_sequence/museum_causal/museum_causal_6.png"" class=""exp-image"">
                    <div class=""question-area"">
                        <p style=""font-size: 20px; font-weight: bold; margin: 0;"">Is there a person in this image?</p>
                    </div>
                </div>","0","main_experiment_trial","6","museum_causal","causal_sequence","","","",""
"","","","","","html-keyboard-response","29","796416","0.0-29.0","416EBD8D331F46B39221A4C38A815F35","019cef9c-bf63-74f1-acdd-f2538addcae3","019cef87-c56d-7b55-9135-c5814367ec25","","null","
                <div class=""stimulus-container"">
                    <img src=""images/causal_sequence/museum_causal/museum_causal_7.png"" class=""exp-image"">
                    <div class=""question-area""></div> 
                </div>","null","","","","","","","",""
"","","","","","html-button-response","30","797247","0.0-30.0","416EBD8D331F46B39221A4C38A815F35","019cef9c-bf63-74f1-acdd-f2538addcae3","019cef87-c56d-7b55-9135-c5814367ec25","","831","
                <div class=""stimulus-container"">
                    <img src=""images/causal_sequence/museum_causal/museum_causal_7.png"" class=""exp-image"">
                    <div class=""question-area"">
                        <p style=""font-size: 20px; font-weight: bold; margin: 0;"">Is there a person in this image?</p>
                    </div>
                </div>","1","main_experiment_trial","7","museum_causal","causal_sequence","","","",""
"","","","","","html-keyboard-response","31","802254","0.0-31.0","416EBD8D331F46B39221A4C38A815F35","019cef9c-bf63-74f1-acdd-f2538addcae3","019cef87-c56d-7b55-9135-c5814367ec25","","null","
                <div class=""stimulus-container"">
                    <img src=""images/causal_sequence/museum_causal/museum_causal_8.png"" class=""exp-image"">
                    <div class=""question-area""></div> 
                </div>","null","","","","","","","",""
"","","","","","html-button-response","32","803036","0.0-32.0","416EBD8D331F46B39221A4C38A815F35","019cef9c-bf63-74f1-acdd-f2538addcae3","019cef87-c56d-7b55-9135-c5814367ec25","","781","
                <div class=""stimulus-container"">
                    <img src=""images/causal_sequence/museum_causal/museum_causal_8.png"" class=""exp-image"">
                    <div class=""question-area"">
                        <p style=""font-size: 20px; font-weight: bold; margin: 0;"">Is there a person in this image?</p>
                    </div>
                </div>","0","main_experiment_trial","8","museum_causal","causal_sequence","","","",""
"","","","","","html-keyboard-response","33","808038","0.0-33.0","416EBD8D331F46B39221A4C38A815F35","019cef9c-bf63-74f1-acdd-f2538addcae3","019cef87-c56d-7b55-9135-c5814367ec25","","null","
                <div class=""stimulus-container"">
                    <img src=""images/causal_sequence/museum_causal/museum_causal_9.png"" class=""exp-image"">
                    <div class=""question-area""></div> 
                </div>","null","","","","","","","",""
"","","","","","html-button-response","34","809629","0.0-34.0","416EBD8D331F46B39221A4C38A815F35","019cef9c-bf63-74f1-acdd-f2538addcae3","019cef87-c56d-7b55-9135-c5814367ec25","","1591","
                <div class=""stimulus-container"">
                    <img src=""images/causal_sequence/museum_causal/museum_causal_9.png"" class=""exp-image"">
                    <div class=""question-area"">
                        <p style=""font-size: 20px; font-weight: bold; margin: 0;"">Is there a person in this image?</p>
                    </div>
                </div>","1","main_experiment_trial","9","museum_causal","causal_sequence","","","",""
"","","","","","html-keyboard-response","35","814632","0.0-35.0","416EBD8D331F46B39221A4C38A815F35","019cef9c-bf63-74f1-acdd-f2538addcae3","019cef87-c56d-7b55-9135-c5814367ec25","","null","
                <div class=""stimulus-container"">
                    <img src=""images/causal_sequence/museum_causal/museum_causal_ten.png"" class=""exp-image"">
                    <div class=""question-area""></div> 
                </div>","null","","","","","","","",""
"","","","","","html-button-response","36","815543","0.0-36.0","416EBD8D331F46B39221A4C38A815F35","019cef9c-bf63-74f1-acdd-f2538addcae3","019cef87-c56d-7b55-9135-c5814367ec25","","910","
                <div class=""stimulus-container"">
                    <img src=""images/causal_sequence/museum_causal/museum_causal_ten.png"" class=""exp-image"">
                    <div class=""question-area"">
                        <p style=""font-size: 20px; font-weight: bold; margin: 0;"">Is there a person in this image?</p>
                    </div>
                </div>","0","main_experiment_trial","ten","museum_causal","causal_sequence","","","",""
"","","","","","html-keyboard-response","37","816547","0.0-37.0","416EBD8D331F46B39221A4C38A815F35","019cef9c-bf63-74f1-acdd-f2538addcae3","019cef87-c56d-7b55-9135-c5814367ec25","","null","<div style=""background-color: white; width: 100vw; height: 100vh;""></div>","null","","","","","","","",""
"","","","","","html-keyboard-response","38","821548","0.0-38.0","416EBD8D331F46B39221A4C38A815F35","019cef9c-bf63-74f1-acdd-f2538addcae3","019cef87-c56d-7b55-9135-c5814367ec25","","null","
                <div class=""stimulus-container"">
                    <img src=""images/causal_sequence/the_performance_causal/the_performance_causal_1.png"" class=""exp-image"">
                    <div class=""question-area""></div> 
                </div>","null","","","","","","","",""
"","","","","","html-button-response","39","822229","0.0-39.0","416EBD8D331F46B39221A4C38A815F35","019cef9c-bf63-74f1-acdd-f2538addcae3","019cef87-c56d-7b55-9135-c5814367ec25","","680","
                <div class=""stimulus-container"">
                    <img src=""images/causal_sequence/the_performance_causal/the_performance_causal_1.png"" class=""exp-image"">
                    <div class=""question-area"">
                        <p style=""font-size: 20px; font-weight: bold; margin: 0;"">Is there a person in this image?</p>
                    </div>
                </div>","0","main_experiment_trial","1","the_performance_causal","causal_sequence","","","",""
"","","","","","html-keyboard-response","40","827230","0.0-40.0","416EBD8D331F46B39221A4C38A815F35","019cef9c-bf63-74f1-acdd-f2538addcae3","019cef87-c56d-7b55-9135-c5814367ec25","","null","
                <div class=""stimulus-container"">
                    <img src=""images/causal_sequence/the_performance_causal/the_performance_causal_2.png"" class=""exp-image"">
                    <div class=""question-area""></div> 
                </div>","null","","","","","","","",""
"","","","","","html-button-response","41","829049","0.0-41.0","416EBD8D331F46B39221A4C38A815F35","019cef9c-bf63-74f1-acdd-f2538addcae3","019cef87-c56d-7b55-9135-c5814367ec25","","1818","
                <div class=""stimulus-container"">
                    <img src=""images/causal_sequence/the_performance_causal/the_performance_causal_2.png"" class=""exp-image"">
                    <div class=""question-area"">
                        <p style=""font-size: 20px; font-weight: bold; margin: 0;"">Is there a person in this image?</p>
                    </div>
                </div>","0","main_experiment_trial","2","the_performance_causal","causal_sequence","","","",""
"","","","","","html-keyboard-response","42","834050","0.0-42.0","416EBD8D331F46B39221A4C38A815F35","019cef9c-bf63-74f1-acdd-f2538addcae3","019cef87-c56d-7b55-9135-c5814367ec25","","null","
                <div class=""stimulus-container"">
                    <img src=""images/causal_sequence/the_performance_causal/the_performance_causal_3.png"" class=""exp-image"">
                    <div class=""question-area""></div> 
                </div>","null","","","","","","","",""
"","","","","","html-button-response","43","834805","0.0-43.0","416EBD8D331F46B39221A4C38A815F35","019cef9c-bf63-74f1-acdd-f2538addcae3","019cef87-c56d-7b55-9135-c5814367ec25","","754","
                <div class=""stimulus-container"">
                    <img src=""images/causal_sequence/the_performance_causal/the_performance_causal_3.png"" class=""exp-image"">
                    <div class=""question-area"">
                        <p style=""font-size: 20px; font-weight: bold; margin: 0;"">Is there a person in this image?</p>
                    </div>
                </div>","0","main_experiment_trial","3","the_performance_causal","causal_sequence","","","",""
"","","","","","html-keyboard-response","44","839808","0.0-44.0","416EBD8D331F46B39221A4C38A815F35","019cef9c-bf63-74f1-acdd-f2538addcae3","019cef87-c56d-7b55-9135-c5814367ec25","","null","
                <div class=""stimulus-container"">
                    <img src=""images/causal_sequence/the_performance_causal/the_performance_causal_4.png"" class=""exp-image"">
                    <div class=""question-area""></div> 
                </div>","null","","","","","","","",""
"","","","","","html-button-response","45","840947","0.0-45.0","416EBD8D331F46B39221A4C38A815F35","019cef9c-bf63-74f1-acdd-f2538addcae3","019cef87-c56d-7b55-9135-c5814367ec25","","1138","
                <div class=""stimulus-container"">
                    <img src=""images/causal_sequence/the_performance_causal/the_performance_causal_4.png"" class=""exp-image"">
                    <div class=""question-area"">
                        <p style=""font-size: 20px; font-weight: bold; margin: 0;"">Is there a person in this image?</p>
                    </div>
                </div>","0","main_experiment_trial","4","the_performance_causal","causal_sequence","","","",""
"","","","","","html-keyboard-response","46","845963","0.0-46.0","416EBD8D331F46B39221A4C38A815F35","019cef9c-bf63-74f1-acdd-f2538addcae3","019cef87-c56d-7b55-9135-c5814367ec25","","null","
                <div class=""stimulus-container"">
                    <img src=""images/causal_sequence/the_performance_causal/the_performance_causal_5.png"" class=""exp-image"">
                    <div class=""question-area""></div> 
                </div>","null","","","","","","","",""
"","","","","","html-button-response","47","847016","0.0-47.0","416EBD8D331F46B39221A4C38A815F35","019cef9c-bf63-74f1-acdd-f2538addcae3","019cef87-c56d-7b55-9135-c5814367ec25","","1052","
                <div class=""stimulus-container"">
                    <img src=""images/causal_sequence/the_performance_causal/the_performance_causal_5.png"" class=""exp-image"">
                    <div class=""question-area"">
                        <p style=""font-size: 20px; font-weight: bold; margin: 0;"">Is there a person in this image?</p>
                    </div>
                </div>","0","main_experiment_trial","5","the_performance_causal","causal_sequence","","","",""
"","","","","","html-keyboard-response","48","852021","0.0-48.0","416EBD8D331F46B39221A4C38A815F35","019cef9c-bf63-74f1-acdd-f2538addcae3","019cef87-c56d-7b55-9135-c5814367ec25","","null","
                <div class=""stimulus-container"">
                    <img src=""images/causal_sequence/the_performance_causal/the_performance_causal_6.png"" class=""exp-image"">
                    <div class=""question-area""></div> 
                </div>","null","","","","","","","",""
"","","","","","html-button-response","49","853473","0.0-49.0","416EBD8D331F46B39221A4C38A815F35","019cef9c-bf63-74f1-acdd-f2538addcae3","019cef87-c56d-7b55-9135-c5814367ec25","","1451","
                <div class=""stimulus-container"">
                    <img src=""images/causal_sequence/the_performance_causal/the_performance_causal_6.png"" class=""exp-image"">
                    <div class=""question-area"">
                        <p style=""font-size: 20px; font-weight: bold; margin: 0;"">Is there a person in this image?</p>
                    </div>
                </div>","0","main_experiment_trial","6","the_performance_causal","causal_sequence","","","",""
"","","","","","html-keyboard-response","50","858474","0.0-50.0","416EBD8D331F46B39221A4C38A815F35","019cef9c-bf63-74f1-acdd-f2538addcae3","019cef87-c56d-7b55-9135-c5814367ec25","","null","
                <div class=""stimulus-container"">
                    <img src=""images/causal_sequence/the_performance_causal/the_performance_causal_7.png"" class=""exp-image"">
                    <div class=""question-area""></div> 
                </div>","null","","","","","","","",""
"","","","","","html-button-response","51","859623","0.0-51.0","416EBD8D331F46B39221A4C38A815F35","019cef9c-bf63-74f1-acdd-f2538addcae3","019cef87-c56d-7b55-9135-c5814367ec25","","1149","
                <div class=""stimulus-container"">
                    <img src=""images/causal_sequence/the_performance_causal/the_performance_causal_7.png"" class=""exp-image"">
                    <div class=""question-area"">
                        <p style=""font-size: 20px; font-weight: bold; margin: 0;"">Is there a person in this image?</p>
                    </div>
                </div>","0","main_experiment_trial","7","the_performance_causal","causal_sequence","","","",""
"","","","","","html-keyboard-response","52","864631","0.0-52.0","416EBD8D331F46B39221A4C38A815F35","019cef9c-bf63-74f1-acdd-f2538addcae3","019cef87-c56d-7b55-9135-c5814367ec25","","null","
                <div class=""stimulus-container"">
                    <img src=""images/causal_sequence/the_performance_causal/the_performance_causal_8.png"" class=""exp-image"">
                    <div class=""question-area""></div> 
                </div>","null","","","","","","","",""
"","","","","","html-button-response","53","865513","0.0-53.0","416EBD8D331F46B39221A4C38A815F35","019cef9c-bf63-74f1-acdd-f2538addcae3","019cef87-c56d-7b55-9135-c5814367ec25","","881","
                <div class=""stimulus-container"">
                    <img src=""images/causal_sequence/the_performance_causal/the_performance_causal_8.png"" class=""exp-image"">
                    <div class=""question-area"">
                        <p style=""font-size: 20px; font-weight: bold; margin: 0;"">Is there a person in this image?</p>
                    </div>
                </div>","0","main_experiment_trial","8","the_performance_causal","causal_sequence","","","",""
"","","","","","html-keyboard-response","54","870520","0.0-54.0","416EBD8D331F46B39221A4C38A815F35","019cef9c-bf63-74f1-acdd-f2538addcae3","019cef87-c56d-7b55-9135-c5814367ec25","","null","
                <div class=""stimulus-container"">
                    <img src=""images/causal_sequence/the_performance_causal/the_performance_causal_9.png"" class=""exp-image"">
                    <div class=""question-area""></div> 
                </div>","null","","","","","","","",""
"","","","","","html-button-response","55","872074","0.0-55.0","416EBD8D331F46B39221A4C38A815F35","019cef9c-bf63-74f1-acdd-f2538addcae3","019cef87-c56d-7b55-9135-c5814367ec25","","1553","
                <div class=""stimulus-container"">
                    <img src=""images/causal_sequence/the_performance_causal/the_performance_causal_9.png"" class=""exp-image"">
                    <div class=""question-area"">
                        <p style=""font-size: 20px; font-weight: bold; margin: 0;"">Is there a person in this image?</p>
                    </div>
                </div>","0","main_experiment_trial","9","the_performance_causal","causal_sequence","","","",""
"","","","","","html-keyboard-response","56","877078","0.0-56.0","416EBD8D331F46B39221A4C38A815F35","019cef9c-bf63-74f1-acdd-f2538addcae3","019cef87-c56d-7b55-9135-c5814367ec25","","null","
                <div class=""stimulus-container"">
                    <img src=""images/causal_sequence/the_performance_causal/the_performance_causal_ten.png"" class=""exp-image"">
                    <div class=""question-area""></div> 
                </div>","null","","","","","","","",""
"","","","","","html-button-response","57","878173","0.0-57.0","416EBD8D331F46B39221A4C38A815F35","019cef9c-bf63-74f1-acdd-f2538addcae3","019cef87-c56d-7b55-9135-c5814367ec25","","1094","
                <div class=""stimulus-container"">
                    <img src=""images/causal_sequence/the_performance_causal/the_performance_causal_ten.png"" class=""exp-image"">
                    <div class=""question-area"">
                        <p style=""font-size: 20px; font-weight: bold; margin: 0;"">Is there a person in this image?</p>
                    </div>
                </div>","0","main_experiment_trial","ten","the_performance_causal","causal_sequence","","","",""
"","","","","","html-keyboard-response","58","879175","0.0-58.0","416EBD8D331F46B39221A4C38A815F35","019cef9c-bf63-74f1-acdd-f2538addcae3","019cef87-c56d-7b55-9135-c5814367ec25","","null","<div style=""background-color: white; width: 100vw; height: 100vh;""></div>","null","","","","","","","",""
"","","","","","html-keyboard-response","59","884184","0.0-59.0","416EBD8D331F46B39221A4C38A815F35","019cef9c-bf63-74f1-acdd-f2538addcae3","019cef87-c56d-7b55-9135-c5814367ec25","","null","
                <div class=""stimulus-container"">
                    <img src=""images/causal_sequence/dog_causal/dog_causal_1.png"" class=""exp-image"">
                    <div class=""question-area""></div> 
                </div>","null","","","","","","","",""
"","","","","","html-button-response","60","885130","0.0-60.0","416EBD8D331F46B39221A4C38A815F35","019cef9c-bf63-74f1-acdd-f2538addcae3","019cef87-c56d-7b55-9135-c5814367ec25","","945","
                <div class=""stimulus-container"">
                    <img src=""images/causal_sequence/dog_causal/dog_causal_1.png"" class=""exp-image"">
                    <div class=""question-area"">
                        <p style=""font-size: 20px; font-weight: bold; margin: 0;"">Is there a person in this image?</p>
                    </div>
                </div>","0","main_experiment_trial","1","dog_causal","causal_sequence","","","",""
"","","","","","html-keyboard-response","61","890133","0.0-61.0","416EBD8D331F46B39221A4C38A815F35","019cef9c-bf63-74f1-acdd-f2538addcae3","019cef87-c56d-7b55-9135-c5814367ec25","","null","
                <div class=""stimulus-container"">
                    <img src=""images/causal_sequence/dog_causal/dog_causal_2.png"" class=""exp-image"">
                    <div class=""question-area""></div> 
                </div>","null","","","","","","","",""
"","","","","","html-button-response","62","890787","0.0-62.0","416EBD8D331F46B39221A4C38A815F35","019cef9c-bf63-74f1-acdd-f2538addcae3","019cef87-c56d-7b55-9135-c5814367ec25","","654","
                <div class=""stimulus-container"">
                    <img src=""images/causal_sequence/dog_causal/dog_causal_2.png"" class=""exp-image"">
                    <div class=""question-area"">
                        <p style=""font-size: 20px; font-weight: bold; margin: 0;"">Is there a person in this image?</p>
                    </div>
                </div>","0","main_experiment_trial","2","dog_causal","causal_sequence","","","",""
"","","","","","html-keyboard-response","63","895793","0.0-63.0","416EBD8D331F46B39221A4C38A815F35","019cef9c-bf63-74f1-acdd-f2538addcae3","019cef87-c56d-7b55-9135-c5814367ec25","","null","
                <div class=""stimulus-container"">
                    <img src=""images/causal_sequence/dog_causal/dog_causal_3.png"" class=""exp-image"">
                    <div class=""question-area""></div> 
                </div>","null","","","","","","","",""
"","","","","","html-button-response","64","897245","0.0-64.0","416EBD8D331F46B39221A4C38A815F35","019cef9c-bf63-74f1-acdd-f2538addcae3","019cef87-c56d-7b55-9135-c5814367ec25","","1450","
                <div class=""stimulus-container"">
                    <img src=""images/causal_sequence/dog_causal/dog_causal_3.png"" class=""exp-image"">
                    <div class=""question-area"">
                        <p style=""font-size: 20px; font-weight: bold; margin: 0;"">Is there a person in this image?</p>
                    </div>
                </div>","0","main_experiment_trial","3","dog_causal","causal_sequence","","","",""
"","","","","","html-keyboard-response","65","902255","0.0-65.0","416EBD8D331F46B39221A4C38A815F35","019cef9c-bf63-74f1-acdd-f2538addcae3","019cef87-c56d-7b55-9135-c5814367ec25","","null","
                <div class=""stimulus-container"">
                    <img src=""images/causal_sequence/dog_causal/dog_causal_4.png"" class=""exp-image"">
                    <div class=""question-area""></div> 
                </div>","null","","","","","","","",""
"","","","","","html-button-response","66","903200","0.0-66.0","416EBD8D331F46B39221A4C38A815F35","019cef9c-bf63-74f1-acdd-f2538addcae3","019cef87-c56d-7b55-9135-c5814367ec25","","944","
                <div class=""stimulus-container"">
                    <img src=""images/causal_sequence/dog_causal/dog_causal_4.png"" class=""exp-image"">
                    <div class=""question-area"">
                        <p style=""font-size: 20px; font-weight: bold; margin: 0;"">Is there a person in this image?</p>
                    </div>
                </div>","0","main_experiment_trial","4","dog_causal","causal_sequence","","","",""
"","","","","","html-keyboard-response","67","908217","0.0-67.0","416EBD8D331F46B39221A4C38A815F35","019cef9c-bf63-74f1-acdd-f2538addcae3","019cef87-c56d-7b55-9135-c5814367ec25","","null","
                <div class=""stimulus-container"">
                    <img src=""images/causal_sequence/dog_causal/dog_causal_5.png"" class=""exp-image"">
                    <div class=""question-area""></div> 
                </div>","null","","","","","","","",""
"","","","","","html-button-response","68","909720","0.0-68.0","416EBD8D331F46B39221A4C38A815F35","019cef9c-bf63-74f1-acdd-f2538addcae3","019cef87-c56d-7b55-9135-c5814367ec25","","1503","
                <div class=""stimulus-container"">
                    <img src=""images/causal_sequence/dog_causal/dog_causal_5.png"" class=""exp-image"">
                    <div class=""question-area"">
                        <p style=""font-size: 20px; font-weight: bold; margin: 0;"">Is there a person in this image?</p>
                    </div>
                </div>","0","main_experiment_trial","5","dog_causal","causal_sequence","","","",""
"","","","","","html-keyboard-response","69","914730","0.0-69.0","416EBD8D331F46B39221A4C38A815F35","019cef9c-bf63-74f1-acdd-f2538addcae3","019cef87-c56d-7b55-9135-c5814367ec25","","null","
                <div class=""stimulus-container"">
                    <img src=""images/causal_sequence/dog_causal/dog_causal_6.png"" class=""exp-image"">
                    <div class=""question-area""></div> 
                </div>","null","","","","","","","",""
"","","","","","html-button-response","70","915422","0.0-70.0","416EBD8D331F46B39221A4C38A815F35","019cef9c-bf63-74f1-acdd-f2538addcae3","019cef87-c56d-7b55-9135-c5814367ec25","","692","
                <div class=""stimulus-container"">
                    <img src=""images/causal_sequence/dog_causal/dog_causal_6.png"" class=""exp-image"">
                    <div class=""question-area"">
                        <p style=""font-size: 20px; font-weight: bold; margin: 0;"">Is there a person in this image?</p>
                    </div>
                </div>","0","main_experiment_trial","6","dog_causal","causal_sequence","","","",""
"","","","","","html-keyboard-response","71","920436","0.0-71.0","416EBD8D331F46B39221A4C38A815F35","019cef9c-bf63-74f1-acdd-f2538addcae3","019cef87-c56d-7b55-9135-c5814367ec25","","null","
                <div class=""stimulus-container"">
                    <img src=""images/causal_sequence/dog_causal/dog_causal_7.png"" class=""exp-image"">
                    <div class=""question-area""></div> 
                </div>","null","","","","","","","",""
"","","","","","html-button-response","72","921043","0.0-72.0","416EBD8D331F46B39221A4C38A815F35","019cef9c-bf63-74f1-acdd-f2538addcae3","019cef87-c56d-7b55-9135-c5814367ec25","","606","
                <div class=""stimulus-container"">
                    <img src=""images/causal_sequence/dog_causal/dog_causal_7.png"" class=""exp-image"">
                    <div class=""question-area"">
                        <p style=""font-size: 20px; font-weight: bold; margin: 0;"">Is there a person in this image?</p>
                    </div>
                </div>","0","main_experiment_trial","7","dog_causal","causal_sequence","","","",""
"","","","","","html-keyboard-response","73","926048","0.0-73.0","416EBD8D331F46B39221A4C38A815F35","019cef9c-bf63-74f1-acdd-f2538addcae3","019cef87-c56d-7b55-9135-c5814367ec25","","null","
                <div class=""stimulus-container"">
                    <img src=""images/causal_sequence/dog_causal/dog_causal_8.png"" class=""exp-image"">
                    <div class=""question-area""></div> 
                </div>","null","","","","","","","",""
"","","","","","html-button-response","74","927728","0.0-74.0","416EBD8D331F46B39221A4C38A815F35","019cef9c-bf63-74f1-acdd-f2538addcae3","019cef87-c56d-7b55-9135-c5814367ec25","","1679","
                <div class=""stimulus-container"">
                    <img src=""images/causal_sequence/dog_causal/dog_causal_8.png"" class=""exp-image"">
                    <div class=""question-area"">
                        <p style=""font-size: 20px; font-weight: bold; margin: 0;"">Is there a person in this image?</p>
                    </div>
                </div>","0","main_experiment_trial","8","dog_causal","causal_sequence","","","",""
"","","","","","html-keyboard-response","75","932734","0.0-75.0","416EBD8D331F46B39221A4C38A815F35","019cef9c-bf63-74f1-acdd-f2538addcae3","019cef87-c56d-7b55-9135-c5814367ec25","","null","
                <div class=""stimulus-container"">
                    <img src=""images/causal_sequence/dog_causal/dog_causal_9.png"" class=""exp-image"">
                    <div class=""question-area""></div> 
                </div>","null","","","","","","","",""
"","","","","","html-button-response","76","935739","0.0-76.0","416EBD8D331F46B39221A4C38A815F35","019cef9c-bf63-74f1-acdd-f2538addcae3","019cef87-c56d-7b55-9135-c5814367ec25","","null","
                <div class=""stimulus-container"">
                    <img src=""images/causal_sequence/dog_causal/dog_causal_9.png"" class=""exp-image"">
                    <div class=""question-area"">
                        <p style=""font-size: 20px; font-weight: bold; margin: 0;"">Is there a person in this image?</p>
                    </div>
                </div>","null","main_experiment_trial","9","dog_causal","causal_sequence","","","",""
"","","","","","html-keyboard-response","77","940747","0.0-77.0","416EBD8D331F46B39221A4C38A815F35","019cef9c-bf63-74f1-acdd-f2538addcae3","019cef87-c56d-7b55-9135-c5814367ec25","","null","
                <div class=""stimulus-container"">
                    <img src=""images/causal_sequence/dog_causal/dog_causal_ten.png"" class=""exp-image"">
                    <div class=""question-area""></div> 
                </div>","null","","","","","","","",""
"","","","","","html-button-response","78","941413","0.0-78.0","416EBD8D331F46B39221A4C38A815F35","019cef9c-bf63-74f1-acdd-f2538addcae3","019cef87-c56d-7b55-9135-c5814367ec25","","665","
                <div class=""stimulus-container"">
                    <img src=""images/causal_sequence/dog_causal/dog_causal_ten.png"" class=""exp-image"">
                    <div class=""question-area"">
                        <p style=""font-size: 20px; font-weight: bold; margin: 0;"">Is there a person in this image?</p>
                    </div>
                </div>","0","main_experiment_trial","ten","dog_causal","causal_sequence","","","",""
"","","","","","html-keyboard-response","79","942423","0.0-79.0","416EBD8D331F46B39221A4C38A815F35","019cef9c-bf63-74f1-acdd-f2538addcae3","019cef87-c56d-7b55-9135-c5814367ec25","","null","<div style=""background-color: white; width: 100vw; height: 100vh;""></div>","null","","","","","","","",""
"","","","","","html-keyboard-response","80","947431","0.0-80.0","416EBD8D331F46B39221A4C38A815F35","019cef9c-bf63-74f1-acdd-f2538addcae3","019cef87-c56d-7b55-9135-c5814367ec25","","null","
                <div class=""stimulus-container"">
                    <img src=""images/schematic_sequence/flight_scheme/flight_scheme_1.png"" class=""exp-image"">
                    <div class=""question-area""></div> 
                </div>","null","","","","","","","",""
"","","","","","html-button-response","81","948275","0.0-81.0","416EBD8D331F46B39221A4C38A815F35","019cef9c-bf63-74f1-acdd-f2538addcae3","019cef87-c56d-7b55-9135-c5814367ec25","","843","
                <div class=""stimulus-container"">
                    <img src=""images/schematic_sequence/flight_scheme/flight_scheme_1.png"" class=""exp-image"">
                    <div class=""question-area"">
                        <p style=""font-size: 20px; font-weight: bold; margin: 0;"">Is there a person in this image?</p>
                    </div>
                </div>","0","main_experiment_trial","1","flight_scheme","schematic_sequence","","","",""
"","","","","","html-keyboard-response","82","953289","0.0-82.0","416EBD8D331F46B39221A4C38A815F35","019cef9c-bf63-74f1-acdd-f2538addcae3","019cef87-c56d-7b55-9135-c5814367ec25","","null","
                <div class=""stimulus-container"">
                    <img src=""images/schematic_sequence/flight_scheme/flight_scheme_2.png"" class=""exp-image"">
                    <div class=""question-area""></div> 
                </div>","null","","","","","","","",""
"","","","","","html-button-response","83","954471","0.0-83.0","416EBD8D331F46B39221A4C38A815F35","019cef9c-bf63-74f1-acdd-f2538addcae3","019cef87-c56d-7b55-9135-c5814367ec25","","1181","
                <div class=""stimulus-container"">
                    <img src=""images/schematic_sequence/flight_scheme/flight_scheme_2.png"" class=""exp-image"">
                    <div class=""question-area"">
                        <p style=""font-size: 20px; font-weight: bold; margin: 0;"">Is there a person in this image?</p>
                    </div>
                </div>","1","main_experiment_trial","2","flight_scheme","schematic_sequence","","","",""
"","","","","","html-keyboard-response","84","959486","0.0-84.0","416EBD8D331F46B39221A4C38A815F35","019cef9c-bf63-74f1-acdd-f2538addcae3","019cef87-c56d-7b55-9135-c5814367ec25","","null","
                <div class=""stimulus-container"">
                    <img src=""images/schematic_sequence/flight_scheme/flight_scheme_3.png"" class=""exp-image"">
                    <div class=""question-area""></div> 
                </div>","null","","","","","","","",""
"","","","","","html-button-response","85","960120","0.0-85.0","416EBD8D331F46B39221A4C38A815F35","019cef9c-bf63-74f1-acdd-f2538addcae3","019cef87-c56d-7b55-9135-c5814367ec25","","634","
                <div class=""stimulus-container"">
                    <img src=""images/schematic_sequence/flight_scheme/flight_scheme_3.png"" class=""exp-image"">
                    <div class=""question-area"">
                        <p style=""font-size: 20px; font-weight: bold; margin: 0;"">Is there a person in this image?</p>
                    </div>
                </div>","0","main_experiment_trial","3","flight_scheme","schematic_sequence","","","",""
"","","","","","html-keyboard-response","86","965124","0.0-86.0","416EBD8D331F46B39221A4C38A815F35","019cef9c-bf63-74f1-acdd-f2538addcae3","019cef87-c56d-7b55-9135-c5814367ec25","","null","
                <div class=""stimulus-container"">
                    <img src=""images/schematic_sequence/flight_scheme/flight_scheme_4.png"" class=""exp-image"">
                    <div class=""question-area""></div> 
                </div>","null","","","","","","","",""
"","","","","","html-button-response","87","965695","0.0-87.0","416EBD8D331F46B39221A4C38A815F35","019cef9c-bf63-74f1-acdd-f2538addcae3","019cef87-c56d-7b55-9135-c5814367ec25","","570","
                <div class=""stimulus-container"">
                    <img src=""images/schematic_sequence/flight_scheme/flight_scheme_4.png"" class=""exp-image"">
                    <div class=""question-area"">
                        <p style=""font-size: 20px; font-weight: bold; margin: 0;"">Is there a person in this image?</p>
                    </div>
                </div>","0","main_experiment_trial","4","flight_scheme","schematic_sequence","","","",""
"","","","","","html-keyboard-response","88","970699","0.0-88.0","416EBD8D331F46B39221A4C38A815F35","019cef9c-bf63-74f1-acdd-f2538addcae3","019cef87-c56d-7b55-9135-c5814367ec25","","null","
                <div class=""stimulus-container"">
                    <img src=""images/schematic_sequence/flight_scheme/flight_scheme_5.png"" class=""exp-image"">
                    <div class=""question-area""></div> 
                </div>","null","","","","","","","",""
"","","","","","html-button-response","89","971179","0.0-89.0","416EBD8D331F46B39221A4C38A815F35","019cef9c-bf63-74f1-acdd-f2538addcae3","019cef87-c56d-7b55-9135-c5814367ec25","","479","
                <div class=""stimulus-container"">
                    <img src=""images/schematic_sequence/flight_scheme/flight_scheme_5.png"" class=""exp-image"">
                    <div class=""question-area"">
                        <p style=""font-size: 20px; font-weight: bold; margin: 0;"">Is there a person in this image?</p>
                    </div>
                </div>","0","main_experiment_trial","5","flight_scheme","schematic_sequence","","","",""
"","","","","","html-keyboard-response","90","976185","0.0-90.0","416EBD8D331F46B39221A4C38A815F35","019cef9c-bf63-74f1-acdd-f2538addcae3","019cef87-c56d-7b55-9135-c5814367ec25","","null","
                <div class=""stimulus-container"">
                    <img src=""images/schematic_sequence/flight_scheme/flight_scheme_6.png"" class=""exp-image"">
                    <div class=""question-area""></div> 
                </div>","null","","","","","","","",""
"","","","","","html-button-response","91","977353","0.0-91.0","416EBD8D331F46B39221A4C38A815F35","019cef9c-bf63-74f1-acdd-f2538addcae3","019cef87-c56d-7b55-9135-c5814367ec25","","1167","
                <div class=""stimulus-container"">
                    <img src=""images/schematic_sequence/flight_scheme/flight_scheme_6.png"" class=""exp-image"">
                    <div class=""question-area"">
                        <p style=""font-size: 20px; font-weight: bold; margin: 0;"">Is there a person in this image?</p>
                    </div>
                </div>","1","main_experiment_trial","6","flight_scheme","schematic_sequence","","","",""
"","","","","","html-keyboard-response","92","982360","0.0-92.0","416EBD8D331F46B39221A4C38A815F35","019cef9c-bf63-74f1-acdd-f2538addcae3","019cef87-c56d-7b55-9135-c5814367ec25","","null","
                <div class=""stimulus-container"">
                    <img src=""images/schematic_sequence/flight_scheme/flight_scheme_7.png"" class=""exp-image"">
                    <div class=""question-area""></div> 
                </div>","null","","","","","","","",""
"","","","","","html-button-response","93","983045","0.0-93.0","416EBD8D331F46B39221A4C38A815F35","019cef9c-bf63-74f1-acdd-f2538addcae3","019cef87-c56d-7b55-9135-c5814367ec25","","684","
                <div class=""stimulus-container"">
                    <img src=""images/schematic_sequence/flight_scheme/flight_scheme_7.png"" class=""exp-image"">
                    <div class=""question-area"">
                        <p style=""font-size: 20px; font-weight: bold; margin: 0;"">Is there a person in this image?</p>
                    </div>
                </div>","1","main_experiment_trial","7","flight_scheme","schematic_sequence","","","",""
"","","","","","html-keyboard-response","94","988050","0.0-94.0","416EBD8D331F46B39221A4C38A815F35","019cef9c-bf63-74f1-acdd-f2538addcae3","019cef87-c56d-7b55-9135-c5814367ec25","","null","
                <div class=""stimulus-container"">
                    <img src=""images/schematic_sequence/flight_scheme/flight_scheme_8.png"" class=""exp-image"">
                    <div class=""question-area""></div> 
                </div>","null","","","","","","","",""
"","","","","","html-button-response","95","988880","0.0-95.0","416EBD8D331F46B39221A4C38A815F35","019cef9c-bf63-74f1-acdd-f2538addcae3","019cef87-c56d-7b55-9135-c5814367ec25","","830","
                <div class=""stimulus-container"">
                    <img src=""images/schematic_sequence/flight_scheme/flight_scheme_8.png"" class=""exp-image"">
                    <div class=""question-area"">
                        <p style=""font-size: 20px; font-weight: bold; margin: 0;"">Is there a person in this image?</p>
                    </div>
                </div>","1","main_experiment_trial","8","flight_scheme","schematic_sequence","","","",""
"","","","","","html-keyboard-response","96","993882","0.0-96.0","416EBD8D331F46B39221A4C38A815F35","019cef9c-bf63-74f1-acdd-f2538addcae3","019cef87-c56d-7b55-9135-c5814367ec25","","null","
                <div class=""stimulus-container"">
                    <img src=""images/schematic_sequence/flight_scheme/flight_scheme_9.png"" class=""exp-image"">
                    <div class=""question-area""></div> 
                </div>","null","","","","","","","",""
"","","","","","html-button-response","97","995072","0.0-97.0","416EBD8D331F46B39221A4C38A815F35","019cef9c-bf63-74f1-acdd-f2538addcae3","019cef87-c56d-7b55-9135-c5814367ec25","","1189","
                <div class=""stimulus-container"">
                    <img src=""images/schematic_sequence/flight_scheme/flight_scheme_9.png"" class=""exp-image"">
                    <div class=""question-area"">
                        <p style=""font-size: 20px; font-weight: bold; margin: 0;"">Is there a person in this image?</p>
                    </div>
                </div>","0","main_experiment_trial","9","flight_scheme","schematic_sequence","","","",""
"","","","","","html-keyboard-response","98","1000077","0.0-98.0","416EBD8D331F46B39221A4C38A815F35","019cef9c-bf63-74f1-acdd-f2538addcae3","019cef87-c56d-7b55-9135-c5814367ec25","","null","
                <div class=""stimulus-container"">
                    <img src=""images/schematic_sequence/flight_scheme/flight_scheme_ten.png"" class=""exp-image"">
                    <div class=""question-area""></div> 
                </div>","null","","","","","","","",""
"","","","","","html-button-response","99","1001391","0.0-99.0","416EBD8D331F46B39221A4C38A815F35","019cef9c-bf63-74f1-acdd-f2538addcae3","019cef87-c56d-7b55-9135-c5814367ec25","","1314","
                <div class=""stimulus-container"">
                    <img src=""images/schematic_sequence/flight_scheme/flight_scheme_ten.png"" class=""exp-image"">
                    <div class=""question-area"">
                        <p style=""font-size: 20px; font-weight: bold; margin: 0;"">Is there a person in this image?</p>
                    </div>
                </div>","0","main_experiment_trial","ten","flight_scheme","schematic_sequence","","","",""
"","","","","","html-keyboard-response","100","1002392","0.0-100.0","416EBD8D331F46B39221A4C38A815F35","019cef9c-bf63-74f1-acdd-f2538addcae3","019cef87-c56d-7b55-9135-c5814367ec25","","null","<div style=""background-color: white; width: 100vw; height: 100vh;""></div>","null","","","","","","","",""
"","","","","","html-keyboard-response","101","1007394","0.0-101.0","416EBD8D331F46B39221A4C38A815F35","019cef9c-bf63-74f1-acdd-f2538addcae3","019cef87-c56d-7b55-9135-c5814367ec25","","null","
                <div class=""stimulus-container"">
                    <img src=""images/schematic_sequence/restaurant_scheme/restaurant_scheme_1.png"" class=""exp-image"">
                    <div class=""question-area""></div> 
                </div>","null","","","","","","","",""
"","","","","","html-button-response","102","1008337","0.0-102.0","416EBD8D331F46B39221A4C38A815F35","019cef9c-bf63-74f1-acdd-f2538addcae3","019cef87-c56d-7b55-9135-c5814367ec25","","942","
                <div class=""stimulus-container"">
                    <img src=""images/schematic_sequence/restaurant_scheme/restaurant_scheme_1.png"" class=""exp-image"">
                    <div class=""question-area"">
                        <p style=""font-size: 20px; font-weight: bold; margin: 0;"">Is there a person in this image?</p>
                    </div>
                </div>","0","main_experiment_trial","1","restaurant_scheme","schematic_sequence","","","",""
"","","","","","html-keyboard-response","103","1013353","0.0-103.0","416EBD8D331F46B39221A4C38A815F35","019cef9c-bf63-74f1-acdd-f2538addcae3","019cef87-c56d-7b55-9135-c5814367ec25","","null","
                <div class=""stimulus-container"">
                    <img src=""images/schematic_sequence/restaurant_scheme/restaurant_scheme_2.png"" class=""exp-image"">
                    <div class=""question-area""></div> 
                </div>","null","","","","","","","",""
"","","","","","html-button-response","104","1016027","0.0-104.0","416EBD8D331F46B39221A4C38A815F35","019cef9c-bf63-74f1-acdd-f2538addcae3","019cef87-c56d-7b55-9135-c5814367ec25","","2674","
                <div class=""stimulus-container"">
                    <img src=""images/schematic_sequence/restaurant_scheme/restaurant_scheme_2.png"" class=""exp-image"">
                    <div class=""question-area"">
                        <p style=""font-size: 20px; font-weight: bold; margin: 0;"">Is there a person in this image?</p>
                    </div>
                </div>","1","main_experiment_trial","2","restaurant_scheme","schematic_sequence","","","",""
"","","","","","html-keyboard-response","105","1021032","0.0-105.0","416EBD8D331F46B39221A4C38A815F35","019cef9c-bf63-74f1-acdd-f2538addcae3","019cef87-c56d-7b55-9135-c5814367ec25","","null","
                <div class=""stimulus-container"">
                    <img src=""images/schematic_sequence/restaurant_scheme/restaurant_scheme_3.png"" class=""exp-image"">
                    <div class=""question-area""></div> 
                </div>","null","","","","","","","",""
"","","","","","html-button-response","106","1021760","0.0-106.0","416EBD8D331F46B39221A4C38A815F35","019cef9c-bf63-74f1-acdd-f2538addcae3","019cef87-c56d-7b55-9135-c5814367ec25","","728","
                <div class=""stimulus-container"">
                    <img src=""images/schematic_sequence/restaurant_scheme/restaurant_scheme_3.png"" class=""exp-image"">
                    <div class=""question-area"">
                        <p style=""font-size: 20px; font-weight: bold; margin: 0;"">Is there a person in this image?</p>
                    </div>
                </div>","1","main_experiment_trial","3","restaurant_scheme","schematic_sequence","","","",""
"","","","","","html-keyboard-response","107","1026769","0.0-107.0","416EBD8D331F46B39221A4C38A815F35","019cef9c-bf63-74f1-acdd-f2538addcae3","019cef87-c56d-7b55-9135-c5814367ec25","","null","
                <div class=""stimulus-container"">
                    <img src=""images/schematic_sequence/restaurant_scheme/restaurant_scheme_4.png"" class=""exp-image"">
                    <div class=""question-area""></div> 
                </div>","null","","","","","","","",""
"","","","","","html-button-response","108","1027605","0.0-108.0","416EBD8D331F46B39221A4C38A815F35","019cef9c-bf63-74f1-acdd-f2538addcae3","019cef87-c56d-7b55-9135-c5814367ec25","","835","
                <div class=""stimulus-container"">
                    <img src=""images/schematic_sequence/restaurant_scheme/restaurant_scheme_4.png"" class=""exp-image"">
                    <div class=""question-area"">
                        <p style=""font-size: 20px; font-weight: bold; margin: 0;"">Is there a person in this image?</p>
                    </div>
                </div>","0","main_experiment_trial","4","restaurant_scheme","schematic_sequence","","","",""
"","","","","","html-keyboard-response","109","1032621","0.0-109.0","416EBD8D331F46B39221A4C38A815F35","019cef9c-bf63-74f1-acdd-f2538addcae3","019cef87-c56d-7b55-9135-c5814367ec25","","null","
                <div class=""stimulus-container"">
                    <img src=""images/schematic_sequence/restaurant_scheme/restaurant_scheme_5.png"" class=""exp-image"">
                    <div class=""question-area""></div> 
                </div>","null","","","","","","","",""
"","","","","","html-button-response","110","1033656","0.0-110.0","416EBD8D331F46B39221A4C38A815F35","019cef9c-bf63-74f1-acdd-f2538addcae3","019cef87-c56d-7b55-9135-c5814367ec25","","1034","
                <div class=""stimulus-container"">
                    <img src=""images/schematic_sequence/restaurant_scheme/restaurant_scheme_5.png"" class=""exp-image"">
                    <div class=""question-area"">
                        <p style=""font-size: 20px; font-weight: bold; margin: 0;"">Is there a person in this image?</p>
                    </div>
                </div>","0","main_experiment_trial","5","restaurant_scheme","schematic_sequence","","","",""
"","","","","","html-keyboard-response","111","1038671","0.0-111.0","416EBD8D331F46B39221A4C38A815F35","019cef9c-bf63-74f1-acdd-f2538addcae3","019cef87-c56d-7b55-9135-c5814367ec25","","null","
                <div class=""stimulus-container"">
                    <img src=""images/schematic_sequence/restaurant_scheme/restaurant_scheme_6.png"" class=""exp-image"">
                    <div class=""question-area""></div> 
                </div>","null","","","","","","","",""
"","","","","","html-button-response","112","1041316","0.0-112.0","416EBD8D331F46B39221A4C38A815F35","019cef9c-bf63-74f1-acdd-f2538addcae3","019cef87-c56d-7b55-9135-c5814367ec25","","2644","
                <div class=""stimulus-container"">
                    <img src=""images/schematic_sequence/restaurant_scheme/restaurant_scheme_6.png"" class=""exp-image"">
                    <div class=""question-area"">
                        <p style=""font-size: 20px; font-weight: bold; margin: 0;"">Is there a person in this image?</p>
                    </div>
                </div>","1","main_experiment_trial","6","restaurant_scheme","schematic_sequence","","","",""
"","","","","","html-keyboard-response","113","1046319","0.0-113.0","416EBD8D331F46B39221A4C38A815F35","019cef9c-bf63-74f1-acdd-f2538addcae3","019cef87-c56d-7b55-9135-c5814367ec25","","null","
                <div class=""stimulus-container"">
                    <img src=""images/schematic_sequence/restaurant_scheme/restaurant_scheme_7.png"" class=""exp-image"">
                    <div class=""question-area""></div> 
                </div>","null","","","","","","","",""
"","","","","","html-button-response","114","1046979","0.0-114.0","416EBD8D331F46B39221A4C38A815F35","019cef9c-bf63-74f1-acdd-f2538addcae3","019cef87-c56d-7b55-9135-c5814367ec25","","659","
                <div class=""stimulus-container"">
                    <img src=""images/schematic_sequence/restaurant_scheme/restaurant_scheme_7.png"" class=""exp-image"">
                    <div class=""question-area"">
                        <p style=""font-size: 20px; font-weight: bold; margin: 0;"">Is there a person in this image?</p>
                    </div>
                </div>","1","main_experiment_trial","7","restaurant_scheme","schematic_sequence","","","",""
"","","","","","html-keyboard-response","115","1051988","0.0-115.0","416EBD8D331F46B39221A4C38A815F35","019cef9c-bf63-74f1-acdd-f2538addcae3","019cef87-c56d-7b55-9135-c5814367ec25","","null","
                <div class=""stimulus-container"">
                    <img src=""images/schematic_sequence/restaurant_scheme/restaurant_scheme_8.png"" class=""exp-image"">
                    <div class=""question-area""></div> 
                </div>","null","","","","","","","",""
"","","","","","html-button-response","116","1052752","0.0-116.0","416EBD8D331F46B39221A4C38A815F35","019cef9c-bf63-74f1-acdd-f2538addcae3","019cef87-c56d-7b55-9135-c5814367ec25","","764","
                <div class=""stimulus-container"">
                    <img src=""images/schematic_sequence/restaurant_scheme/restaurant_scheme_8.png"" class=""exp-image"">
                    <div class=""question-area"">
                        <p style=""font-size: 20px; font-weight: bold; margin: 0;"">Is there a person in this image?</p>
                    </div>
                </div>","0","main_experiment_trial","8","restaurant_scheme","schematic_sequence","","","",""
"","","","","","html-keyboard-response","117","1057763","0.0-117.0","416EBD8D331F46B39221A4C38A815F35","019cef9c-bf63-74f1-acdd-f2538addcae3","019cef87-c56d-7b55-9135-c5814367ec25","","null","
                <div class=""stimulus-container"">
                    <img src=""images/schematic_sequence/restaurant_scheme/restaurant_scheme_9.png"" class=""exp-image"">
                    <div class=""question-area""></div> 
                </div>","null","","","","","","","",""
"","","","","","html-button-response","118","1058352","0.0-118.0","416EBD8D331F46B39221A4C38A815F35","019cef9c-bf63-74f1-acdd-f2538addcae3","019cef87-c56d-7b55-9135-c5814367ec25","","588","
                <div class=""stimulus-container"">
                    <img src=""images/schematic_sequence/restaurant_scheme/restaurant_scheme_9.png"" class=""exp-image"">
                    <div class=""question-area"">
                        <p style=""font-size: 20px; font-weight: bold; margin: 0;"">Is there a person in this image?</p>
                    </div>
                </div>","0","main_experiment_trial","9","restaurant_scheme","schematic_sequence","","","",""
"","","","","","html-keyboard-response","119","1063357","0.0-119.0","416EBD8D331F46B39221A4C38A815F35","019cef9c-bf63-74f1-acdd-f2538addcae3","019cef87-c56d-7b55-9135-c5814367ec25","","null","
                <div class=""stimulus-container"">
                    <img src=""images/schematic_sequence/restaurant_scheme/restaurant_scheme_ten.png"" class=""exp-image"">
                    <div class=""question-area""></div> 
                </div>","null","","","","","","","",""
"","","","","","html-button-response","120","1064281","0.0-120.0","416EBD8D331F46B39221A4C38A815F35","019cef9c-bf63-74f1-acdd-f2538addcae3","019cef87-c56d-7b55-9135-c5814367ec25","","924","
                <div class=""stimulus-container"">
                    <img src=""images/schematic_sequence/restaurant_scheme/restaurant_scheme_ten.png"" class=""exp-image"">
                    <div class=""question-area"">
                        <p style=""font-size: 20px; font-weight: bold; margin: 0;"">Is there a person in this image?</p>
                    </div>
                </div>","0","main_experiment_trial","ten","restaurant_scheme","schematic_sequence","","","",""
"","","","","","html-keyboard-response","121","1065292","0.0-121.0","416EBD8D331F46B39221A4C38A815F35","019cef9c-bf63-74f1-acdd-f2538addcae3","019cef87-c56d-7b55-9135-c5814367ec25","","null","<div style=""background-color: white; width: 100vw; height: 100vh;""></div>","null","","","","","","","",""
"","","","","","html-keyboard-response","122","1070293","0.0-122.0","416EBD8D331F46B39221A4C38A815F35","019cef9c-bf63-74f1-acdd-f2538addcae3","019cef87-c56d-7b55-9135-c5814367ec25","","null","
                <div class=""stimulus-container"">
                    <img src=""images/schematic_sequence/interview_scheme/interview_scheme_1.png"" class=""exp-image"">
                    <div class=""question-area""></div> 
                </div>","null","","","","","","","",""
"","","","","","html-button-response","123","1071226","0.0-123.0","416EBD8D331F46B39221A4C38A815F35","019cef9c-bf63-74f1-acdd-f2538addcae3","019cef87-c56d-7b55-9135-c5814367ec25","","932","
                <div class=""stimulus-container"">
                    <img src=""images/schematic_sequence/interview_scheme/interview_scheme_1.png"" class=""exp-image"">
                    <div class=""question-area"">
                        <p style=""font-size: 20px; font-weight: bold; margin: 0;"">Is there a person in this image?</p>
                    </div>
                </div>","1","main_experiment_trial","1","interview_scheme","schematic_sequence","","","",""
"","","","","","html-keyboard-response","124","1076240","0.0-124.0","416EBD8D331F46B39221A4C38A815F35","019cef9c-bf63-74f1-acdd-f2538addcae3","019cef87-c56d-7b55-9135-c5814367ec25","","null","
                <div class=""stimulus-container"">
                    <img src=""images/schematic_sequence/interview_scheme/interview_scheme_2.png"" class=""exp-image"">
                    <div class=""question-area""></div> 
                </div>","null","","","","","","","",""
"","","","","","html-button-response","125","1076673","0.0-125.0","416EBD8D331F46B39221A4C38A815F35","019cef9c-bf63-74f1-acdd-f2538addcae3","019cef87-c56d-7b55-9135-c5814367ec25","","432","
                <div class=""stimulus-container"">
                    <img src=""images/schematic_sequence/interview_scheme/interview_scheme_2.png"" class=""exp-image"">
                    <div class=""question-area"">
                        <p style=""font-size: 20px; font-weight: bold; margin: 0;"">Is there a person in this image?</p>
                    </div>
                </div>","0","main_experiment_trial","2","interview_scheme","schematic_sequence","","","",""
"","","","","","html-keyboard-response","126","1081684","0.0-126.0","416EBD8D331F46B39221A4C38A815F35","019cef9c-bf63-74f1-acdd-f2538addcae3","019cef87-c56d-7b55-9135-c5814367ec25","","null","
                <div class=""stimulus-container"">
                    <img src=""images/schematic_sequence/interview_scheme/interview_scheme_3.png"" class=""exp-image"">
                    <div class=""question-area""></div> 
                </div>","null","","","","","","","",""
"","","","","","html-button-response","127","1082265","0.0-127.0","416EBD8D331F46B39221A4C38A815F35","019cef9c-bf63-74f1-acdd-f2538addcae3","019cef87-c56d-7b55-9135-c5814367ec25","","581","
                <div class=""stimulus-container"">
                    <img src=""images/schematic_sequence/interview_scheme/interview_scheme_3.png"" class=""exp-image"">
                    <div class=""question-area"">
                        <p style=""font-size: 20px; font-weight: bold; margin: 0;"">Is there a person in this image?</p>
                    </div>
                </div>","1","main_experiment_trial","3","interview_scheme","schematic_sequence","","","",""
"","","","","","html-keyboard-response","128","1087284","0.0-128.0","416EBD8D331F46B39221A4C38A815F35","019cef9c-bf63-74f1-acdd-f2538addcae3","019cef87-c56d-7b55-9135-c5814367ec25","","null","
                <div class=""stimulus-container"">
                    <img src=""images/schematic_sequence/interview_scheme/interview_scheme_4.png"" class=""exp-image"">
                    <div class=""question-area""></div> 
                </div>","null","","","","","","","",""
"","","","","","html-button-response","129","1087792","0.0-129.0","416EBD8D331F46B39221A4C38A815F35","019cef9c-bf63-74f1-acdd-f2538addcae3","019cef87-c56d-7b55-9135-c5814367ec25","","507","
                <div class=""stimulus-container"">
                    <img src=""images/schematic_sequence/interview_scheme/interview_scheme_4.png"" class=""exp-image"">
                    <div class=""question-area"">
                        <p style=""font-size: 20px; font-weight: bold; margin: 0;"">Is there a person in this image?</p>
                    </div>
                </div>","1","main_experiment_trial","4","interview_scheme","schematic_sequence","","","",""
"","","","","","html-keyboard-response","130","1092798","0.0-130.0","416EBD8D331F46B39221A4C38A815F35","019cef9c-bf63-74f1-acdd-f2538addcae3","019cef87-c56d-7b55-9135-c5814367ec25","","null","
                <div class=""stimulus-container"">
                    <img src=""images/schematic_sequence/interview_scheme/interview_scheme_5.png"" class=""exp-image"">
                    <div class=""question-area""></div> 
                </div>","null","","","","","","","",""
"","","","","","html-button-response","131","1093419","0.0-131.0","416EBD8D331F46B39221A4C38A815F35","019cef9c-bf63-74f1-acdd-f2538addcae3","019cef87-c56d-7b55-9135-c5814367ec25","","620","
                <div class=""stimulus-container"">
                    <img src=""images/schematic_sequence/interview_scheme/interview_scheme_5.png"" class=""exp-image"">
                    <div class=""question-area"">
                        <p style=""font-size: 20px; font-weight: bold; margin: 0;"">Is there a person in this image?</p>
                    </div>
                </div>","0","main_experiment_trial","5","interview_scheme","schematic_sequence","","","",""
"","","","","","html-keyboard-response","132","1098430","0.0-132.0","416EBD8D331F46B39221A4C38A815F35","019cef9c-bf63-74f1-acdd-f2538addcae3","019cef87-c56d-7b55-9135-c5814367ec25","","null","
                <div class=""stimulus-container"">
                    <img src=""images/schematic_sequence/interview_scheme/interview_scheme_6.png"" class=""exp-image"">
                    <div class=""question-area""></div> 
                </div>","null","","","","","","","",""
"","","","","","html-button-response","133","1098868","0.0-133.0","416EBD8D331F46B39221A4C38A815F35","019cef9c-bf63-74f1-acdd-f2538addcae3","019cef87-c56d-7b55-9135-c5814367ec25","","437","
                <div class=""stimulus-container"">
                    <img src=""images/schematic_sequence/interview_scheme/interview_scheme_6.png"" class=""exp-image"">
                    <div class=""question-area"">
                        <p style=""font-size: 20px; font-weight: bold; margin: 0;"">Is there a person in this image?</p>
                    </div>
                </div>","0","main_experiment_trial","6","interview_scheme","schematic_sequence","","","",""
"","","","","","html-keyboard-response","134","1103883","0.0-134.0","416EBD8D331F46B39221A4C38A815F35","019cef9c-bf63-74f1-acdd-f2538addcae3","019cef87-c56d-7b55-9135-c5814367ec25","","null","
                <div class=""stimulus-container"">
                    <img src=""images/schematic_sequence/interview_scheme/interview_scheme_7.png"" class=""exp-image"">
                    <div class=""question-area""></div> 
                </div>","null","","","","","","","",""
"","","","","","html-button-response","135","1104556","0.0-135.0","416EBD8D331F46B39221A4C38A815F35","019cef9c-bf63-74f1-acdd-f2538addcae3","019cef87-c56d-7b55-9135-c5814367ec25","","672","
                <div class=""stimulus-container"">
                    <img src=""images/schematic_sequence/interview_scheme/interview_scheme_7.png"" class=""exp-image"">
                    <div class=""question-area"">
                        <p style=""font-size: 20px; font-weight: bold; margin: 0;"">Is there a person in this image?</p>
                    </div>
                </div>","0","main_experiment_trial","7","interview_scheme","schematic_sequence","","","",""
"","","","","","html-keyboard-response","136","1109557","0.0-136.0","416EBD8D331F46B39221A4C38A815F35","019cef9c-bf63-74f1-acdd-f2538addcae3","019cef87-c56d-7b55-9135-c5814367ec25","","null","
                <div class=""stimulus-container"">
                    <img src=""images/schematic_sequence/interview_scheme/interview_scheme_8.png"" class=""exp-image"">
                    <div class=""question-area""></div> 
                </div>","null","","","","","","","",""
"","","","","","html-button-response","137","1109983","0.0-137.0","416EBD8D331F46B39221A4C38A815F35","019cef9c-bf63-74f1-acdd-f2538addcae3","019cef87-c56d-7b55-9135-c5814367ec25","","425","
                <div class=""stimulus-container"">
                    <img src=""images/schematic_sequence/interview_scheme/interview_scheme_8.png"" class=""exp-image"">
                    <div class=""question-area"">
                        <p style=""font-size: 20px; font-weight: bold; margin: 0;"">Is there a person in this image?</p>
                    </div>
                </div>","0","main_experiment_trial","8","interview_scheme","schematic_sequence","","","",""
"","","","","","html-keyboard-response","138","1114989","0.0-138.0","416EBD8D331F46B39221A4C38A815F35","019cef9c-bf63-74f1-acdd-f2538addcae3","019cef87-c56d-7b55-9135-c5814367ec25","","null","
                <div class=""stimulus-container"">
                    <img src=""images/schematic_sequence/interview_scheme/interview_scheme_9.png"" class=""exp-image"">
                    <div class=""question-area""></div> 
                </div>","null","","","","","","","",""
"","","","","","html-button-response","139","1115687","0.0-139.0","416EBD8D331F46B39221A4C38A815F35","019cef9c-bf63-74f1-acdd-f2538addcae3","019cef87-c56d-7b55-9135-c5814367ec25","","698","
                <div class=""stimulus-container"">
                    <img src=""images/schematic_sequence/interview_scheme/interview_scheme_9.png"" class=""exp-image"">
                    <div class=""question-area"">
                        <p style=""font-size: 20px; font-weight: bold; margin: 0;"">Is there a person in this image?</p>
                    </div>
                </div>","1","main_experiment_trial","9","interview_scheme","schematic_sequence","","","",""
"","","","","","html-keyboard-response","140","1120688","0.0-140.0","416EBD8D331F46B39221A4C38A815F35","019cef9c-bf63-74f1-acdd-f2538addcae3","019cef87-c56d-7b55-9135-c5814367ec25","","null","
                <div class=""stimulus-container"">
                    <img src=""images/schematic_sequence/interview_scheme/interview_scheme_ten.png"" class=""exp-image"">
                    <div class=""question-area""></div> 
                </div>","null","","","","","","","",""
"","","","","","html-button-response","141","1121321","0.0-141.0","416EBD8D331F46B39221A4C38A815F35","019cef9c-bf63-74f1-acdd-f2538addcae3","019cef87-c56d-7b55-9135-c5814367ec25","","632","
                <div class=""stimulus-container"">
                    <img src=""images/schematic_sequence/interview_scheme/interview_scheme_ten.png"" class=""exp-image"">
                    <div class=""question-area"">
                        <p style=""font-size: 20px; font-weight: bold; margin: 0;"">Is there a person in this image?</p>
                    </div>
                </div>","0","main_experiment_trial","ten","interview_scheme","schematic_sequence","","","",""
"","","","","","html-keyboard-response","142","1122330","0.0-142.0","416EBD8D331F46B39221A4C38A815F35","019cef9c-bf63-74f1-acdd-f2538addcae3","019cef87-c56d-7b55-9135-c5814367ec25","","null","<div style=""background-color: white; width: 100vw; height: 100vh;""></div>","null","","","","","","","",""
"","","","","","html-keyboard-response","143","1127335","0.0-143.0","416EBD8D331F46B39221A4C38A815F35","019cef9c-bf63-74f1-acdd-f2538addcae3","019cef87-c56d-7b55-9135-c5814367ec25","","null","
                <div class=""stimulus-container"">
                    <img src=""images/schematic_sequence/dinner_party_scheme/dinner_party_scheme_1.png"" class=""exp-image"">
                    <div class=""question-area""></div> 
                </div>","null","","","","","","","",""
"","","","","","html-button-response","144","1127818","0.0-144.0","416EBD8D331F46B39221A4C38A815F35","019cef9c-bf63-74f1-acdd-f2538addcae3","019cef87-c56d-7b55-9135-c5814367ec25","","482","
                <div class=""stimulus-container"">
                    <img src=""images/schematic_sequence/dinner_party_scheme/dinner_party_scheme_1.png"" class=""exp-image"">
                    <div class=""question-area"">
                        <p style=""font-size: 20px; font-weight: bold; margin: 0;"">Is there a person in this image?</p>
                    </div>
                </div>","0","main_experiment_trial","1","dinner_party_scheme","schematic_sequence","","","",""
"","","","","","html-keyboard-response","145","1132828","0.0-145.0","416EBD8D331F46B39221A4C38A815F35","019cef9c-bf63-74f1-acdd-f2538addcae3","019cef87-c56d-7b55-9135-c5814367ec25","","null","
                <div class=""stimulus-container"">
                    <img src=""images/schematic_sequence/dinner_party_scheme/dinner_party_scheme_2.png"" class=""exp-image"">
                    <div class=""question-area""></div> 
                </div>","null","","","","","","","",""
"","","","","","html-button-response","146","1134371","0.0-146.0","416EBD8D331F46B39221A4C38A815F35","019cef9c-bf63-74f1-acdd-f2538addcae3","019cef87-c56d-7b55-9135-c5814367ec25","","1543","
                <div class=""stimulus-container"">
                    <img src=""images/schematic_sequence/dinner_party_scheme/dinner_party_scheme_2.png"" class=""exp-image"">
                    <div class=""question-area"">
                        <p style=""font-size: 20px; font-weight: bold; margin: 0;"">Is there a person in this image?</p>
                    </div>
                </div>","0","main_experiment_trial","2","dinner_party_scheme","schematic_sequence","","","",""
"","","","","","html-keyboard-response","147","1139375","0.0-147.0","416EBD8D331F46B39221A4C38A815F35","019cef9c-bf63-74f1-acdd-f2538addcae3","019cef87-c56d-7b55-9135-c5814367ec25","","null","
                <div class=""stimulus-container"">
                    <img src=""images/schematic_sequence/dinner_party_scheme/dinner_party_scheme_3.png"" class=""exp-image"">
                    <div class=""question-area""></div> 
                </div>","null","","","","","","","",""
"","","","","","html-button-response","148","1139845","0.0-148.0","416EBD8D331F46B39221A4C38A815F35","019cef9c-bf63-74f1-acdd-f2538addcae3","019cef87-c56d-7b55-9135-c5814367ec25","","470","
                <div class=""stimulus-container"">
                    <img src=""images/schematic_sequence/dinner_party_scheme/dinner_party_scheme_3.png"" class=""exp-image"">
                    <div class=""question-area"">
                        <p style=""font-size: 20px; font-weight: bold; margin: 0;"">Is there a person in this image?</p>
                    </div>
                </div>","0","main_experiment_trial","3","dinner_party_scheme","schematic_sequence","","","",""
"","","","","","html-keyboard-response","149","1144859","0.0-149.0","416EBD8D331F46B39221A4C38A815F35","019cef9c-bf63-74f1-acdd-f2538addcae3","019cef87-c56d-7b55-9135-c5814367ec25","","null","
                <div class=""stimulus-container"">
                    <img src=""images/schematic_sequence/dinner_party_scheme/dinner_party_scheme_4.png"" class=""exp-image"">
                    <div class=""question-area""></div> 
                </div>","null","","","","","","","",""
"","","","","","html-button-response","150","1146024","0.0-150.0","416EBD8D331F46B39221A4C38A815F35","019cef9c-bf63-74f1-acdd-f2538addcae3","019cef87-c56d-7b55-9135-c5814367ec25","","1165","
                <div class=""stimulus-container"">
                    <img src=""images/schematic_sequence/dinner_party_scheme/dinner_party_scheme_4.png"" class=""exp-image"">
                    <div class=""question-area"">
                        <p style=""font-size: 20px; font-weight: bold; margin: 0;"">Is there a person in this image?</p>
                    </div>
                </div>","0","main_experiment_trial","4","dinner_party_scheme","schematic_sequence","","","",""
"","","","","","html-keyboard-response","151","1151038","0.0-151.0","416EBD8D331F46B39221A4C38A815F35","019cef9c-bf63-74f1-acdd-f2538addcae3","019cef87-c56d-7b55-9135-c5814367ec25","","null","
                <div class=""stimulus-container"">
                    <img src=""images/schematic_sequence/dinner_party_scheme/dinner_party_scheme_5.png"" class=""exp-image"">
                    <div class=""question-area""></div> 
                </div>","null","","","","","","","",""
"","","","","","html-button-response","152","1151473","0.0-152.0","416EBD8D331F46B39221A4C38A815F35","019cef9c-bf63-74f1-acdd-f2538addcae3","019cef87-c56d-7b55-9135-c5814367ec25","","434","
                <div class=""stimulus-container"">
                    <img src=""images/schematic_sequence/dinner_party_scheme/dinner_party_scheme_5.png"" class=""exp-image"">
                    <div class=""question-area"">
                        <p style=""font-size: 20px; font-weight: bold; margin: 0;"">Is there a person in this image?</p>
                    </div>
                </div>","0","main_experiment_trial","5","dinner_party_scheme","schematic_sequence","","","",""
"","","","","","html-keyboard-response","153","1156488","0.0-153.0","416EBD8D331F46B39221A4C38A815F35","019cef9c-bf63-74f1-acdd-f2538addcae3","019cef87-c56d-7b55-9135-c5814367ec25","","null","
                <div class=""stimulus-container"">
                    <img src=""images/schematic_sequence/dinner_party_scheme/dinner_party_scheme_6.png"" class=""exp-image"">
                    <div class=""question-area""></div> 
                </div>","null","","","","","","","",""
"","","","","","html-button-response","154","1157048","0.0-154.0","416EBD8D331F46B39221A4C38A815F35","019cef9c-bf63-74f1-acdd-f2538addcae3","019cef87-c56d-7b55-9135-c5814367ec25","","559","
                <div class=""stimulus-container"">
                    <img src=""images/schematic_sequence/dinner_party_scheme/dinner_party_scheme_6.png"" class=""exp-image"">
                    <div class=""question-area"">
                        <p style=""font-size: 20px; font-weight: bold; margin: 0;"">Is there a person in this image?</p>
                    </div>
                </div>","0","main_experiment_trial","6","dinner_party_scheme","schematic_sequence","","","",""
"","","","","","html-keyboard-response","155","1162049","0.0-155.0","416EBD8D331F46B39221A4C38A815F35","019cef9c-bf63-74f1-acdd-f2538addcae3","019cef87-c56d-7b55-9135-c5814367ec25","","null","
                <div class=""stimulus-container"">
                    <img src=""images/schematic_sequence/dinner_party_scheme/dinner_party_scheme_7.png"" class=""exp-image"">
                    <div class=""question-area""></div> 
                </div>","null","","","","","","","",""
"","","","","","html-button-response","156","1162649","0.0-156.0","416EBD8D331F46B39221A4C38A815F35","019cef9c-bf63-74f1-acdd-f2538addcae3","019cef87-c56d-7b55-9135-c5814367ec25","","599","
                <div class=""stimulus-container"">
                    <img src=""images/schematic_sequence/dinner_party_scheme/dinner_party_scheme_7.png"" class=""exp-image"">
                    <div class=""question-area"">
                        <p style=""font-size: 20px; font-weight: bold; margin: 0;"">Is there a person in this image?</p>
                    </div>
                </div>","0","main_experiment_trial","7","dinner_party_scheme","schematic_sequence","","","",""
"","","","","","html-keyboard-response","157","1167661","0.0-157.0","416EBD8D331F46B39221A4C38A815F35","019cef9c-bf63-74f1-acdd-f2538addcae3","019cef87-c56d-7b55-9135-c5814367ec25","","null","
                <div class=""stimulus-container"">
                    <img src=""images/schematic_sequence/dinner_party_scheme/dinner_party_scheme_8.png"" class=""exp-image"">
                    <div class=""question-area""></div> 
                </div>","null","","","","","","","",""
"","","","","","html-button-response","158","1168727","0.0-158.0","416EBD8D331F46B39221A4C38A815F35","019cef9c-bf63-74f1-acdd-f2538addcae3","019cef87-c56d-7b55-9135-c5814367ec25","","1066","
                <div class=""stimulus-container"">
                    <img src=""images/schematic_sequence/dinner_party_scheme/dinner_party_scheme_8.png"" class=""exp-image"">
                    <div class=""question-area"">
                        <p style=""font-size: 20px; font-weight: bold; margin: 0;"">Is there a person in this image?</p>
                    </div>
                </div>","0","main_experiment_trial","8","dinner_party_scheme","schematic_sequence","","","",""
"","","","","","html-keyboard-response","159","1173731","0.0-159.0","416EBD8D331F46B39221A4C38A815F35","019cef9c-bf63-74f1-acdd-f2538addcae3","019cef87-c56d-7b55-9135-c5814367ec25","","null","
                <div class=""stimulus-container"">
                    <img src=""images/schematic_sequence/dinner_party_scheme/dinner_party_scheme_9.png"" class=""exp-image"">
                    <div class=""question-area""></div> 
                </div>","null","","","","","","","",""
"","","","","","html-button-response","160","1175623","0.0-160.0","416EBD8D331F46B39221A4C38A815F35","019cef9c-bf63-74f1-acdd-f2538addcae3","019cef87-c56d-7b55-9135-c5814367ec25","","1891","
                <div class=""stimulus-container"">
                    <img src=""images/schematic_sequence/dinner_party_scheme/dinner_party_scheme_9.png"" class=""exp-image"">
                    <div class=""question-area"">
                        <p style=""font-size: 20px; font-weight: bold; margin: 0;"">Is there a person in this image?</p>
                    </div>
                </div>","0","main_experiment_trial","9","dinner_party_scheme","schematic_sequence","","","",""
"","","","","","html-keyboard-response","161","1180633","0.0-161.0","416EBD8D331F46B39221A4C38A815F35","019cef9c-bf63-74f1-acdd-f2538addcae3","019cef87-c56d-7b55-9135-c5814367ec25","","null","
                <div class=""stimulus-container"">
                    <img src=""images/schematic_sequence/dinner_party_scheme/dinner_party_scheme_ten.png"" class=""exp-image"">
                    <div class=""question-area""></div> 
                </div>","null","","","","","","","",""
"","","","","","html-button-response","162","1181446","0.0-162.0","416EBD8D331F46B39221A4C38A815F35","019cef9c-bf63-74f1-acdd-f2538addcae3","019cef87-c56d-7b55-9135-c5814367ec25","","812","
                <div class=""stimulus-container"">
                    <img src=""images/schematic_sequence/dinner_party_scheme/dinner_party_scheme_ten.png"" class=""exp-image"">
                    <div class=""question-area"">
                        <p style=""font-size: 20px; font-weight: bold; margin: 0;"">Is there a person in this image?</p>
                    </div>
                </div>","0","main_experiment_trial","ten","dinner_party_scheme","schematic_sequence","","","",""
"","","","","","html-keyboard-response","163","1182456","0.0-163.0","416EBD8D331F46B39221A4C38A815F35","019cef9c-bf63-74f1-acdd-f2538addcae3","019cef87-c56d-7b55-9135-c5814367ec25","","null","<div style=""background-color: white; width: 100vw; height: 100vh;""></div>","null","","","","","","","",""
"","","","","","html-keyboard-response","164","1187464","0.0-164.0","416EBD8D331F46B39221A4C38A815F35","019cef9c-bf63-74f1-acdd-f2538addcae3","019cef87-c56d-7b55-9135-c5814367ec25","","null","
                <div class=""stimulus-container"">
                    <img src=""images/causal_sequence/saving_a_cat_causal/saving_a_cat_causal_1.png"" class=""exp-image"">
                    <div class=""question-area""></div> 
                </div>","null","","","","","","","",""
"","","","","","html-button-response","165","1188455","0.0-165.0","416EBD8D331F46B39221A4C38A815F35","019cef9c-bf63-74f1-acdd-f2538addcae3","019cef87-c56d-7b55-9135-c5814367ec25","","990","
                <div class=""stimulus-container"">
                    <img src=""images/causal_sequence/saving_a_cat_causal/saving_a_cat_causal_1.png"" class=""exp-image"">
                    <div class=""question-area"">
                        <p style=""font-size: 20px; font-weight: bold; margin: 0;"">Is there a person in this image?</p>
                    </div>
                </div>","0","main_experiment_trial","1","saving_a_cat_causal","causal_sequence","","","",""
"","","","","","html-keyboard-response","166","1193456","0.0-166.0","416EBD8D331F46B39221A4C38A815F35","019cef9c-bf63-74f1-acdd-f2538addcae3","019cef87-c56d-7b55-9135-c5814367ec25","","null","
                <div class=""stimulus-container"">
                    <img src=""images/causal_sequence/saving_a_cat_causal/saving_a_cat_causal_2.png"" class=""exp-image"">
                    <div class=""question-area""></div> 
                </div>","null","","","","","","","",""
"","","","","","html-button-response","167","1194074","0.0-167.0","416EBD8D331F46B39221A4C38A815F35","019cef9c-bf63-74f1-acdd-f2538addcae3","019cef87-c56d-7b55-9135-c5814367ec25","","617","
                <div class=""stimulus-container"">
                    <img src=""images/causal_sequence/saving_a_cat_causal/saving_a_cat_causal_2.png"" class=""exp-image"">
                    <div class=""question-area"">
                        <p style=""font-size: 20px; font-weight: bold; margin: 0;"">Is there a person in this image?</p>
                    </div>
                </div>","1","main_experiment_trial","2","saving_a_cat_causal","causal_sequence","","","",""
"","","","","","html-keyboard-response","168","1199082","0.0-168.0","416EBD8D331F46B39221A4C38A815F35","019cef9c-bf63-74f1-acdd-f2538addcae3","019cef87-c56d-7b55-9135-c5814367ec25","","null","
                <div class=""stimulus-container"">
                    <img src=""images/causal_sequence/saving_a_cat_causal/saving_a_cat_causal_3.png"" class=""exp-image"">
                    <div class=""question-area""></div> 
                </div>","null","","","","","","","",""
"","","","","","html-button-response","169","1199530","0.0-169.0","416EBD8D331F46B39221A4C38A815F35","019cef9c-bf63-74f1-acdd-f2538addcae3","019cef87-c56d-7b55-9135-c5814367ec25","","447","
                <div class=""stimulus-container"">
                    <img src=""images/causal_sequence/saving_a_cat_causal/saving_a_cat_causal_3.png"" class=""exp-image"">
                    <div class=""question-area"">
                        <p style=""font-size: 20px; font-weight: bold; margin: 0;"">Is there a person in this image?</p>
                    </div>
                </div>","1","main_experiment_trial","3","saving_a_cat_causal","causal_sequence","","","",""
"","","","","","html-keyboard-response","170","1204534","0.0-170.0","416EBD8D331F46B39221A4C38A815F35","019cef9c-bf63-74f1-acdd-f2538addcae3","019cef87-c56d-7b55-9135-c5814367ec25","","null","
                <div class=""stimulus-container"">
                    <img src=""images/causal_sequence/saving_a_cat_causal/saving_a_cat_causal_4.png"" class=""exp-image"">
                    <div class=""question-area""></div> 
                </div>","null","","","","","","","",""
"","","","","","html-button-response","171","1205229","0.0-171.0","416EBD8D331F46B39221A4C38A815F35","019cef9c-bf63-74f1-acdd-f2538addcae3","019cef87-c56d-7b55-9135-c5814367ec25","","694","
                <div class=""stimulus-container"">
                    <img src=""images/causal_sequence/saving_a_cat_causal/saving_a_cat_causal_4.png"" class=""exp-image"">
                    <div class=""question-area"">
                        <p style=""font-size: 20px; font-weight: bold; margin: 0;"">Is there a person in this image?</p>
                    </div>
                </div>","0","main_experiment_trial","4","saving_a_cat_causal","causal_sequence","","","",""
"","","","","","html-keyboard-response","172","1210240","0.0-172.0","416EBD8D331F46B39221A4C38A815F35","019cef9c-bf63-74f1-acdd-f2538addcae3","019cef87-c56d-7b55-9135-c5814367ec25","","null","
                <div class=""stimulus-container"">
                    <img src=""images/causal_sequence/saving_a_cat_causal/saving_a_cat_causal_5.png"" class=""exp-image"">
                    <div class=""question-area""></div> 
                </div>","null","","","","","","","",""
"","","","","","html-button-response","173","1210753","0.0-173.0","416EBD8D331F46B39221A4C38A815F35","019cef9c-bf63-74f1-acdd-f2538addcae3","019cef87-c56d-7b55-9135-c5814367ec25","","512","
                <div class=""stimulus-container"">
                    <img src=""images/causal_sequence/saving_a_cat_causal/saving_a_cat_causal_5.png"" class=""exp-image"">
                    <div class=""question-area"">
                        <p style=""font-size: 20px; font-weight: bold; margin: 0;"">Is there a person in this image?</p>
                    </div>
                </div>","0","main_experiment_trial","5","saving_a_cat_causal","causal_sequence","","","",""
"","","","","","html-keyboard-response","174","1215769","0.0-174.0","416EBD8D331F46B39221A4C38A815F35","019cef9c-bf63-74f1-acdd-f2538addcae3","019cef87-c56d-7b55-9135-c5814367ec25","","null","
                <div class=""stimulus-container"">
                    <img src=""images/causal_sequence/saving_a_cat_causal/saving_a_cat_causal_6.png"" class=""exp-image"">
                    <div class=""question-area""></div> 
                </div>","null","","","","","","","",""
"","","","","","html-button-response","175","1216267","0.0-175.0","416EBD8D331F46B39221A4C38A815F35","019cef9c-bf63-74f1-acdd-f2538addcae3","019cef87-c56d-7b55-9135-c5814367ec25","","498","
                <div class=""stimulus-container"">
                    <img src=""images/causal_sequence/saving_a_cat_causal/saving_a_cat_causal_6.png"" class=""exp-image"">
                    <div class=""question-area"">
                        <p style=""font-size: 20px; font-weight: bold; margin: 0;"">Is there a person in this image?</p>
                    </div>
                </div>","0","main_experiment_trial","6","saving_a_cat_causal","causal_sequence","","","",""
"","","","","","html-keyboard-response","176","1221275","0.0-176.0","416EBD8D331F46B39221A4C38A815F35","019cef9c-bf63-74f1-acdd-f2538addcae3","019cef87-c56d-7b55-9135-c5814367ec25","","null","
                <div class=""stimulus-container"">
                    <img src=""images/causal_sequence/saving_a_cat_causal/saving_a_cat_causal_7.png"" class=""exp-image"">
                    <div class=""question-area""></div> 
                </div>","null","","","","","","","",""
"","","","","","html-button-response","177","1221726","0.0-177.0","416EBD8D331F46B39221A4C38A815F35","019cef9c-bf63-74f1-acdd-f2538addcae3","019cef87-c56d-7b55-9135-c5814367ec25","","450","
                <div class=""stimulus-container"">
                    <img src=""images/causal_sequence/saving_a_cat_causal/saving_a_cat_causal_7.png"" class=""exp-image"">
                    <div class=""question-area"">
                        <p style=""font-size: 20px; font-weight: bold; margin: 0;"">Is there a person in this image?</p>
                    </div>
                </div>","0","main_experiment_trial","7","saving_a_cat_causal","causal_sequence","","","",""
"","","","","","html-keyboard-response","178","1226739","0.0-178.0","416EBD8D331F46B39221A4C38A815F35","019cef9c-bf63-74f1-acdd-f2538addcae3","019cef87-c56d-7b55-9135-c5814367ec25","","null","
                <div class=""stimulus-container"">
                    <img src=""images/causal_sequence/saving_a_cat_causal/saving_a_cat_causal_8.png"" class=""exp-image"">
                    <div class=""question-area""></div> 
                </div>","null","","","","","","","",""
"","","","","","html-button-response","179","1227278","0.0-179.0","416EBD8D331F46B39221A4C38A815F35","019cef9c-bf63-74f1-acdd-f2538addcae3","019cef87-c56d-7b55-9135-c5814367ec25","","539","
                <div class=""stimulus-container"">
                    <img src=""images/causal_sequence/saving_a_cat_causal/saving_a_cat_causal_8.png"" class=""exp-image"">
                    <div class=""question-area"">
                        <p style=""font-size: 20px; font-weight: bold; margin: 0;"">Is there a person in this image?</p>
                    </div>
                </div>","0","main_experiment_trial","8","saving_a_cat_causal","causal_sequence","","","",""
"","","","","","html-keyboard-response","180","1232292","0.0-180.0","416EBD8D331F46B39221A4C38A815F35","019cef9c-bf63-74f1-acdd-f2538addcae3","019cef87-c56d-7b55-9135-c5814367ec25","","null","
                <div class=""stimulus-container"">
                    <img src=""images/causal_sequence/saving_a_cat_causal/saving_a_cat_causal_9.png"" class=""exp-image"">
                    <div class=""question-area""></div> 
                </div>","null","","","","","","","",""
"","","","","","html-button-response","181","1232718","0.0-181.0","416EBD8D331F46B39221A4C38A815F35","019cef9c-bf63-74f1-acdd-f2538addcae3","019cef87-c56d-7b55-9135-c5814367ec25","","425","
                <div class=""stimulus-container"">
                    <img src=""images/causal_sequence/saving_a_cat_causal/saving_a_cat_causal_9.png"" class=""exp-image"">
                    <div class=""question-area"">
                        <p style=""font-size: 20px; font-weight: bold; margin: 0;"">Is there a person in this image?</p>
                    </div>
                </div>","0","main_experiment_trial","9","saving_a_cat_causal","causal_sequence","","","",""
"","","","","","html-keyboard-response","182","1237731","0.0-182.0","416EBD8D331F46B39221A4C38A815F35","019cef9c-bf63-74f1-acdd-f2538addcae3","019cef87-c56d-7b55-9135-c5814367ec25","","null","
                <div class=""stimulus-container"">
                    <img src=""images/causal_sequence/saving_a_cat_causal/saving_a_cat_causal_ten.png"" class=""exp-image"">
                    <div class=""question-area""></div> 
                </div>","null","","","","","","","",""
"","","","","","html-button-response","183","1238130","0.0-183.0","416EBD8D331F46B39221A4C38A815F35","019cef9c-bf63-74f1-acdd-f2538addcae3","019cef87-c56d-7b55-9135-c5814367ec25","","399","
                <div class=""stimulus-container"">
                    <img src=""images/causal_sequence/saving_a_cat_causal/saving_a_cat_causal_ten.png"" class=""exp-image"">
                    <div class=""question-area"">
                        <p style=""font-size: 20px; font-weight: bold; margin: 0;"">Is there a person in this image?</p>
                    </div>
                </div>","0","main_experiment_trial","ten","saving_a_cat_causal","causal_sequence","","","",""
