"success","timeout","failed_images","failed_audio","failed_video","trial_type","trial_index","time_elapsed","internal_node_id","view_history","rt","stimulus","response","task","folder","sequence_type","img_idx","learned_X","value","comp_type","left_path","right_path"
"true","false","[]","[]","[]","preload","0","2632","0.0-0.0","","","","","","","","","","","","",""
"","","","","","instructions","1","47000","0.0-1.0","[{""page_index"":0,""viewing_time"":44367}]","44367","","","","","","","","","","",""
"","","","","","instructions","2","58208","0.0-2.0","[{""page_index"":0,""viewing_time"":11200}]","11209","","","","","","","","","","",""
"true","","","","","fullscreen","3","61836","0.0-3.0","","2625","","","","","","","","","","",""
"","","","","","instructions","4","66500","0.0-4.0","[{""page_index"":0,""viewing_time"":4663}]","4663","","","","","","","","","","",""
"","","","","","html-keyboard-response","5","68502","0.0-5.0","","null","<div class=""transition-square""></div>","null","","","","","","","","",""
"","","","","","html-keyboard-response","6","73504","0.0-6.0","","null","<div class=""stimulus-container""><img src=""images_story_vs_info/info_4_1.png"" class=""exp-image""><div class=""question-area""></div></div>","null","","","","","","","","",""
"","","","","","html-button-response","7","76507","0.0-7.0","","null","<div class=""stimulus-container""><img src=""images_story_vs_info/info_4_1.png"" class=""exp-image""><div class=""question-area""><p style=""font-size: 20px; font-weight: bold; margin: 0;"">Is there a person in this image?</p></div></div>","null","observation","info_4","info","1","","","","",""
"","","","","","html-keyboard-response","8","81509","0.0-8.0","","null","<div class=""stimulus-container""><img src=""images_story_vs_info/info_4_2.png"" class=""exp-image""><div class=""question-area""></div></div>","null","","","","","","","","",""
"","","","","","html-button-response","9","82383","0.0-9.0","","872","<div class=""stimulus-container""><img src=""images_story_vs_info/info_4_2.png"" class=""exp-image""><div class=""question-area""><p style=""font-size: 20px; font-weight: bold; margin: 0;"">Is there a person in this image?</p></div></div>","1","observation","info_4","info","2","","","","",""
"","","","","","html-keyboard-response","10","87385","0.0-10.0","","null","<div class=""stimulus-container""><img src=""images_story_vs_info/info_4_3.png"" class=""exp-image""><div class=""question-area""></div></div>","null","","","","","","","","",""
"","","","","","html-button-response","11","88133","0.0-11.0","","747","<div class=""stimulus-container""><img src=""images_story_vs_info/info_4_3.png"" class=""exp-image""><div class=""question-area""><p style=""font-size: 20px; font-weight: bold; margin: 0;"">Is there a person in this image?</p></div></div>","1","observation","info_4","info","3","","","","",""
"","","","","","html-keyboard-response","12","93134","0.0-12.0","","null","<div class=""stimulus-container""><img src=""images_story_vs_info/info_4_4.png"" class=""exp-image""><div class=""question-area""></div></div>","null","","","","","","","","",""
"","","","","","html-button-response","13","93700","0.0-13.0","","565","<div class=""stimulus-container""><img src=""images_story_vs_info/info_4_4.png"" class=""exp-image""><div class=""question-area""><p style=""font-size: 20px; font-weight: bold; margin: 0;"">Is there a person in this image?</p></div></div>","1","observation","info_4","info","4","","","","",""
"","","","","","html-keyboard-response","14","98702","0.0-14.0","","null","<div class=""stimulus-container""><img src=""images_story_vs_info/info_4_5.png"" class=""exp-image""><div class=""question-area""></div></div>","null","","","","","","","","",""
"","","","","","html-button-response","15","99367","0.0-15.0","","664","<div class=""stimulus-container""><img src=""images_story_vs_info/info_4_5.png"" class=""exp-image""><div class=""question-area""><p style=""font-size: 20px; font-weight: bold; margin: 0;"">Is there a person in this image?</p></div></div>","1","observation","info_4","info","5","","","","",""
"","","","","","html-keyboard-response","16","104368","0.0-16.0","","null","<div class=""stimulus-container""><img src=""images_story_vs_info/info_4_6_b.png"" class=""exp-image""><div class=""question-area""></div></div>","null","","","","","","","","",""
"","","","","","html-button-response","17","104950","0.0-17.0","","580","<div class=""stimulus-container""><img src=""images_story_vs_info/info_4_6_b.png"" class=""exp-image""><div class=""question-area""><p style=""font-size: 20px; font-weight: bold; margin: 0;"">Is there a person in this image?</p></div></div>","1","observation","info_4","info","6","","","","",""
"","","","","","html-keyboard-response","18","106952","0.0-18.0","","null","<div class=""transition-square""></div>","null","","","","","","","","",""
"","","","","","html-keyboard-response","19","111953","0.0-19.0","","null","<div class=""stimulus-container""><img src=""images_story_vs_info/info_1_1.png"" class=""exp-image""><div class=""question-area""></div></div>","null","","","","","","","","",""
"","","","","","html-button-response","20","112567","0.0-20.0","","612","<div class=""stimulus-container""><img src=""images_story_vs_info/info_1_1.png"" class=""exp-image""><div class=""question-area""><p style=""font-size: 20px; font-weight: bold; margin: 0;"">Is there a person in this image?</p></div></div>","1","observation","info_1","info","1","","","","",""
"","","","","","html-keyboard-response","21","117568","0.0-21.0","","null","<div class=""stimulus-container""><img src=""images_story_vs_info/info_1_2.png"" class=""exp-image""><div class=""question-area""></div></div>","null","","","","","","","","",""
"","","","","","html-button-response","22","118200","0.0-22.0","","631","<div class=""stimulus-container""><img src=""images_story_vs_info/info_1_2.png"" class=""exp-image""><div class=""question-area""><p style=""font-size: 20px; font-weight: bold; margin: 0;"">Is there a person in this image?</p></div></div>","1","observation","info_1","info","2","","","","",""
"","","","","","html-keyboard-response","23","123201","0.0-23.0","","null","<div class=""stimulus-container""><img src=""images_story_vs_info/info_1_3.png"" class=""exp-image""><div class=""question-area""></div></div>","null","","","","","","","","",""
"","","","","","html-button-response","24","123783","0.0-24.0","","581","<div class=""stimulus-container""><img src=""images_story_vs_info/info_1_3.png"" class=""exp-image""><div class=""question-area""><p style=""font-size: 20px; font-weight: bold; margin: 0;"">Is there a person in this image?</p></div></div>","1","observation","info_1","info","3","","","","",""
"","","","","","html-keyboard-response","25","128785","0.0-25.0","","null","<div class=""stimulus-container""><img src=""images_story_vs_info/info_1_4.png"" class=""exp-image""><div class=""question-area""></div></div>","null","","","","","","","","",""
"","","","","","html-button-response","26","129467","0.0-26.0","","681","<div class=""stimulus-container""><img src=""images_story_vs_info/info_1_4.png"" class=""exp-image""><div class=""question-area""><p style=""font-size: 20px; font-weight: bold; margin: 0;"">Is there a person in this image?</p></div></div>","1","observation","info_1","info","4","","","","",""
"","","","","","html-keyboard-response","27","134469","0.0-27.0","","null","<div class=""stimulus-container""><img src=""images_story_vs_info/info_1_5.png"" class=""exp-image""><div class=""question-area""></div></div>","null","","","","","","","","",""
"","","","","","html-button-response","28","135333","0.0-28.0","","863","<div class=""stimulus-container""><img src=""images_story_vs_info/info_1_5.png"" class=""exp-image""><div class=""question-area""><p style=""font-size: 20px; font-weight: bold; margin: 0;"">Is there a person in this image?</p></div></div>","1","observation","info_1","info","5","","","","",""
"","","","","","html-keyboard-response","29","140335","0.0-29.0","","null","<div class=""stimulus-container""><img src=""images_story_vs_info/info_1_6_b.png"" class=""exp-image""><div class=""question-area""></div></div>","null","","","","","","","","",""
"","","","","","html-button-response","30","141016","0.0-30.0","","681","<div class=""stimulus-container""><img src=""images_story_vs_info/info_1_6_b.png"" class=""exp-image""><div class=""question-area""><p style=""font-size: 20px; font-weight: bold; margin: 0;"">Is there a person in this image?</p></div></div>","1","observation","info_1","info","6","","","","",""
"","","","","","html-keyboard-response","31","143018","0.0-31.0","","null","<div class=""transition-square""></div>","null","","","","","","","","",""
"","","","","","html-keyboard-response","32","148020","0.0-32.0","","null","<div class=""stimulus-container""><img src=""images_story_vs_info/story_3_1.png"" class=""exp-image""><div class=""question-area""></div></div>","null","","","","","","","","",""
"","","","","","html-button-response","33","148600","0.0-33.0","","578","<div class=""stimulus-container""><img src=""images_story_vs_info/story_3_1.png"" class=""exp-image""><div class=""question-area""><p style=""font-size: 20px; font-weight: bold; margin: 0;"">Is there a person in this image?</p></div></div>","1","observation","story_3","story","1","","","","",""
"","","","","","html-keyboard-response","34","153602","0.0-34.0","","null","<div class=""stimulus-container""><img src=""images_story_vs_info/story_3_2.png"" class=""exp-image""><div class=""question-area""></div></div>","null","","","","","","","","",""
"","","","","","html-button-response","35","154233","0.0-35.0","","630","<div class=""stimulus-container""><img src=""images_story_vs_info/story_3_2.png"" class=""exp-image""><div class=""question-area""><p style=""font-size: 20px; font-weight: bold; margin: 0;"">Is there a person in this image?</p></div></div>","1","observation","story_3","story","2","","","","",""
"","","","","","html-keyboard-response","36","159235","0.0-36.0","","null","<div class=""stimulus-container""><img src=""images_story_vs_info/story_3_3.png"" class=""exp-image""><div class=""question-area""></div></div>","null","","","","","","","","",""
"","","","","","html-button-response","37","159883","0.0-37.0","","646","<div class=""stimulus-container""><img src=""images_story_vs_info/story_3_3.png"" class=""exp-image""><div class=""question-area""><p style=""font-size: 20px; font-weight: bold; margin: 0;"">Is there a person in this image?</p></div></div>","1","observation","story_3","story","3","","","","",""
"","","","","","html-keyboard-response","38","164885","0.0-38.0","","null","<div class=""stimulus-container""><img src=""images_story_vs_info/story_3_4.png"" class=""exp-image""><div class=""question-area""></div></div>","null","","","","","","","","",""
"","","","","","html-button-response","39","165550","0.0-39.0","","664","<div class=""stimulus-container""><img src=""images_story_vs_info/story_3_4.png"" class=""exp-image""><div class=""question-area""><p style=""font-size: 20px; font-weight: bold; margin: 0;"">Is there a person in this image?</p></div></div>","0","observation","story_3","story","4","","","","",""
"","","","","","html-keyboard-response","40","170551","0.0-40.0","","null","<div class=""stimulus-container""><img src=""images_story_vs_info/story_3_5.png"" class=""exp-image""><div class=""question-area""></div></div>","null","","","","","","","","",""
"","","","","","html-button-response","41","171133","0.0-41.0","","581","<div class=""stimulus-container""><img src=""images_story_vs_info/story_3_5.png"" class=""exp-image""><div class=""question-area""><p style=""font-size: 20px; font-weight: bold; margin: 0;"">Is there a person in this image?</p></div></div>","1","observation","story_3","story","5","","","","",""
"","","","","","html-keyboard-response","42","176134","0.0-42.0","","null","<div class=""stimulus-container""><img src=""images_story_vs_info/story_3_6_b.png"" class=""exp-image""><div class=""question-area""></div></div>","null","","","","","","","","",""
"","","","","","html-button-response","43","176683","0.0-43.0","","547","<div class=""stimulus-container""><img src=""images_story_vs_info/story_3_6_b.png"" class=""exp-image""><div class=""question-area""><p style=""font-size: 20px; font-weight: bold; margin: 0;"">Is there a person in this image?</p></div></div>","1","observation","story_3","story","6","","","","",""
"","","","","","html-keyboard-response","44","178684","0.0-44.0","","null","<div class=""transition-square""></div>","null","","","","","","","","",""
"","","","","","html-keyboard-response","45","183687","0.0-45.0","","null","<div class=""stimulus-container""><img src=""images_story_vs_info/story_2_1.png"" class=""exp-image""><div class=""question-area""></div></div>","null","","","","","","","","",""
"","","","","","html-button-response","46","184233","0.0-46.0","","545","<div class=""stimulus-container""><img src=""images_story_vs_info/story_2_1.png"" class=""exp-image""><div class=""question-area""><p style=""font-size: 20px; font-weight: bold; margin: 0;"">Is there a person in this image?</p></div></div>","1","observation","story_2","story","1","","","","",""
"","","","","","html-keyboard-response","47","189234","0.0-47.0","","null","<div class=""stimulus-container""><img src=""images_story_vs_info/story_2_2.png"" class=""exp-image""><div class=""question-area""></div></div>","null","","","","","","","","",""
"","","","","","html-button-response","48","190416","0.0-48.0","","1180","<div class=""stimulus-container""><img src=""images_story_vs_info/story_2_2.png"" class=""exp-image""><div class=""question-area""><p style=""font-size: 20px; font-weight: bold; margin: 0;"">Is there a person in this image?</p></div></div>","1","observation","story_2","story","2","","","","",""
"","","","","","html-keyboard-response","49","195418","0.0-49.0","","null","<div class=""stimulus-container""><img src=""images_story_vs_info/story_2_3.png"" class=""exp-image""><div class=""question-area""></div></div>","null","","","","","","","","",""
"","","","","","html-button-response","50","195999","0.0-50.0","","580","<div class=""stimulus-container""><img src=""images_story_vs_info/story_2_3.png"" class=""exp-image""><div class=""question-area""><p style=""font-size: 20px; font-weight: bold; margin: 0;"">Is there a person in this image?</p></div></div>","1","observation","story_2","story","3","","","","",""
"","","","","","html-keyboard-response","51","201001","0.0-51.0","","null","<div class=""stimulus-container""><img src=""images_story_vs_info/story_2_4.png"" class=""exp-image""><div class=""question-area""></div></div>","null","","","","","","","","",""
"","","","","","html-button-response","52","201599","0.0-52.0","","598","<div class=""stimulus-container""><img src=""images_story_vs_info/story_2_4.png"" class=""exp-image""><div class=""question-area""><p style=""font-size: 20px; font-weight: bold; margin: 0;"">Is there a person in this image?</p></div></div>","1","observation","story_2","story","4","","","","",""
"","","","","","html-keyboard-response","53","206601","0.0-53.0","","null","<div class=""stimulus-container""><img src=""images_story_vs_info/story_2_5.png"" class=""exp-image""><div class=""question-area""></div></div>","null","","","","","","","","",""
"","","","","","html-button-response","54","207400","0.0-54.0","","798","<div class=""stimulus-container""><img src=""images_story_vs_info/story_2_5.png"" class=""exp-image""><div class=""question-area""><p style=""font-size: 20px; font-weight: bold; margin: 0;"">Is there a person in this image?</p></div></div>","1","observation","story_2","story","5","","","","",""
"","","","","","html-keyboard-response","55","212401","0.0-55.0","","null","<div class=""stimulus-container""><img src=""images_story_vs_info/story_2_6_b.png"" class=""exp-image""><div class=""question-area""></div></div>","null","","","","","","","","",""
"","","","","","html-button-response","56","213116","0.0-56.0","","714","<div class=""stimulus-container""><img src=""images_story_vs_info/story_2_6_b.png"" class=""exp-image""><div class=""question-area""><p style=""font-size: 20px; font-weight: bold; margin: 0;"">Is there a person in this image?</p></div></div>","1","observation","story_2","story","6","","","","",""
"","","","","","instructions","57","216982","0.0-57.0","[{""page_index"":0,""viewing_time"":3866}]","3866","","","","","","","","","","",""
"","","","","","html-button-response","58","218250","0.0-58.0","","1266","<div class=""stimulus-container""><p style=""font-family:Arial; font-size:20px;"">How much is this image worth?</p><img src=""images_story_vs_info/story_2_3.png"" class=""exp-image""><div class=""value-tag"">???</div></div>","0","","","","","","","","",""
"","","","","","html-button-response","59","225366","0.0-59.0","","7115","<div class=""stimulus-container""><p style=""font-family:Arial; font-size:20px;"">Remember this value:</p><img src=""images_story_vs_info/story_2_3.png"" class=""exp-image""><div class=""value-tag val-high"">This image is worth: $100</div></div>","0","learning","story_2","","","3","$100","","",""
"","","","","","html-button-response","60","226049","0.0-60.0","","682","<div class=""stimulus-container""><p style=""font-family:Arial; font-size:20px;"">How much is this image worth?</p><img src=""images_story_vs_info/info_1_3.png"" class=""exp-image""><div class=""value-tag"">???</div></div>","0","","","","","","","","",""
"","","","","","html-button-response","61","233282","0.0-61.0","","7232","<div class=""stimulus-container""><p style=""font-family:Arial; font-size:20px;"">Remember this value:</p><img src=""images_story_vs_info/info_1_3.png"" class=""exp-image""><div class=""value-tag val-high"">This image is worth: $100</div></div>","0","learning","info_1","","","3","$100","","",""
"","","","","","html-button-response","62","234133","0.0-62.0","","850","<div class=""stimulus-container""><p style=""font-family:Arial; font-size:20px;"">How much is this image worth?</p><img src=""images_story_vs_info/info_4_3.png"" class=""exp-image""><div class=""value-tag"">???</div></div>","0","","","","","","","","",""
"","","","","","html-button-response","63","242082","0.0-63.0","","7948","<div class=""stimulus-container""><p style=""font-family:Arial; font-size:20px;"">Remember this value:</p><img src=""images_story_vs_info/info_4_3.png"" class=""exp-image""><div class=""value-tag val-low"">This image is worth: $0</div></div>","0","learning","info_4","","","3","$0","","",""
"","","","","","html-button-response","64","242683","0.0-64.0","","599","<div class=""stimulus-container""><p style=""font-family:Arial; font-size:20px;"">How much is this image worth?</p><img src=""images_story_vs_info/story_3_3.png"" class=""exp-image""><div class=""value-tag"">???</div></div>","0","","","","","","","","",""
"","","","","","html-button-response","65","254632","0.0-65.0","","11949","<div class=""stimulus-container""><p style=""font-family:Arial; font-size:20px;"">Remember this value:</p><img src=""images_story_vs_info/story_3_3.png"" class=""exp-image""><div class=""value-tag val-low"">This image is worth: $0</div></div>","0","learning","story_3","","","3","$0","","",""
"","","","","","instructions","66","265582","0.0-66.0","[{""page_index"":0,""viewing_time"":10950}]","10950","","","","","","","","","","",""
"","","","","","html-button-response","67","268781","0.0-67.0","","3198","
                <div style=""font-family: Arial; margin-bottom: 20px;""><h3>Which image is worth <b>more money</b>?</h3></div>
                <div class=""stimulus-container"" style=""display: flex; flex-direction: row; width: 800px; justify-content: center; gap: 30px;"">
                    <img src=""images_story_vs_info/info_4_5.png"" class=""small-image"">
                    <img src=""images_story_vs_info/story_3_5.png"" class=""small-image"">
                </div>","1","choice","","","5","3","","Neutral_Story_vs_Info","images_story_vs_info/info_4_5.png","images_story_vs_info/story_3_5.png"
"","","","","","html-button-response","68","271949","0.0-68.0","","3166","
                <div style=""font-family: Arial; margin-bottom: 20px;""><h3>Which image is worth <b>more money</b>?</h3></div>
                <div class=""stimulus-container"" style=""display: flex; flex-direction: row; width: 800px; justify-content: center; gap: 30px;"">
                    <img src=""images_story_vs_info/info_1_5.png"" class=""small-image"">
                    <img src=""images_story_vs_info/story_2_5.png"" class=""small-image"">
                </div>","0","choice","","","5","3","","Valuable_Story_vs_Info","images_story_vs_info/info_1_5.png","images_story_vs_info/story_2_5.png"
"","","","","","html-button-response","69","274849","0.0-69.0","","2898","
                <div style=""font-family: Arial; margin-bottom: 20px;""><h3>Which image is worth <b>more money</b>?</h3></div>
                <div class=""stimulus-container"" style=""display: flex; flex-direction: row; width: 800px; justify-content: center; gap: 30px;"">
                    <img src=""images_story_vs_info/story_3_1.png"" class=""small-image"">
                    <img src=""images_story_vs_info/info_4_1.png"" class=""small-image"">
                </div>","1","choice","","","1","3","","Neutral_Story_vs_Info","images_story_vs_info/story_3_1.png","images_story_vs_info/info_4_1.png"
"","","","","","html-button-response","70","277633","0.0-70.0","","2783","
                <div style=""font-family: Arial; margin-bottom: 20px;""><h3>Which image is worth <b>more money</b>?</h3></div>
                <div class=""stimulus-container"" style=""display: flex; flex-direction: row; width: 800px; justify-content: center; gap: 30px;"">
                    <img src=""images_story_vs_info/info_1_1.png"" class=""small-image"">
                    <img src=""images_story_vs_info/story_2_1.png"" class=""small-image"">
                </div>","1","choice","","","1","3","","Valuable_Story_vs_Info","images_story_vs_info/info_1_1.png","images_story_vs_info/story_2_1.png"
"","","","","","html-button-response","71","279783","0.0-71.0","","2148","
                <div style=""font-family: Arial; margin-bottom: 20px;""><h3>Which image is worth <b>more money</b>?</h3></div>
                <div class=""stimulus-container"" style=""display: flex; flex-direction: row; width: 800px; justify-content: center; gap: 30px;"">
                    <img src=""images_story_vs_info/story_2_2.png"" class=""small-image"">
                    <img src=""images_story_vs_info/info_1_2.png"" class=""small-image"">
                </div>","0","choice","","","2","3","","Valuable_Story_vs_Info","images_story_vs_info/story_2_2.png","images_story_vs_info/info_1_2.png"
"","","","","","html-button-response","72","282449","0.0-72.0","","2665","
                <div style=""font-family: Arial; margin-bottom: 20px;""><h3>Which image is worth <b>more money</b>?</h3></div>
                <div class=""stimulus-container"" style=""display: flex; flex-direction: row; width: 800px; justify-content: center; gap: 30px;"">
                    <img src=""images_story_vs_info/info_4_2.png"" class=""small-image"">
                    <img src=""images_story_vs_info/story_3_2.png"" class=""small-image"">
                </div>","1","choice","","","2","3","","Neutral_Story_vs_Info","images_story_vs_info/info_4_2.png","images_story_vs_info/story_3_2.png"
"","","","","","html-button-response","73","285049","0.0-73.0","","2598","
                <div style=""font-family: Arial; margin-bottom: 20px;""><h3>Which image is worth <b>more money</b>?</h3></div>
                <div class=""stimulus-container"" style=""display: flex; flex-direction: row; width: 800px; justify-content: center; gap: 30px;"">
                    <img src=""images_story_vs_info/story_2_4.png"" class=""small-image"">
                    <img src=""images_story_vs_info/info_1_4.png"" class=""small-image"">
                </div>","1","choice","","","4","3","","Valuable_Story_vs_Info","images_story_vs_info/story_2_4.png","images_story_vs_info/info_1_4.png"
"","","","","","html-button-response","74","286916","0.0-74.0","","1865","
                <div style=""font-family: Arial; margin-bottom: 20px;""><h3>Which image is worth <b>more money</b>?</h3></div>
                <div class=""stimulus-container"" style=""display: flex; flex-direction: row; width: 800px; justify-content: center; gap: 30px;"">
                    <img src=""images_story_vs_info/info_4_4.png"" class=""small-image"">
                    <img src=""images_story_vs_info/story_3_4.png"" class=""small-image"">
                </div>","1","choice","","","4","3","","Neutral_Story_vs_Info","images_story_vs_info/info_4_4.png","images_story_vs_info/story_3_4.png"
"","","","","","survey-text","75","376135","0.0-75.0","","89216","","{""choice_strategy"":""I made my choices based on a mix of gut instinct and trying to match what I thought each image would be worth based upon the ones whose values I was shown."",""gender"":""man"",""age"":""33""}","","","","","","","","",""
"","","","","","instructions","76","391715","0.0-76.0","[{""page_index"":0,""viewing_time"":15580}]","15580","","","","","","","","","","",""
