"success","timeout","failed_images","failed_audio","failed_video","trial_type","trial_index","time_elapsed","internal_node_id","subject_id","study_id","session_id","view_history","rt","stimulus","response","task","image_index","folder","sequence_type","valuable_image_index","reward_type","chosen_image_index","target_X","correct_choice"
"true","false","[]","[]","[]","preload","0","7080","0.0-0.0","89EA09DE48514928A396DEAC592AC3E4","019cf854-9765-790b-8657-434bd68efe37","019cf80d-4266-7117-8a51-54e13c84aca4","","","","","","","","","","","","",""
"","","","","","instructions","1","8153","0.0-1.0","89EA09DE48514928A396DEAC592AC3E4","019cf854-9765-790b-8657-434bd68efe37","019cf80d-4266-7117-8a51-54e13c84aca4","[{""page_index"":0,""viewing_time"":1073}]","1073","","","","","","","","","","",""
"","","","","","instructions","2","10614","0.0-2.0","89EA09DE48514928A396DEAC592AC3E4","019cf854-9765-790b-8657-434bd68efe37","019cf80d-4266-7117-8a51-54e13c84aca4","[{""page_index"":0,""viewing_time"":2460}]","2460","","","","","","","","","","",""
"true","","","","","fullscreen","3","16069","0.0-3.0","89EA09DE48514928A396DEAC592AC3E4","019cf854-9765-790b-8657-434bd68efe37","019cf80d-4266-7117-8a51-54e13c84aca4","","4453","","","","","","","","","","",""
"","","","","","instructions","4","26107","0.0-4.0","89EA09DE48514928A396DEAC592AC3E4","019cf854-9765-790b-8657-434bd68efe37","019cf80d-4266-7117-8a51-54e13c84aca4","[{""page_index"":0,""viewing_time"":10037}]","10037","","","","","","","","","","",""
"","","","","","instructions","5","36428","0.0-5.0","89EA09DE48514928A396DEAC592AC3E4","019cf854-9765-790b-8657-434bd68efe37","019cf80d-4266-7117-8a51-54e13c84aca4","[{""page_index"":0,""viewing_time"":10320}]","10321","","","","","","","","","","",""
"","","","","","html-keyboard-response","6","40431","0.0-6.0","89EA09DE48514928A396DEAC592AC3E4","019cf854-9765-790b-8657-434bd68efe37","019cf80d-4266-7117-8a51-54e13c84aca4","","null","
                <div class=""stimulus-container"">
                    <img src=""images/instructions/movie_1.png"" class=""exp-image"">
                    <div class=""question-area""></div> 
                </div>","null","","","","","","","","",""
"","","","","","html-button-response","7","42218","0.0-7.0","89EA09DE48514928A396DEAC592AC3E4","019cf854-9765-790b-8657-434bd68efe37","019cf80d-4266-7117-8a51-54e13c84aca4","","1785","
                <div class=""stimulus-container"">
                    <img src=""images/instructions/movie_1.png"" class=""exp-image"">
                    <div class=""question-area"">
                        <p style=""font-size: 20px; font-weight: bold; margin: 0;"">Was there a person in this image?</p>
                    </div>
                </div>","0","example_question","1","","","","","","",""
"","","","","","html-keyboard-response","8","46220","0.0-8.0","89EA09DE48514928A396DEAC592AC3E4","019cf854-9765-790b-8657-434bd68efe37","019cf80d-4266-7117-8a51-54e13c84aca4","","null","
                <div class=""stimulus-container"">
                    <img src=""images/instructions/movie_2.png"" class=""exp-image"">
                    <div class=""question-area""></div> 
                </div>","null","","","","","","","","",""
"","","","","","html-button-response","9","47409","0.0-9.0","89EA09DE48514928A396DEAC592AC3E4","019cf854-9765-790b-8657-434bd68efe37","019cf80d-4266-7117-8a51-54e13c84aca4","","1187","
                <div class=""stimulus-container"">
                    <img src=""images/instructions/movie_2.png"" class=""exp-image"">
                    <div class=""question-area"">
                        <p style=""font-size: 20px; font-weight: bold; margin: 0;"">Was there a person in this image?</p>
                    </div>
                </div>","1","example_question","2","","","","","","",""
"","","","","","html-keyboard-response","10","51411","0.0-10.0","89EA09DE48514928A396DEAC592AC3E4","019cf854-9765-790b-8657-434bd68efe37","019cf80d-4266-7117-8a51-54e13c84aca4","","null","
                <div class=""stimulus-container"">
                    <img src=""images/instructions/movie_3.png"" class=""exp-image"">
                    <div class=""question-area""></div> 
                </div>","null","","","","","","","","",""
"","","","","","html-button-response","11","52553","0.0-11.0","89EA09DE48514928A396DEAC592AC3E4","019cf854-9765-790b-8657-434bd68efe37","019cf80d-4266-7117-8a51-54e13c84aca4","","1141","
                <div class=""stimulus-container"">
                    <img src=""images/instructions/movie_3.png"" class=""exp-image"">
                    <div class=""question-area"">
                        <p style=""font-size: 20px; font-weight: bold; margin: 0;"">Was there a person in this image?</p>
                    </div>
                </div>","0","example_question","3","","","","","","",""
"","","","","","html-keyboard-response","12","56555","0.0-12.0","89EA09DE48514928A396DEAC592AC3E4","019cf854-9765-790b-8657-434bd68efe37","019cf80d-4266-7117-8a51-54e13c84aca4","","null","
                <div class=""stimulus-container"">
                    <img src=""images/instructions/movie_4.png"" class=""exp-image"">
                    <div class=""question-area""></div> 
                </div>","null","","","","","","","","",""
"","","","","","html-button-response","13","57370","0.0-13.0","89EA09DE48514928A396DEAC592AC3E4","019cf854-9765-790b-8657-434bd68efe37","019cf80d-4266-7117-8a51-54e13c84aca4","","813","
                <div class=""stimulus-container"">
                    <img src=""images/instructions/movie_4.png"" class=""exp-image"">
                    <div class=""question-area"">
                        <p style=""font-size: 20px; font-weight: bold; margin: 0;"">Was there a person in this image?</p>
                    </div>
                </div>","0","example_question","4","","","","","","",""
"","","","","","instructions","14","58734","0.0-14.0","89EA09DE48514928A396DEAC592AC3E4","019cf854-9765-790b-8657-434bd68efe37","019cf80d-4266-7117-8a51-54e13c84aca4","[{""page_index"":0,""viewing_time"":1363}]","1364","","","","","","","","","","",""
"","","","","","instructions","15","66697","0.0-15.0","89EA09DE48514928A396DEAC592AC3E4","019cf854-9765-790b-8657-434bd68efe37","019cf80d-4266-7117-8a51-54e13c84aca4","[{""page_index"":0,""viewing_time"":7963}]","7963","","","","","","","","","","",""
"","","","","","html-keyboard-response","16","67698","0.0-16.0","89EA09DE48514928A396DEAC592AC3E4","019cf854-9765-790b-8657-434bd68efe37","019cf80d-4266-7117-8a51-54e13c84aca4","","null","<div style=""background-color: white; width: 100vw; height: 100vh;""></div>","null","","","","","","","","",""
"","","","","","html-keyboard-response","17","72700","0.0-17.0","89EA09DE48514928A396DEAC592AC3E4","019cf854-9765-790b-8657-434bd68efe37","019cf80d-4266-7117-8a51-54e13c84aca4","","null","
                <div class=""stimulus-container"">
                    <img src=""images/semantic_sequence/visiting_cities_semantic/visiting_cities_semantic_1.png"" class=""exp-image"">
                    <div class=""question-area""></div> 
                </div>","null","","","","","","","","",""
"","","","","","html-button-response","18","73914","0.0-18.0","89EA09DE48514928A396DEAC592AC3E4","019cf854-9765-790b-8657-434bd68efe37","019cf80d-4266-7117-8a51-54e13c84aca4","","1213","
                <div class=""stimulus-container"">
                    <img src=""images/semantic_sequence/visiting_cities_semantic/visiting_cities_semantic_1.png"" class=""exp-image"">
                    <div class=""question-area"">
                        <p style=""font-size: 20px; font-weight: bold; margin: 0;"">Is there a person in this image?</p>
                    </div>
                </div>","0","main_experiment_trial","1","visiting_cities_semantic","semantic_sequence","","","","",""
"","","","","","html-keyboard-response","19","78916","0.0-19.0","89EA09DE48514928A396DEAC592AC3E4","019cf854-9765-790b-8657-434bd68efe37","019cf80d-4266-7117-8a51-54e13c84aca4","","null","
                <div class=""stimulus-container"">
                    <img src=""images/semantic_sequence/visiting_cities_semantic/visiting_cities_semantic_2.png"" class=""exp-image"">
                    <div class=""question-area""></div> 
                </div>","null","","","","","","","","",""
"","","","","","html-button-response","20","79523","0.0-20.0","89EA09DE48514928A396DEAC592AC3E4","019cf854-9765-790b-8657-434bd68efe37","019cf80d-4266-7117-8a51-54e13c84aca4","","605","
                <div class=""stimulus-container"">
                    <img src=""images/semantic_sequence/visiting_cities_semantic/visiting_cities_semantic_2.png"" class=""exp-image"">
                    <div class=""question-area"">
                        <p style=""font-size: 20px; font-weight: bold; margin: 0;"">Is there a person in this image?</p>
                    </div>
                </div>","1","main_experiment_trial","2","visiting_cities_semantic","semantic_sequence","","","","",""
"","","","","","html-keyboard-response","21","84526","0.0-21.0","89EA09DE48514928A396DEAC592AC3E4","019cf854-9765-790b-8657-434bd68efe37","019cf80d-4266-7117-8a51-54e13c84aca4","","null","
                <div class=""stimulus-container"">
                    <img src=""images/semantic_sequence/visiting_cities_semantic/visiting_cities_semantic_3.png"" class=""exp-image"">
                    <div class=""question-area""></div> 
                </div>","null","","","","","","","","",""
"","","","","","html-button-response","22","85057","0.0-22.0","89EA09DE48514928A396DEAC592AC3E4","019cf854-9765-790b-8657-434bd68efe37","019cf80d-4266-7117-8a51-54e13c84aca4","","530","
                <div class=""stimulus-container"">
                    <img src=""images/semantic_sequence/visiting_cities_semantic/visiting_cities_semantic_3.png"" class=""exp-image"">
                    <div class=""question-area"">
                        <p style=""font-size: 20px; font-weight: bold; margin: 0;"">Is there a person in this image?</p>
                    </div>
                </div>","1","main_experiment_trial","3","visiting_cities_semantic","semantic_sequence","","","","",""
"","","","","","html-keyboard-response","23","90059","0.0-23.0","89EA09DE48514928A396DEAC592AC3E4","019cf854-9765-790b-8657-434bd68efe37","019cf80d-4266-7117-8a51-54e13c84aca4","","null","
                <div class=""stimulus-container"">
                    <img src=""images/semantic_sequence/visiting_cities_semantic/visiting_cities_semantic_4.png"" class=""exp-image"">
                    <div class=""question-area""></div> 
                </div>","null","","","","","","","","",""
"","","","","","html-button-response","24","90443","0.0-24.0","89EA09DE48514928A396DEAC592AC3E4","019cf854-9765-790b-8657-434bd68efe37","019cf80d-4266-7117-8a51-54e13c84aca4","","382","
                <div class=""stimulus-container"">
                    <img src=""images/semantic_sequence/visiting_cities_semantic/visiting_cities_semantic_4.png"" class=""exp-image"">
                    <div class=""question-area"">
                        <p style=""font-size: 20px; font-weight: bold; margin: 0;"">Is there a person in this image?</p>
                    </div>
                </div>","1","main_experiment_trial","4","visiting_cities_semantic","semantic_sequence","","","","",""
"","","","","","html-keyboard-response","25","95445","0.0-25.0","89EA09DE48514928A396DEAC592AC3E4","019cf854-9765-790b-8657-434bd68efe37","019cf80d-4266-7117-8a51-54e13c84aca4","","null","
                <div class=""stimulus-container"">
                    <img src=""images/semantic_sequence/visiting_cities_semantic/visiting_cities_semantic_5.png"" class=""exp-image"">
                    <div class=""question-area""></div> 
                </div>","null","","","","","","","","",""
"","","","","","html-button-response","26","95964","0.0-26.0","89EA09DE48514928A396DEAC592AC3E4","019cf854-9765-790b-8657-434bd68efe37","019cf80d-4266-7117-8a51-54e13c84aca4","","518","
                <div class=""stimulus-container"">
                    <img src=""images/semantic_sequence/visiting_cities_semantic/visiting_cities_semantic_5.png"" class=""exp-image"">
                    <div class=""question-area"">
                        <p style=""font-size: 20px; font-weight: bold; margin: 0;"">Is there a person in this image?</p>
                    </div>
                </div>","1","main_experiment_trial","5","visiting_cities_semantic","semantic_sequence","","","","",""
"","","","","","html-keyboard-response","27","100967","0.0-27.0","89EA09DE48514928A396DEAC592AC3E4","019cf854-9765-790b-8657-434bd68efe37","019cf80d-4266-7117-8a51-54e13c84aca4","","null","
                <div class=""stimulus-container"">
                    <img src=""images/semantic_sequence/visiting_cities_semantic/visiting_cities_semantic_6.png"" class=""exp-image"">
                    <div class=""question-area""></div> 
                </div>","null","","","","","","","","",""
"","","","","","html-button-response","28","101440","0.0-28.0","89EA09DE48514928A396DEAC592AC3E4","019cf854-9765-790b-8657-434bd68efe37","019cf80d-4266-7117-8a51-54e13c84aca4","","472","
                <div class=""stimulus-container"">
                    <img src=""images/semantic_sequence/visiting_cities_semantic/visiting_cities_semantic_6.png"" class=""exp-image"">
                    <div class=""question-area"">
                        <p style=""font-size: 20px; font-weight: bold; margin: 0;"">Is there a person in this image?</p>
                    </div>
                </div>","1","main_experiment_trial","6","visiting_cities_semantic","semantic_sequence","","","","",""
"","","","","","html-keyboard-response","29","106442","0.0-29.0","89EA09DE48514928A396DEAC592AC3E4","019cf854-9765-790b-8657-434bd68efe37","019cf80d-4266-7117-8a51-54e13c84aca4","","null","
                <div class=""stimulus-container"">
                    <img src=""images/semantic_sequence/visiting_cities_semantic/visiting_cities_semantic_7.png"" class=""exp-image"">
                    <div class=""question-area""></div> 
                </div>","null","","","","","","","","",""
"","","","","","html-button-response","30","106923","0.0-30.0","89EA09DE48514928A396DEAC592AC3E4","019cf854-9765-790b-8657-434bd68efe37","019cf80d-4266-7117-8a51-54e13c84aca4","","480","
                <div class=""stimulus-container"">
                    <img src=""images/semantic_sequence/visiting_cities_semantic/visiting_cities_semantic_7.png"" class=""exp-image"">
                    <div class=""question-area"">
                        <p style=""font-size: 20px; font-weight: bold; margin: 0;"">Is there a person in this image?</p>
                    </div>
                </div>","0","main_experiment_trial","7","visiting_cities_semantic","semantic_sequence","","","","",""
"","","","","","html-keyboard-response","31","111925","0.0-31.0","89EA09DE48514928A396DEAC592AC3E4","019cf854-9765-790b-8657-434bd68efe37","019cf80d-4266-7117-8a51-54e13c84aca4","","null","
                <div class=""stimulus-container"">
                    <img src=""images/semantic_sequence/visiting_cities_semantic/visiting_cities_semantic_8.png"" class=""exp-image"">
                    <div class=""question-area""></div> 
                </div>","null","","","","","","","","",""
"","","","","","html-button-response","32","112418","0.0-32.0","89EA09DE48514928A396DEAC592AC3E4","019cf854-9765-790b-8657-434bd68efe37","019cf80d-4266-7117-8a51-54e13c84aca4","","492","
                <div class=""stimulus-container"">
                    <img src=""images/semantic_sequence/visiting_cities_semantic/visiting_cities_semantic_8.png"" class=""exp-image"">
                    <div class=""question-area"">
                        <p style=""font-size: 20px; font-weight: bold; margin: 0;"">Is there a person in this image?</p>
                    </div>
                </div>","1","main_experiment_trial","8","visiting_cities_semantic","semantic_sequence","","","","",""
"","","","","","html-keyboard-response","33","117419","0.0-33.0","89EA09DE48514928A396DEAC592AC3E4","019cf854-9765-790b-8657-434bd68efe37","019cf80d-4266-7117-8a51-54e13c84aca4","","null","
                <div class=""stimulus-container"">
                    <img src=""images/semantic_sequence/visiting_cities_semantic/visiting_cities_semantic_9.png"" class=""exp-image"">
                    <div class=""question-area""></div> 
                </div>","null","","","","","","","","",""
"","","","","","html-button-response","34","118432","0.0-34.0","89EA09DE48514928A396DEAC592AC3E4","019cf854-9765-790b-8657-434bd68efe37","019cf80d-4266-7117-8a51-54e13c84aca4","","1012","
                <div class=""stimulus-container"">
                    <img src=""images/semantic_sequence/visiting_cities_semantic/visiting_cities_semantic_9.png"" class=""exp-image"">
                    <div class=""question-area"">
                        <p style=""font-size: 20px; font-weight: bold; margin: 0;"">Is there a person in this image?</p>
                    </div>
                </div>","0","main_experiment_trial","9","visiting_cities_semantic","semantic_sequence","","","","",""
"","","","","","html-keyboard-response","35","123434","0.0-35.0","89EA09DE48514928A396DEAC592AC3E4","019cf854-9765-790b-8657-434bd68efe37","019cf80d-4266-7117-8a51-54e13c84aca4","","null","
                <div class=""stimulus-container"">
                    <img src=""images/semantic_sequence/visiting_cities_semantic/visiting_cities_semantic_ten.png"" class=""exp-image"">
                    <div class=""question-area""></div> 
                </div>","null","","","","","","","","",""
"","","","","","html-button-response","36","123923","0.0-36.0","89EA09DE48514928A396DEAC592AC3E4","019cf854-9765-790b-8657-434bd68efe37","019cf80d-4266-7117-8a51-54e13c84aca4","","488","
                <div class=""stimulus-container"">
                    <img src=""images/semantic_sequence/visiting_cities_semantic/visiting_cities_semantic_ten.png"" class=""exp-image"">
                    <div class=""question-area"">
                        <p style=""font-size: 20px; font-weight: bold; margin: 0;"">Is there a person in this image?</p>
                    </div>
                </div>","0","main_experiment_trial","ten","visiting_cities_semantic","semantic_sequence","","","","",""
"","","","","","html-keyboard-response","37","124926","0.0-37.0","89EA09DE48514928A396DEAC592AC3E4","019cf854-9765-790b-8657-434bd68efe37","019cf80d-4266-7117-8a51-54e13c84aca4","","null","<div style=""background-color: white; width: 100vw; height: 100vh;""></div>","null","","","","","","","","",""
"","","","","","html-keyboard-response","38","129928","0.0-38.0","89EA09DE48514928A396DEAC592AC3E4","019cf854-9765-790b-8657-434bd68efe37","019cf80d-4266-7117-8a51-54e13c84aca4","","null","
                <div class=""stimulus-container"">
                    <img src=""images/schematic_sequence/interview_scheme/interview_scheme_1.png"" class=""exp-image"">
                    <div class=""question-area""></div> 
                </div>","null","","","","","","","","",""
"","","","","","html-button-response","39","130553","0.0-39.0","89EA09DE48514928A396DEAC592AC3E4","019cf854-9765-790b-8657-434bd68efe37","019cf80d-4266-7117-8a51-54e13c84aca4","","624","
                <div class=""stimulus-container"">
                    <img src=""images/schematic_sequence/interview_scheme/interview_scheme_1.png"" class=""exp-image"">
                    <div class=""question-area"">
                        <p style=""font-size: 20px; font-weight: bold; margin: 0;"">Is there a person in this image?</p>
                    </div>
                </div>","1","main_experiment_trial","1","interview_scheme","schematic_sequence","","","","",""
"","","","","","html-keyboard-response","40","135556","0.0-40.0","89EA09DE48514928A396DEAC592AC3E4","019cf854-9765-790b-8657-434bd68efe37","019cf80d-4266-7117-8a51-54e13c84aca4","","null","
                <div class=""stimulus-container"">
                    <img src=""images/schematic_sequence/interview_scheme/interview_scheme_2.png"" class=""exp-image"">
                    <div class=""question-area""></div> 
                </div>","null","","","","","","","","",""
"","","","","","html-button-response","41","135970","0.0-41.0","89EA09DE48514928A396DEAC592AC3E4","019cf854-9765-790b-8657-434bd68efe37","019cf80d-4266-7117-8a51-54e13c84aca4","","413","
                <div class=""stimulus-container"">
                    <img src=""images/schematic_sequence/interview_scheme/interview_scheme_2.png"" class=""exp-image"">
                    <div class=""question-area"">
                        <p style=""font-size: 20px; font-weight: bold; margin: 0;"">Is there a person in this image?</p>
                    </div>
                </div>","1","main_experiment_trial","2","interview_scheme","schematic_sequence","","","","",""
"","","","","","html-keyboard-response","42","140973","0.0-42.0","89EA09DE48514928A396DEAC592AC3E4","019cf854-9765-790b-8657-434bd68efe37","019cf80d-4266-7117-8a51-54e13c84aca4","","null","
                <div class=""stimulus-container"">
                    <img src=""images/schematic_sequence/interview_scheme/interview_scheme_3.png"" class=""exp-image"">
                    <div class=""question-area""></div> 
                </div>","null","","","","","","","","",""
"","","","","","html-button-response","43","141362","0.0-43.0","89EA09DE48514928A396DEAC592AC3E4","019cf854-9765-790b-8657-434bd68efe37","019cf80d-4266-7117-8a51-54e13c84aca4","","388","
                <div class=""stimulus-container"">
                    <img src=""images/schematic_sequence/interview_scheme/interview_scheme_3.png"" class=""exp-image"">
                    <div class=""question-area"">
                        <p style=""font-size: 20px; font-weight: bold; margin: 0;"">Is there a person in this image?</p>
                    </div>
                </div>","1","main_experiment_trial","3","interview_scheme","schematic_sequence","","","","",""
"","","","","","html-keyboard-response","44","146363","0.0-44.0","89EA09DE48514928A396DEAC592AC3E4","019cf854-9765-790b-8657-434bd68efe37","019cf80d-4266-7117-8a51-54e13c84aca4","","null","
                <div class=""stimulus-container"">
                    <img src=""images/schematic_sequence/interview_scheme/interview_scheme_4.png"" class=""exp-image"">
                    <div class=""question-area""></div> 
                </div>","null","","","","","","","","",""
"","","","","","html-button-response","45","146783","0.0-45.0","89EA09DE48514928A396DEAC592AC3E4","019cf854-9765-790b-8657-434bd68efe37","019cf80d-4266-7117-8a51-54e13c84aca4","","419","
                <div class=""stimulus-container"">
                    <img src=""images/schematic_sequence/interview_scheme/interview_scheme_4.png"" class=""exp-image"">
                    <div class=""question-area"">
                        <p style=""font-size: 20px; font-weight: bold; margin: 0;"">Is there a person in this image?</p>
                    </div>
                </div>","1","main_experiment_trial","4","interview_scheme","schematic_sequence","","","","",""
"","","","","","html-keyboard-response","46","151786","0.0-46.0","89EA09DE48514928A396DEAC592AC3E4","019cf854-9765-790b-8657-434bd68efe37","019cf80d-4266-7117-8a51-54e13c84aca4","","null","
                <div class=""stimulus-container"">
                    <img src=""images/schematic_sequence/interview_scheme/interview_scheme_5.png"" class=""exp-image"">
                    <div class=""question-area""></div> 
                </div>","null","","","","","","","","",""
"","","","","","html-button-response","47","152258","0.0-47.0","89EA09DE48514928A396DEAC592AC3E4","019cf854-9765-790b-8657-434bd68efe37","019cf80d-4266-7117-8a51-54e13c84aca4","","471","
                <div class=""stimulus-container"">
                    <img src=""images/schematic_sequence/interview_scheme/interview_scheme_5.png"" class=""exp-image"">
                    <div class=""question-area"">
                        <p style=""font-size: 20px; font-weight: bold; margin: 0;"">Is there a person in this image?</p>
                    </div>
                </div>","0","main_experiment_trial","5","interview_scheme","schematic_sequence","","","","",""
"","","","","","html-keyboard-response","48","157260","0.0-48.0","89EA09DE48514928A396DEAC592AC3E4","019cf854-9765-790b-8657-434bd68efe37","019cf80d-4266-7117-8a51-54e13c84aca4","","null","
                <div class=""stimulus-container"">
                    <img src=""images/schematic_sequence/interview_scheme/interview_scheme_6.png"" class=""exp-image"">
                    <div class=""question-area""></div> 
                </div>","null","","","","","","","","",""
"","","","","","html-button-response","49","157750","0.0-49.0","89EA09DE48514928A396DEAC592AC3E4","019cf854-9765-790b-8657-434bd68efe37","019cf80d-4266-7117-8a51-54e13c84aca4","","488","
                <div class=""stimulus-container"">
                    <img src=""images/schematic_sequence/interview_scheme/interview_scheme_6.png"" class=""exp-image"">
                    <div class=""question-area"">
                        <p style=""font-size: 20px; font-weight: bold; margin: 0;"">Is there a person in this image?</p>
                    </div>
                </div>","0","main_experiment_trial","6","interview_scheme","schematic_sequence","","","","",""
"","","","","","html-keyboard-response","50","162752","0.0-50.0","89EA09DE48514928A396DEAC592AC3E4","019cf854-9765-790b-8657-434bd68efe37","019cf80d-4266-7117-8a51-54e13c84aca4","","null","
                <div class=""stimulus-container"">
                    <img src=""images/schematic_sequence/interview_scheme/interview_scheme_7.png"" class=""exp-image"">
                    <div class=""question-area""></div> 
                </div>","null","","","","","","","","",""
"","","","","","html-button-response","51","163224","0.0-51.0","89EA09DE48514928A396DEAC592AC3E4","019cf854-9765-790b-8657-434bd68efe37","019cf80d-4266-7117-8a51-54e13c84aca4","","471","
                <div class=""stimulus-container"">
                    <img src=""images/schematic_sequence/interview_scheme/interview_scheme_7.png"" class=""exp-image"">
                    <div class=""question-area"">
                        <p style=""font-size: 20px; font-weight: bold; margin: 0;"">Is there a person in this image?</p>
                    </div>
                </div>","0","main_experiment_trial","7","interview_scheme","schematic_sequence","","","","",""
"","","","","","html-keyboard-response","52","168227","0.0-52.0","89EA09DE48514928A396DEAC592AC3E4","019cf854-9765-790b-8657-434bd68efe37","019cf80d-4266-7117-8a51-54e13c84aca4","","null","
                <div class=""stimulus-container"">
                    <img src=""images/schematic_sequence/interview_scheme/interview_scheme_8.png"" class=""exp-image"">
                    <div class=""question-area""></div> 
                </div>","null","","","","","","","","",""
"","","","","","html-button-response","53","168685","0.0-53.0","89EA09DE48514928A396DEAC592AC3E4","019cf854-9765-790b-8657-434bd68efe37","019cf80d-4266-7117-8a51-54e13c84aca4","","458","
                <div class=""stimulus-container"">
                    <img src=""images/schematic_sequence/interview_scheme/interview_scheme_8.png"" class=""exp-image"">
                    <div class=""question-area"">
                        <p style=""font-size: 20px; font-weight: bold; margin: 0;"">Is there a person in this image?</p>
                    </div>
                </div>","0","main_experiment_trial","8","interview_scheme","schematic_sequence","","","","",""
"","","","","","html-keyboard-response","54","173688","0.0-54.0","89EA09DE48514928A396DEAC592AC3E4","019cf854-9765-790b-8657-434bd68efe37","019cf80d-4266-7117-8a51-54e13c84aca4","","null","
                <div class=""stimulus-container"">
                    <img src=""images/schematic_sequence/interview_scheme/interview_scheme_9.png"" class=""exp-image"">
                    <div class=""question-area""></div> 
                </div>","null","","","","","","","","",""
"","","","","","html-button-response","55","174099","0.0-55.0","89EA09DE48514928A396DEAC592AC3E4","019cf854-9765-790b-8657-434bd68efe37","019cf80d-4266-7117-8a51-54e13c84aca4","","410","
                <div class=""stimulus-container"">
                    <img src=""images/schematic_sequence/interview_scheme/interview_scheme_9.png"" class=""exp-image"">
                    <div class=""question-area"">
                        <p style=""font-size: 20px; font-weight: bold; margin: 0;"">Is there a person in this image?</p>
                    </div>
                </div>","0","main_experiment_trial","9","interview_scheme","schematic_sequence","","","","",""
"","","","","","html-keyboard-response","56","179102","0.0-56.0","89EA09DE48514928A396DEAC592AC3E4","019cf854-9765-790b-8657-434bd68efe37","019cf80d-4266-7117-8a51-54e13c84aca4","","null","
                <div class=""stimulus-container"">
                    <img src=""images/schematic_sequence/interview_scheme/interview_scheme_ten.png"" class=""exp-image"">
                    <div class=""question-area""></div> 
                </div>","null","","","","","","","","",""
"","","","","","html-button-response","57","179604","0.0-57.0","89EA09DE48514928A396DEAC592AC3E4","019cf854-9765-790b-8657-434bd68efe37","019cf80d-4266-7117-8a51-54e13c84aca4","","501","
                <div class=""stimulus-container"">
                    <img src=""images/schematic_sequence/interview_scheme/interview_scheme_ten.png"" class=""exp-image"">
                    <div class=""question-area"">
                        <p style=""font-size: 20px; font-weight: bold; margin: 0;"">Is there a person in this image?</p>
                    </div>
                </div>","0","main_experiment_trial","ten","interview_scheme","schematic_sequence","","","","",""
"","","","","","html-keyboard-response","58","180606","0.0-58.0","89EA09DE48514928A396DEAC592AC3E4","019cf854-9765-790b-8657-434bd68efe37","019cf80d-4266-7117-8a51-54e13c84aca4","","null","<div style=""background-color: white; width: 100vw; height: 100vh;""></div>","null","","","","","","","","",""
"","","","","","html-keyboard-response","59","185609","0.0-59.0","89EA09DE48514928A396DEAC592AC3E4","019cf854-9765-790b-8657-434bd68efe37","019cf80d-4266-7117-8a51-54e13c84aca4","","null","
                <div class=""stimulus-container"">
                    <img src=""images/semantic_sequence/creative_activities_semantic/creative_activities_semantic_1.png"" class=""exp-image"">
                    <div class=""question-area""></div> 
                </div>","null","","","","","","","","",""
"","","","","","html-button-response","60","186010","0.0-60.0","89EA09DE48514928A396DEAC592AC3E4","019cf854-9765-790b-8657-434bd68efe37","019cf80d-4266-7117-8a51-54e13c84aca4","","400","
                <div class=""stimulus-container"">
                    <img src=""images/semantic_sequence/creative_activities_semantic/creative_activities_semantic_1.png"" class=""exp-image"">
                    <div class=""question-area"">
                        <p style=""font-size: 20px; font-weight: bold; margin: 0;"">Is there a person in this image?</p>
                    </div>
                </div>","0","main_experiment_trial","1","creative_activities_semantic","semantic_sequence","","","","",""
"","","","","","html-keyboard-response","61","191013","0.0-61.0","89EA09DE48514928A396DEAC592AC3E4","019cf854-9765-790b-8657-434bd68efe37","019cf80d-4266-7117-8a51-54e13c84aca4","","null","
                <div class=""stimulus-container"">
                    <img src=""images/semantic_sequence/creative_activities_semantic/creative_activities_semantic_2.png"" class=""exp-image"">
                    <div class=""question-area""></div> 
                </div>","null","","","","","","","","",""
"","","","","","html-button-response","62","191471","0.0-62.0","89EA09DE48514928A396DEAC592AC3E4","019cf854-9765-790b-8657-434bd68efe37","019cf80d-4266-7117-8a51-54e13c84aca4","","457","
                <div class=""stimulus-container"">
                    <img src=""images/semantic_sequence/creative_activities_semantic/creative_activities_semantic_2.png"" class=""exp-image"">
                    <div class=""question-area"">
                        <p style=""font-size: 20px; font-weight: bold; margin: 0;"">Is there a person in this image?</p>
                    </div>
                </div>","0","main_experiment_trial","2","creative_activities_semantic","semantic_sequence","","","","",""
"","","","","","html-keyboard-response","63","196473","0.0-63.0","89EA09DE48514928A396DEAC592AC3E4","019cf854-9765-790b-8657-434bd68efe37","019cf80d-4266-7117-8a51-54e13c84aca4","","null","
                <div class=""stimulus-container"">
                    <img src=""images/semantic_sequence/creative_activities_semantic/creative_activities_semantic_3.png"" class=""exp-image"">
                    <div class=""question-area""></div> 
                </div>","null","","","","","","","","",""
"","","","","","html-button-response","64","196928","0.0-64.0","89EA09DE48514928A396DEAC592AC3E4","019cf854-9765-790b-8657-434bd68efe37","019cf80d-4266-7117-8a51-54e13c84aca4","","454","
                <div class=""stimulus-container"">
                    <img src=""images/semantic_sequence/creative_activities_semantic/creative_activities_semantic_3.png"" class=""exp-image"">
                    <div class=""question-area"">
                        <p style=""font-size: 20px; font-weight: bold; margin: 0;"">Is there a person in this image?</p>
                    </div>
                </div>","0","main_experiment_trial","3","creative_activities_semantic","semantic_sequence","","","","",""
"","","","","","html-keyboard-response","65","201930","0.0-65.0","89EA09DE48514928A396DEAC592AC3E4","019cf854-9765-790b-8657-434bd68efe37","019cf80d-4266-7117-8a51-54e13c84aca4","","null","
                <div class=""stimulus-container"">
                    <img src=""images/semantic_sequence/creative_activities_semantic/creative_activities_semantic_4.png"" class=""exp-image"">
                    <div class=""question-area""></div> 
                </div>","null","","","","","","","","",""
"","","","","","html-button-response","66","202420","0.0-66.0","89EA09DE48514928A396DEAC592AC3E4","019cf854-9765-790b-8657-434bd68efe37","019cf80d-4266-7117-8a51-54e13c84aca4","","489","
                <div class=""stimulus-container"">
                    <img src=""images/semantic_sequence/creative_activities_semantic/creative_activities_semantic_4.png"" class=""exp-image"">
                    <div class=""question-area"">
                        <p style=""font-size: 20px; font-weight: bold; margin: 0;"">Is there a person in this image?</p>
                    </div>
                </div>","0","main_experiment_trial","4","creative_activities_semantic","semantic_sequence","","","","",""
"","","","","","html-keyboard-response","67","207422","0.0-67.0","89EA09DE48514928A396DEAC592AC3E4","019cf854-9765-790b-8657-434bd68efe37","019cf80d-4266-7117-8a51-54e13c84aca4","","null","
                <div class=""stimulus-container"">
                    <img src=""images/semantic_sequence/creative_activities_semantic/creative_activities_semantic_5.png"" class=""exp-image"">
                    <div class=""question-area""></div> 
                </div>","null","","","","","","","","",""
"","","","","","html-button-response","68","207938","0.0-68.0","89EA09DE48514928A396DEAC592AC3E4","019cf854-9765-790b-8657-434bd68efe37","019cf80d-4266-7117-8a51-54e13c84aca4","","515","
                <div class=""stimulus-container"">
                    <img src=""images/semantic_sequence/creative_activities_semantic/creative_activities_semantic_5.png"" class=""exp-image"">
                    <div class=""question-area"">
                        <p style=""font-size: 20px; font-weight: bold; margin: 0;"">Is there a person in this image?</p>
                    </div>
                </div>","0","main_experiment_trial","5","creative_activities_semantic","semantic_sequence","","","","",""
"","","","","","html-keyboard-response","69","212940","0.0-69.0","89EA09DE48514928A396DEAC592AC3E4","019cf854-9765-790b-8657-434bd68efe37","019cf80d-4266-7117-8a51-54e13c84aca4","","null","
                <div class=""stimulus-container"">
                    <img src=""images/semantic_sequence/creative_activities_semantic/creative_activities_semantic_6.png"" class=""exp-image"">
                    <div class=""question-area""></div> 
                </div>","null","","","","","","","","",""
"","","","","","html-button-response","70","213715","0.0-70.0","89EA09DE48514928A396DEAC592AC3E4","019cf854-9765-790b-8657-434bd68efe37","019cf80d-4266-7117-8a51-54e13c84aca4","","774","
                <div class=""stimulus-container"">
                    <img src=""images/semantic_sequence/creative_activities_semantic/creative_activities_semantic_6.png"" class=""exp-image"">
                    <div class=""question-area"">
                        <p style=""font-size: 20px; font-weight: bold; margin: 0;"">Is there a person in this image?</p>
                    </div>
                </div>","0","main_experiment_trial","6","creative_activities_semantic","semantic_sequence","","","","",""
"","","","","","html-keyboard-response","71","218715","0.0-71.0","89EA09DE48514928A396DEAC592AC3E4","019cf854-9765-790b-8657-434bd68efe37","019cf80d-4266-7117-8a51-54e13c84aca4","","null","
                <div class=""stimulus-container"">
                    <img src=""images/semantic_sequence/creative_activities_semantic/creative_activities_semantic_7.png"" class=""exp-image"">
                    <div class=""question-area""></div> 
                </div>","null","","","","","","","","",""
"","","","","","html-button-response","72","219423","0.0-72.0","89EA09DE48514928A396DEAC592AC3E4","019cf854-9765-790b-8657-434bd68efe37","019cf80d-4266-7117-8a51-54e13c84aca4","","709","
                <div class=""stimulus-container"">
                    <img src=""images/semantic_sequence/creative_activities_semantic/creative_activities_semantic_7.png"" class=""exp-image"">
                    <div class=""question-area"">
                        <p style=""font-size: 20px; font-weight: bold; margin: 0;"">Is there a person in this image?</p>
                    </div>
                </div>","0","main_experiment_trial","7","creative_activities_semantic","semantic_sequence","","","","",""
"","","","","","html-keyboard-response","73","224416","0.0-73.0","89EA09DE48514928A396DEAC592AC3E4","019cf854-9765-790b-8657-434bd68efe37","019cf80d-4266-7117-8a51-54e13c84aca4","","null","
                <div class=""stimulus-container"">
                    <img src=""images/semantic_sequence/creative_activities_semantic/creative_activities_semantic_8.png"" class=""exp-image"">
                    <div class=""question-area""></div> 
                </div>","null","","","","","","","","",""
"","","","","","html-button-response","74","225082","0.0-74.0","89EA09DE48514928A396DEAC592AC3E4","019cf854-9765-790b-8657-434bd68efe37","019cf80d-4266-7117-8a51-54e13c84aca4","","666","
                <div class=""stimulus-container"">
                    <img src=""images/semantic_sequence/creative_activities_semantic/creative_activities_semantic_8.png"" class=""exp-image"">
                    <div class=""question-area"">
                        <p style=""font-size: 20px; font-weight: bold; margin: 0;"">Is there a person in this image?</p>
                    </div>
                </div>","0","main_experiment_trial","8","creative_activities_semantic","semantic_sequence","","","","",""
"","","","","","html-keyboard-response","75","230078","0.0-75.0","89EA09DE48514928A396DEAC592AC3E4","019cf854-9765-790b-8657-434bd68efe37","019cf80d-4266-7117-8a51-54e13c84aca4","","null","
                <div class=""stimulus-container"">
                    <img src=""images/semantic_sequence/creative_activities_semantic/creative_activities_semantic_9.png"" class=""exp-image"">
                    <div class=""question-area""></div> 
                </div>","null","","","","","","","","",""
"","","","","","html-button-response","76","230701","0.0-76.0","89EA09DE48514928A396DEAC592AC3E4","019cf854-9765-790b-8657-434bd68efe37","019cf80d-4266-7117-8a51-54e13c84aca4","","623","
                <div class=""stimulus-container"">
                    <img src=""images/semantic_sequence/creative_activities_semantic/creative_activities_semantic_9.png"" class=""exp-image"">
                    <div class=""question-area"">
                        <p style=""font-size: 20px; font-weight: bold; margin: 0;"">Is there a person in this image?</p>
                    </div>
                </div>","1","main_experiment_trial","9","creative_activities_semantic","semantic_sequence","","","","",""
"","","","","","html-keyboard-response","77","235698","0.0-77.0","89EA09DE48514928A396DEAC592AC3E4","019cf854-9765-790b-8657-434bd68efe37","019cf80d-4266-7117-8a51-54e13c84aca4","","null","
                <div class=""stimulus-container"">
                    <img src=""images/semantic_sequence/creative_activities_semantic/creative_activities_semantic_ten.png"" class=""exp-image"">
                    <div class=""question-area""></div> 
                </div>","null","","","","","","","","",""
"","","","","","html-button-response","78","236290","0.0-78.0","89EA09DE48514928A396DEAC592AC3E4","019cf854-9765-790b-8657-434bd68efe37","019cf80d-4266-7117-8a51-54e13c84aca4","","591","
                <div class=""stimulus-container"">
                    <img src=""images/semantic_sequence/creative_activities_semantic/creative_activities_semantic_ten.png"" class=""exp-image"">
                    <div class=""question-area"">
                        <p style=""font-size: 20px; font-weight: bold; margin: 0;"">Is there a person in this image?</p>
                    </div>
                </div>","0","main_experiment_trial","ten","creative_activities_semantic","semantic_sequence","","","","",""
"","","","","","html-keyboard-response","79","237291","0.0-79.0","89EA09DE48514928A396DEAC592AC3E4","019cf854-9765-790b-8657-434bd68efe37","019cf80d-4266-7117-8a51-54e13c84aca4","","null","<div style=""background-color: white; width: 100vw; height: 100vh;""></div>","null","","","","","","","","",""
"","","","","","html-keyboard-response","80","242291","0.0-80.0","89EA09DE48514928A396DEAC592AC3E4","019cf854-9765-790b-8657-434bd68efe37","019cf80d-4266-7117-8a51-54e13c84aca4","","null","
                <div class=""stimulus-container"">
                    <img src=""images/schematic_sequence/flight_scheme/flight_scheme_1.png"" class=""exp-image"">
                    <div class=""question-area""></div> 
                </div>","null","","","","","","","","",""
"","","","","","html-button-response","81","243112","0.0-81.0","89EA09DE48514928A396DEAC592AC3E4","019cf854-9765-790b-8657-434bd68efe37","019cf80d-4266-7117-8a51-54e13c84aca4","","821","
                <div class=""stimulus-container"">
                    <img src=""images/schematic_sequence/flight_scheme/flight_scheme_1.png"" class=""exp-image"">
                    <div class=""question-area"">
                        <p style=""font-size: 20px; font-weight: bold; margin: 0;"">Is there a person in this image?</p>
                    </div>
                </div>","1","main_experiment_trial","1","flight_scheme","schematic_sequence","","","","",""
"","","","","","html-keyboard-response","82","248113","0.0-82.0","89EA09DE48514928A396DEAC592AC3E4","019cf854-9765-790b-8657-434bd68efe37","019cf80d-4266-7117-8a51-54e13c84aca4","","null","
                <div class=""stimulus-container"">
                    <img src=""images/schematic_sequence/flight_scheme/flight_scheme_2.png"" class=""exp-image"">
                    <div class=""question-area""></div> 
                </div>","null","","","","","","","","",""
"","","","","","html-button-response","83","248615","0.0-83.0","89EA09DE48514928A396DEAC592AC3E4","019cf854-9765-790b-8657-434bd68efe37","019cf80d-4266-7117-8a51-54e13c84aca4","","502","
                <div class=""stimulus-container"">
                    <img src=""images/schematic_sequence/flight_scheme/flight_scheme_2.png"" class=""exp-image"">
                    <div class=""question-area"">
                        <p style=""font-size: 20px; font-weight: bold; margin: 0;"">Is there a person in this image?</p>
                    </div>
                </div>","1","main_experiment_trial","2","flight_scheme","schematic_sequence","","","","",""
"","","","","","html-keyboard-response","84","253616","0.0-84.0","89EA09DE48514928A396DEAC592AC3E4","019cf854-9765-790b-8657-434bd68efe37","019cf80d-4266-7117-8a51-54e13c84aca4","","null","
                <div class=""stimulus-container"">
                    <img src=""images/schematic_sequence/flight_scheme/flight_scheme_3.png"" class=""exp-image"">
                    <div class=""question-area""></div> 
                </div>","null","","","","","","","","",""
"","","","","","html-button-response","85","254157","0.0-85.0","89EA09DE48514928A396DEAC592AC3E4","019cf854-9765-790b-8657-434bd68efe37","019cf80d-4266-7117-8a51-54e13c84aca4","","541","
                <div class=""stimulus-container"">
                    <img src=""images/schematic_sequence/flight_scheme/flight_scheme_3.png"" class=""exp-image"">
                    <div class=""question-area"">
                        <p style=""font-size: 20px; font-weight: bold; margin: 0;"">Is there a person in this image?</p>
                    </div>
                </div>","0","main_experiment_trial","3","flight_scheme","schematic_sequence","","","","",""
"","","","","","html-keyboard-response","86","259158","0.0-86.0","89EA09DE48514928A396DEAC592AC3E4","019cf854-9765-790b-8657-434bd68efe37","019cf80d-4266-7117-8a51-54e13c84aca4","","null","
                <div class=""stimulus-container"">
                    <img src=""images/schematic_sequence/flight_scheme/flight_scheme_4.png"" class=""exp-image"">
                    <div class=""question-area""></div> 
                </div>","null","","","","","","","","",""
"","","","","","html-button-response","87","259728","0.0-87.0","89EA09DE48514928A396DEAC592AC3E4","019cf854-9765-790b-8657-434bd68efe37","019cf80d-4266-7117-8a51-54e13c84aca4","","569","
                <div class=""stimulus-container"">
                    <img src=""images/schematic_sequence/flight_scheme/flight_scheme_4.png"" class=""exp-image"">
                    <div class=""question-area"">
                        <p style=""font-size: 20px; font-weight: bold; margin: 0;"">Is there a person in this image?</p>
                    </div>
                </div>","0","main_experiment_trial","4","flight_scheme","schematic_sequence","","","","",""
"","","","","","html-keyboard-response","88","264730","0.0-88.0","89EA09DE48514928A396DEAC592AC3E4","019cf854-9765-790b-8657-434bd68efe37","019cf80d-4266-7117-8a51-54e13c84aca4","","null","
                <div class=""stimulus-container"">
                    <img src=""images/schematic_sequence/flight_scheme/flight_scheme_5.png"" class=""exp-image"">
                    <div class=""question-area""></div> 
                </div>","null","","","","","","","","",""
"","","","","","html-button-response","89","265247","0.0-89.0","89EA09DE48514928A396DEAC592AC3E4","019cf854-9765-790b-8657-434bd68efe37","019cf80d-4266-7117-8a51-54e13c84aca4","","516","
                <div class=""stimulus-container"">
                    <img src=""images/schematic_sequence/flight_scheme/flight_scheme_5.png"" class=""exp-image"">
                    <div class=""question-area"">
                        <p style=""font-size: 20px; font-weight: bold; margin: 0;"">Is there a person in this image?</p>
                    </div>
                </div>","0","main_experiment_trial","5","flight_scheme","schematic_sequence","","","","",""
"","","","","","html-keyboard-response","90","270249","0.0-90.0","89EA09DE48514928A396DEAC592AC3E4","019cf854-9765-790b-8657-434bd68efe37","019cf80d-4266-7117-8a51-54e13c84aca4","","null","
                <div class=""stimulus-container"">
                    <img src=""images/schematic_sequence/flight_scheme/flight_scheme_6.png"" class=""exp-image"">
                    <div class=""question-area""></div> 
                </div>","null","","","","","","","","",""
"","","","","","html-button-response","91","271561","0.0-91.0","89EA09DE48514928A396DEAC592AC3E4","019cf854-9765-790b-8657-434bd68efe37","019cf80d-4266-7117-8a51-54e13c84aca4","","1311","
                <div class=""stimulus-container"">
                    <img src=""images/schematic_sequence/flight_scheme/flight_scheme_6.png"" class=""exp-image"">
                    <div class=""question-area"">
                        <p style=""font-size: 20px; font-weight: bold; margin: 0;"">Is there a person in this image?</p>
                    </div>
                </div>","1","main_experiment_trial","6","flight_scheme","schematic_sequence","","","","",""
"","","","","","html-keyboard-response","92","276563","0.0-92.0","89EA09DE48514928A396DEAC592AC3E4","019cf854-9765-790b-8657-434bd68efe37","019cf80d-4266-7117-8a51-54e13c84aca4","","null","
                <div class=""stimulus-container"">
                    <img src=""images/schematic_sequence/flight_scheme/flight_scheme_7.png"" class=""exp-image"">
                    <div class=""question-area""></div> 
                </div>","null","","","","","","","","",""
"","","","","","html-button-response","93","277082","0.0-93.0","89EA09DE48514928A396DEAC592AC3E4","019cf854-9765-790b-8657-434bd68efe37","019cf80d-4266-7117-8a51-54e13c84aca4","","517","
                <div class=""stimulus-container"">
                    <img src=""images/schematic_sequence/flight_scheme/flight_scheme_7.png"" class=""exp-image"">
                    <div class=""question-area"">
                        <p style=""font-size: 20px; font-weight: bold; margin: 0;"">Is there a person in this image?</p>
                    </div>
                </div>","1","main_experiment_trial","7","flight_scheme","schematic_sequence","","","","",""
"","","","","","html-keyboard-response","94","282084","0.0-94.0","89EA09DE48514928A396DEAC592AC3E4","019cf854-9765-790b-8657-434bd68efe37","019cf80d-4266-7117-8a51-54e13c84aca4","","null","
                <div class=""stimulus-container"">
                    <img src=""images/schematic_sequence/flight_scheme/flight_scheme_8.png"" class=""exp-image"">
                    <div class=""question-area""></div> 
                </div>","null","","","","","","","","",""
"","","","","","html-button-response","95","282660","0.0-95.0","89EA09DE48514928A396DEAC592AC3E4","019cf854-9765-790b-8657-434bd68efe37","019cf80d-4266-7117-8a51-54e13c84aca4","","575","
                <div class=""stimulus-container"">
                    <img src=""images/schematic_sequence/flight_scheme/flight_scheme_8.png"" class=""exp-image"">
                    <div class=""question-area"">
                        <p style=""font-size: 20px; font-weight: bold; margin: 0;"">Is there a person in this image?</p>
                    </div>
                </div>","1","main_experiment_trial","8","flight_scheme","schematic_sequence","","","","",""
"","","","","","html-keyboard-response","96","287662","0.0-96.0","89EA09DE48514928A396DEAC592AC3E4","019cf854-9765-790b-8657-434bd68efe37","019cf80d-4266-7117-8a51-54e13c84aca4","","null","
                <div class=""stimulus-container"">
                    <img src=""images/schematic_sequence/flight_scheme/flight_scheme_9.png"" class=""exp-image"">
                    <div class=""question-area""></div> 
                </div>","null","","","","","","","","",""
"","","","","","html-button-response","97","288600","0.0-97.0","89EA09DE48514928A396DEAC592AC3E4","019cf854-9765-790b-8657-434bd68efe37","019cf80d-4266-7117-8a51-54e13c84aca4","","937","
                <div class=""stimulus-container"">
                    <img src=""images/schematic_sequence/flight_scheme/flight_scheme_9.png"" class=""exp-image"">
                    <div class=""question-area"">
                        <p style=""font-size: 20px; font-weight: bold; margin: 0;"">Is there a person in this image?</p>
                    </div>
                </div>","0","main_experiment_trial","9","flight_scheme","schematic_sequence","","","","",""
"","","","","","html-keyboard-response","98","293602","0.0-98.0","89EA09DE48514928A396DEAC592AC3E4","019cf854-9765-790b-8657-434bd68efe37","019cf80d-4266-7117-8a51-54e13c84aca4","","null","
                <div class=""stimulus-container"">
                    <img src=""images/schematic_sequence/flight_scheme/flight_scheme_ten.png"" class=""exp-image"">
                    <div class=""question-area""></div> 
                </div>","null","","","","","","","","",""
"","","","","","html-button-response","99","294060","0.0-99.0","89EA09DE48514928A396DEAC592AC3E4","019cf854-9765-790b-8657-434bd68efe37","019cf80d-4266-7117-8a51-54e13c84aca4","","457","
                <div class=""stimulus-container"">
                    <img src=""images/schematic_sequence/flight_scheme/flight_scheme_ten.png"" class=""exp-image"">
                    <div class=""question-area"">
                        <p style=""font-size: 20px; font-weight: bold; margin: 0;"">Is there a person in this image?</p>
                    </div>
                </div>","0","main_experiment_trial","ten","flight_scheme","schematic_sequence","","","","",""
"","","","","","html-keyboard-response","100","295063","0.0-100.0","89EA09DE48514928A396DEAC592AC3E4","019cf854-9765-790b-8657-434bd68efe37","019cf80d-4266-7117-8a51-54e13c84aca4","","null","<div style=""background-color: white; width: 100vw; height: 100vh;""></div>","null","","","","","","","","",""
"","","","","","html-keyboard-response","101","300064","0.0-101.0","89EA09DE48514928A396DEAC592AC3E4","019cf854-9765-790b-8657-434bd68efe37","019cf80d-4266-7117-8a51-54e13c84aca4","","null","
                <div class=""stimulus-container"">
                    <img src=""images/schematic_sequence/hotel_scheme/hotel_scheme_1.png"" class=""exp-image"">
                    <div class=""question-area""></div> 
                </div>","null","","","","","","","","",""
"","","","","","html-button-response","102","300523","0.0-102.0","89EA09DE48514928A396DEAC592AC3E4","019cf854-9765-790b-8657-434bd68efe37","019cf80d-4266-7117-8a51-54e13c84aca4","","457","
                <div class=""stimulus-container"">
                    <img src=""images/schematic_sequence/hotel_scheme/hotel_scheme_1.png"" class=""exp-image"">
                    <div class=""question-area"">
                        <p style=""font-size: 20px; font-weight: bold; margin: 0;"">Is there a person in this image?</p>
                    </div>
                </div>","1","main_experiment_trial","1","hotel_scheme","schematic_sequence","","","","",""
"","","","","","html-keyboard-response","103","305525","0.0-103.0","89EA09DE48514928A396DEAC592AC3E4","019cf854-9765-790b-8657-434bd68efe37","019cf80d-4266-7117-8a51-54e13c84aca4","","null","
                <div class=""stimulus-container"">
                    <img src=""images/schematic_sequence/hotel_scheme/hotel_scheme_2.png"" class=""exp-image"">
                    <div class=""question-area""></div> 
                </div>","null","","","","","","","","",""
"","","","","","html-button-response","104","305968","0.0-104.0","89EA09DE48514928A396DEAC592AC3E4","019cf854-9765-790b-8657-434bd68efe37","019cf80d-4266-7117-8a51-54e13c84aca4","","442","
                <div class=""stimulus-container"">
                    <img src=""images/schematic_sequence/hotel_scheme/hotel_scheme_2.png"" class=""exp-image"">
                    <div class=""question-area"">
                        <p style=""font-size: 20px; font-weight: bold; margin: 0;"">Is there a person in this image?</p>
                    </div>
                </div>","0","main_experiment_trial","2","hotel_scheme","schematic_sequence","","","","",""
"","","","","","html-keyboard-response","105","310970","0.0-105.0","89EA09DE48514928A396DEAC592AC3E4","019cf854-9765-790b-8657-434bd68efe37","019cf80d-4266-7117-8a51-54e13c84aca4","","null","
                <div class=""stimulus-container"">
                    <img src=""images/schematic_sequence/hotel_scheme/hotel_scheme_3.png"" class=""exp-image"">
                    <div class=""question-area""></div> 
                </div>","null","","","","","","","","",""
"","","","","","html-button-response","106","311646","0.0-106.0","89EA09DE48514928A396DEAC592AC3E4","019cf854-9765-790b-8657-434bd68efe37","019cf80d-4266-7117-8a51-54e13c84aca4","","675","
                <div class=""stimulus-container"">
                    <img src=""images/schematic_sequence/hotel_scheme/hotel_scheme_3.png"" class=""exp-image"">
                    <div class=""question-area"">
                        <p style=""font-size: 20px; font-weight: bold; margin: 0;"">Is there a person in this image?</p>
                    </div>
                </div>","0","main_experiment_trial","3","hotel_scheme","schematic_sequence","","","","",""
"","","","","","html-keyboard-response","107","316648","0.0-107.0","89EA09DE48514928A396DEAC592AC3E4","019cf854-9765-790b-8657-434bd68efe37","019cf80d-4266-7117-8a51-54e13c84aca4","","null","
                <div class=""stimulus-container"">
                    <img src=""images/schematic_sequence/hotel_scheme/hotel_scheme_4.png"" class=""exp-image"">
                    <div class=""question-area""></div> 
                </div>","null","","","","","","","","",""
"","","","","","html-button-response","108","317833","0.0-108.0","89EA09DE48514928A396DEAC592AC3E4","019cf854-9765-790b-8657-434bd68efe37","019cf80d-4266-7117-8a51-54e13c84aca4","","1184","
                <div class=""stimulus-container"">
                    <img src=""images/schematic_sequence/hotel_scheme/hotel_scheme_4.png"" class=""exp-image"">
                    <div class=""question-area"">
                        <p style=""font-size: 20px; font-weight: bold; margin: 0;"">Is there a person in this image?</p>
                    </div>
                </div>","1","main_experiment_trial","4","hotel_scheme","schematic_sequence","","","","",""
"","","","","","html-keyboard-response","109","322835","0.0-109.0","89EA09DE48514928A396DEAC592AC3E4","019cf854-9765-790b-8657-434bd68efe37","019cf80d-4266-7117-8a51-54e13c84aca4","","null","
                <div class=""stimulus-container"">
                    <img src=""images/schematic_sequence/hotel_scheme/hotel_scheme_5.png"" class=""exp-image"">
                    <div class=""question-area""></div> 
                </div>","null","","","","","","","","",""
"","","","","","html-button-response","110","323490","0.0-110.0","89EA09DE48514928A396DEAC592AC3E4","019cf854-9765-790b-8657-434bd68efe37","019cf80d-4266-7117-8a51-54e13c84aca4","","654","
                <div class=""stimulus-container"">
                    <img src=""images/schematic_sequence/hotel_scheme/hotel_scheme_5.png"" class=""exp-image"">
                    <div class=""question-area"">
                        <p style=""font-size: 20px; font-weight: bold; margin: 0;"">Is there a person in this image?</p>
                    </div>
                </div>","0","main_experiment_trial","5","hotel_scheme","schematic_sequence","","","","",""
"","","","","","html-keyboard-response","111","328493","0.0-111.0","89EA09DE48514928A396DEAC592AC3E4","019cf854-9765-790b-8657-434bd68efe37","019cf80d-4266-7117-8a51-54e13c84aca4","","null","
                <div class=""stimulus-container"">
                    <img src=""images/schematic_sequence/hotel_scheme/hotel_scheme_6.png"" class=""exp-image"">
                    <div class=""question-area""></div> 
                </div>","null","","","","","","","","",""
"","","","","","html-button-response","112","329100","0.0-112.0","89EA09DE48514928A396DEAC592AC3E4","019cf854-9765-790b-8657-434bd68efe37","019cf80d-4266-7117-8a51-54e13c84aca4","","606","
                <div class=""stimulus-container"">
                    <img src=""images/schematic_sequence/hotel_scheme/hotel_scheme_6.png"" class=""exp-image"">
                    <div class=""question-area"">
                        <p style=""font-size: 20px; font-weight: bold; margin: 0;"">Is there a person in this image?</p>
                    </div>
                </div>","0","main_experiment_trial","6","hotel_scheme","schematic_sequence","","","","",""
"","","","","","html-keyboard-response","113","334101","0.0-113.0","89EA09DE48514928A396DEAC592AC3E4","019cf854-9765-790b-8657-434bd68efe37","019cf80d-4266-7117-8a51-54e13c84aca4","","null","
                <div class=""stimulus-container"">
                    <img src=""images/schematic_sequence/hotel_scheme/hotel_scheme_7.png"" class=""exp-image"">
                    <div class=""question-area""></div> 
                </div>","null","","","","","","","","",""
"","","","","","html-button-response","114","334799","0.0-114.0","89EA09DE48514928A396DEAC592AC3E4","019cf854-9765-790b-8657-434bd68efe37","019cf80d-4266-7117-8a51-54e13c84aca4","","697","
                <div class=""stimulus-container"">
                    <img src=""images/schematic_sequence/hotel_scheme/hotel_scheme_7.png"" class=""exp-image"">
                    <div class=""question-area"">
                        <p style=""font-size: 20px; font-weight: bold; margin: 0;"">Is there a person in this image?</p>
                    </div>
                </div>","0","main_experiment_trial","7","hotel_scheme","schematic_sequence","","","","",""
"","","","","","html-keyboard-response","115","339801","0.0-115.0","89EA09DE48514928A396DEAC592AC3E4","019cf854-9765-790b-8657-434bd68efe37","019cf80d-4266-7117-8a51-54e13c84aca4","","null","
                <div class=""stimulus-container"">
                    <img src=""images/schematic_sequence/hotel_scheme/hotel_scheme_8.png"" class=""exp-image"">
                    <div class=""question-area""></div> 
                </div>","null","","","","","","","","",""
"","","","","","html-button-response","116","340634","0.0-116.0","89EA09DE48514928A396DEAC592AC3E4","019cf854-9765-790b-8657-434bd68efe37","019cf80d-4266-7117-8a51-54e13c84aca4","","832","
                <div class=""stimulus-container"">
                    <img src=""images/schematic_sequence/hotel_scheme/hotel_scheme_8.png"" class=""exp-image"">
                    <div class=""question-area"">
                        <p style=""font-size: 20px; font-weight: bold; margin: 0;"">Is there a person in this image?</p>
                    </div>
                </div>","0","main_experiment_trial","8","hotel_scheme","schematic_sequence","","","","",""
"","","","","","html-keyboard-response","117","345636","0.0-117.0","89EA09DE48514928A396DEAC592AC3E4","019cf854-9765-790b-8657-434bd68efe37","019cf80d-4266-7117-8a51-54e13c84aca4","","null","
                <div class=""stimulus-container"">
                    <img src=""images/schematic_sequence/hotel_scheme/hotel_scheme_9.png"" class=""exp-image"">
                    <div class=""question-area""></div> 
                </div>","null","","","","","","","","",""
"","","","","","html-button-response","118","346303","0.0-118.0","89EA09DE48514928A396DEAC592AC3E4","019cf854-9765-790b-8657-434bd68efe37","019cf80d-4266-7117-8a51-54e13c84aca4","","666","
                <div class=""stimulus-container"">
                    <img src=""images/schematic_sequence/hotel_scheme/hotel_scheme_9.png"" class=""exp-image"">
                    <div class=""question-area"">
                        <p style=""font-size: 20px; font-weight: bold; margin: 0;"">Is there a person in this image?</p>
                    </div>
                </div>","0","main_experiment_trial","9","hotel_scheme","schematic_sequence","","","","",""
"","","","","","html-keyboard-response","119","351306","0.0-119.0","89EA09DE48514928A396DEAC592AC3E4","019cf854-9765-790b-8657-434bd68efe37","019cf80d-4266-7117-8a51-54e13c84aca4","","null","
                <div class=""stimulus-container"">
                    <img src=""images/schematic_sequence/hotel_scheme/hotel_scheme_ten.png"" class=""exp-image"">
                    <div class=""question-area""></div> 
                </div>","null","","","","","","","","",""
"","","","","","html-button-response","120","351913","0.0-120.0","89EA09DE48514928A396DEAC592AC3E4","019cf854-9765-790b-8657-434bd68efe37","019cf80d-4266-7117-8a51-54e13c84aca4","","606","
                <div class=""stimulus-container"">
                    <img src=""images/schematic_sequence/hotel_scheme/hotel_scheme_ten.png"" class=""exp-image"">
                    <div class=""question-area"">
                        <p style=""font-size: 20px; font-weight: bold; margin: 0;"">Is there a person in this image?</p>
                    </div>
                </div>","0","main_experiment_trial","ten","hotel_scheme","schematic_sequence","","","","",""
"","","","","","html-keyboard-response","121","352915","0.0-121.0","89EA09DE48514928A396DEAC592AC3E4","019cf854-9765-790b-8657-434bd68efe37","019cf80d-4266-7117-8a51-54e13c84aca4","","null","<div style=""background-color: white; width: 100vw; height: 100vh;""></div>","null","","","","","","","","",""
"","","","","","html-keyboard-response","122","357916","0.0-122.0","89EA09DE48514928A396DEAC592AC3E4","019cf854-9765-790b-8657-434bd68efe37","019cf80d-4266-7117-8a51-54e13c84aca4","","null","
                <div class=""stimulus-container"">
                    <img src=""images/semantic_sequence/housework_semantic/housework_semantic_1.png"" class=""exp-image"">
                    <div class=""question-area""></div> 
                </div>","null","","","","","","","","",""
"","","","","","html-button-response","123","358485","0.0-123.0","89EA09DE48514928A396DEAC592AC3E4","019cf854-9765-790b-8657-434bd68efe37","019cf80d-4266-7117-8a51-54e13c84aca4","","568","
                <div class=""stimulus-container"">
                    <img src=""images/semantic_sequence/housework_semantic/housework_semantic_1.png"" class=""exp-image"">
                    <div class=""question-area"">
                        <p style=""font-size: 20px; font-weight: bold; margin: 0;"">Is there a person in this image?</p>
                    </div>
                </div>","1","main_experiment_trial","1","housework_semantic","semantic_sequence","","","","",""
"","","","","","html-keyboard-response","124","363487","0.0-124.0","89EA09DE48514928A396DEAC592AC3E4","019cf854-9765-790b-8657-434bd68efe37","019cf80d-4266-7117-8a51-54e13c84aca4","","null","
                <div class=""stimulus-container"">
                    <img src=""images/semantic_sequence/housework_semantic/housework_semantic_2.png"" class=""exp-image"">
                    <div class=""question-area""></div> 
                </div>","null","","","","","","","","",""
"","","","","","html-button-response","125","364139","0.0-125.0","89EA09DE48514928A396DEAC592AC3E4","019cf854-9765-790b-8657-434bd68efe37","019cf80d-4266-7117-8a51-54e13c84aca4","","651","
                <div class=""stimulus-container"">
                    <img src=""images/semantic_sequence/housework_semantic/housework_semantic_2.png"" class=""exp-image"">
                    <div class=""question-area"">
                        <p style=""font-size: 20px; font-weight: bold; margin: 0;"">Is there a person in this image?</p>
                    </div>
                </div>","0","main_experiment_trial","2","housework_semantic","semantic_sequence","","","","",""
"","","","","","html-keyboard-response","126","369141","0.0-126.0","89EA09DE48514928A396DEAC592AC3E4","019cf854-9765-790b-8657-434bd68efe37","019cf80d-4266-7117-8a51-54e13c84aca4","","null","
                <div class=""stimulus-container"">
                    <img src=""images/semantic_sequence/housework_semantic/housework_semantic_3.png"" class=""exp-image"">
                    <div class=""question-area""></div> 
                </div>","null","","","","","","","","",""
"","","","","","html-button-response","127","370215","0.0-127.0","89EA09DE48514928A396DEAC592AC3E4","019cf854-9765-790b-8657-434bd68efe37","019cf80d-4266-7117-8a51-54e13c84aca4","","1073","
                <div class=""stimulus-container"">
                    <img src=""images/semantic_sequence/housework_semantic/housework_semantic_3.png"" class=""exp-image"">
                    <div class=""question-area"">
                        <p style=""font-size: 20px; font-weight: bold; margin: 0;"">Is there a person in this image?</p>
                    </div>
                </div>","0","main_experiment_trial","3","housework_semantic","semantic_sequence","","","","",""
"","","","","","html-keyboard-response","128","375217","0.0-128.0","89EA09DE48514928A396DEAC592AC3E4","019cf854-9765-790b-8657-434bd68efe37","019cf80d-4266-7117-8a51-54e13c84aca4","","null","
                <div class=""stimulus-container"">
                    <img src=""images/semantic_sequence/housework_semantic/housework_semantic_4.png"" class=""exp-image"">
                    <div class=""question-area""></div> 
                </div>","null","","","","","","","","",""
"","","","","","html-button-response","129","375880","0.0-129.0","89EA09DE48514928A396DEAC592AC3E4","019cf854-9765-790b-8657-434bd68efe37","019cf80d-4266-7117-8a51-54e13c84aca4","","662","
                <div class=""stimulus-container"">
                    <img src=""images/semantic_sequence/housework_semantic/housework_semantic_4.png"" class=""exp-image"">
                    <div class=""question-area"">
                        <p style=""font-size: 20px; font-weight: bold; margin: 0;"">Is there a person in this image?</p>
                    </div>
                </div>","0","main_experiment_trial","4","housework_semantic","semantic_sequence","","","","",""
"","","","","","html-keyboard-response","130","380883","0.0-130.0","89EA09DE48514928A396DEAC592AC3E4","019cf854-9765-790b-8657-434bd68efe37","019cf80d-4266-7117-8a51-54e13c84aca4","","null","
                <div class=""stimulus-container"">
                    <img src=""images/semantic_sequence/housework_semantic/housework_semantic_5.png"" class=""exp-image"">
                    <div class=""question-area""></div> 
                </div>","null","","","","","","","","",""
"","","","","","html-button-response","131","381373","0.0-131.0","89EA09DE48514928A396DEAC592AC3E4","019cf854-9765-790b-8657-434bd68efe37","019cf80d-4266-7117-8a51-54e13c84aca4","","489","
                <div class=""stimulus-container"">
                    <img src=""images/semantic_sequence/housework_semantic/housework_semantic_5.png"" class=""exp-image"">
                    <div class=""question-area"">
                        <p style=""font-size: 20px; font-weight: bold; margin: 0;"">Is there a person in this image?</p>
                    </div>
                </div>","0","main_experiment_trial","5","housework_semantic","semantic_sequence","","","","",""
"","","","","","html-keyboard-response","132","386375","0.0-132.0","89EA09DE48514928A396DEAC592AC3E4","019cf854-9765-790b-8657-434bd68efe37","019cf80d-4266-7117-8a51-54e13c84aca4","","null","
                <div class=""stimulus-container"">
                    <img src=""images/semantic_sequence/housework_semantic/housework_semantic_6.png"" class=""exp-image"">
                    <div class=""question-area""></div> 
                </div>","null","","","","","","","","",""
"","","","","","html-button-response","133","386848","0.0-133.0","89EA09DE48514928A396DEAC592AC3E4","019cf854-9765-790b-8657-434bd68efe37","019cf80d-4266-7117-8a51-54e13c84aca4","","472","
                <div class=""stimulus-container"">
                    <img src=""images/semantic_sequence/housework_semantic/housework_semantic_6.png"" class=""exp-image"">
                    <div class=""question-area"">
                        <p style=""font-size: 20px; font-weight: bold; margin: 0;"">Is there a person in this image?</p>
                    </div>
                </div>","0","main_experiment_trial","6","housework_semantic","semantic_sequence","","","","",""
"","","","","","html-keyboard-response","134","391850","0.0-134.0","89EA09DE48514928A396DEAC592AC3E4","019cf854-9765-790b-8657-434bd68efe37","019cf80d-4266-7117-8a51-54e13c84aca4","","null","
                <div class=""stimulus-container"">
                    <img src=""images/semantic_sequence/housework_semantic/housework_semantic_7.png"" class=""exp-image"">
                    <div class=""question-area""></div> 
                </div>","null","","","","","","","","",""
"","","","","","html-button-response","135","392459","0.0-135.0","89EA09DE48514928A396DEAC592AC3E4","019cf854-9765-790b-8657-434bd68efe37","019cf80d-4266-7117-8a51-54e13c84aca4","","607","
                <div class=""stimulus-container"">
                    <img src=""images/semantic_sequence/housework_semantic/housework_semantic_7.png"" class=""exp-image"">
                    <div class=""question-area"">
                        <p style=""font-size: 20px; font-weight: bold; margin: 0;"">Is there a person in this image?</p>
                    </div>
                </div>","1","main_experiment_trial","7","housework_semantic","semantic_sequence","","","","",""
"","","","","","html-keyboard-response","136","397461","0.0-136.0","89EA09DE48514928A396DEAC592AC3E4","019cf854-9765-790b-8657-434bd68efe37","019cf80d-4266-7117-8a51-54e13c84aca4","","null","
                <div class=""stimulus-container"">
                    <img src=""images/semantic_sequence/housework_semantic/housework_semantic_8.png"" class=""exp-image"">
                    <div class=""question-area""></div> 
                </div>","null","","","","","","","","",""
"","","","","","html-button-response","137","398385","0.0-137.0","89EA09DE48514928A396DEAC592AC3E4","019cf854-9765-790b-8657-434bd68efe37","019cf80d-4266-7117-8a51-54e13c84aca4","","924","
                <div class=""stimulus-container"">
                    <img src=""images/semantic_sequence/housework_semantic/housework_semantic_8.png"" class=""exp-image"">
                    <div class=""question-area"">
                        <p style=""font-size: 20px; font-weight: bold; margin: 0;"">Is there a person in this image?</p>
                    </div>
                </div>","0","main_experiment_trial","8","housework_semantic","semantic_sequence","","","","",""
"","","","","","html-keyboard-response","138","403387","0.0-138.0","89EA09DE48514928A396DEAC592AC3E4","019cf854-9765-790b-8657-434bd68efe37","019cf80d-4266-7117-8a51-54e13c84aca4","","null","
                <div class=""stimulus-container"">
                    <img src=""images/semantic_sequence/housework_semantic/housework_semantic_9.png"" class=""exp-image"">
                    <div class=""question-area""></div> 
                </div>","null","","","","","","","","",""
"","","","","","html-button-response","139","404550","0.0-139.0","89EA09DE48514928A396DEAC592AC3E4","019cf854-9765-790b-8657-434bd68efe37","019cf80d-4266-7117-8a51-54e13c84aca4","","1161","
                <div class=""stimulus-container"">
                    <img src=""images/semantic_sequence/housework_semantic/housework_semantic_9.png"" class=""exp-image"">
                    <div class=""question-area"">
                        <p style=""font-size: 20px; font-weight: bold; margin: 0;"">Is there a person in this image?</p>
                    </div>
                </div>","0","main_experiment_trial","9","housework_semantic","semantic_sequence","","","","",""
"","","","","","html-keyboard-response","140","409552","0.0-140.0","89EA09DE48514928A396DEAC592AC3E4","019cf854-9765-790b-8657-434bd68efe37","019cf80d-4266-7117-8a51-54e13c84aca4","","null","
                <div class=""stimulus-container"">
                    <img src=""images/semantic_sequence/housework_semantic/housework_semantic_ten.png"" class=""exp-image"">
                    <div class=""question-area""></div> 
                </div>","null","","","","","","","","",""
"","","","","","html-button-response","141","410039","0.0-141.0","89EA09DE48514928A396DEAC592AC3E4","019cf854-9765-790b-8657-434bd68efe37","019cf80d-4266-7117-8a51-54e13c84aca4","","487","
                <div class=""stimulus-container"">
                    <img src=""images/semantic_sequence/housework_semantic/housework_semantic_ten.png"" class=""exp-image"">
                    <div class=""question-area"">
                        <p style=""font-size: 20px; font-weight: bold; margin: 0;"">Is there a person in this image?</p>
                    </div>
                </div>","0","main_experiment_trial","ten","housework_semantic","semantic_sequence","","","","",""
"","","","","","html-keyboard-response","142","411041","0.0-142.0","89EA09DE48514928A396DEAC592AC3E4","019cf854-9765-790b-8657-434bd68efe37","019cf80d-4266-7117-8a51-54e13c84aca4","","null","<div style=""background-color: white; width: 100vw; height: 100vh;""></div>","null","","","","","","","","",""
"","","","","","html-keyboard-response","143","416042","0.0-143.0","89EA09DE48514928A396DEAC592AC3E4","019cf854-9765-790b-8657-434bd68efe37","019cf80d-4266-7117-8a51-54e13c84aca4","","null","
                <div class=""stimulus-container"">
                    <img src=""images/schematic_sequence/supermarket_scheme/supermarket_scheme_1.png"" class=""exp-image"">
                    <div class=""question-area""></div> 
                </div>","null","","","","","","","","",""
"","","","","","html-button-response","144","416955","0.0-144.0","89EA09DE48514928A396DEAC592AC3E4","019cf854-9765-790b-8657-434bd68efe37","019cf80d-4266-7117-8a51-54e13c84aca4","","912","
                <div class=""stimulus-container"">
                    <img src=""images/schematic_sequence/supermarket_scheme/supermarket_scheme_1.png"" class=""exp-image"">
                    <div class=""question-area"">
                        <p style=""font-size: 20px; font-weight: bold; margin: 0;"">Is there a person in this image?</p>
                    </div>
                </div>","1","main_experiment_trial","1","supermarket_scheme","schematic_sequence","","","","",""
"","","","","","html-keyboard-response","145","421957","0.0-145.0","89EA09DE48514928A396DEAC592AC3E4","019cf854-9765-790b-8657-434bd68efe37","019cf80d-4266-7117-8a51-54e13c84aca4","","null","
                <div class=""stimulus-container"">
                    <img src=""images/schematic_sequence/supermarket_scheme/supermarket_scheme_2.png"" class=""exp-image"">
                    <div class=""question-area""></div> 
                </div>","null","","","","","","","","",""
"","","","","","html-button-response","146","422533","0.0-146.0","89EA09DE48514928A396DEAC592AC3E4","019cf854-9765-790b-8657-434bd68efe37","019cf80d-4266-7117-8a51-54e13c84aca4","","575","
                <div class=""stimulus-container"">
                    <img src=""images/schematic_sequence/supermarket_scheme/supermarket_scheme_2.png"" class=""exp-image"">
                    <div class=""question-area"">
                        <p style=""font-size: 20px; font-weight: bold; margin: 0;"">Is there a person in this image?</p>
                    </div>
                </div>","1","main_experiment_trial","2","supermarket_scheme","schematic_sequence","","","","",""
"","","","","","html-keyboard-response","147","427535","0.0-147.0","89EA09DE48514928A396DEAC592AC3E4","019cf854-9765-790b-8657-434bd68efe37","019cf80d-4266-7117-8a51-54e13c84aca4","","null","
                <div class=""stimulus-container"">
                    <img src=""images/schematic_sequence/supermarket_scheme/supermarket_scheme_3.png"" class=""exp-image"">
                    <div class=""question-area""></div> 
                </div>","null","","","","","","","","",""
"","","","","","html-button-response","148","428235","0.0-148.0","89EA09DE48514928A396DEAC592AC3E4","019cf854-9765-790b-8657-434bd68efe37","019cf80d-4266-7117-8a51-54e13c84aca4","","699","
                <div class=""stimulus-container"">
                    <img src=""images/schematic_sequence/supermarket_scheme/supermarket_scheme_3.png"" class=""exp-image"">
                    <div class=""question-area"">
                        <p style=""font-size: 20px; font-weight: bold; margin: 0;"">Is there a person in this image?</p>
                    </div>
                </div>","1","main_experiment_trial","3","supermarket_scheme","schematic_sequence","","","","",""
"","","","","","html-keyboard-response","149","433237","0.0-149.0","89EA09DE48514928A396DEAC592AC3E4","019cf854-9765-790b-8657-434bd68efe37","019cf80d-4266-7117-8a51-54e13c84aca4","","null","
                <div class=""stimulus-container"">
                    <img src=""images/schematic_sequence/supermarket_scheme/supermarket_scheme_4.png"" class=""exp-image"">
                    <div class=""question-area""></div> 
                </div>","null","","","","","","","","",""
"","","","","","html-button-response","150","433694","0.0-150.0","89EA09DE48514928A396DEAC592AC3E4","019cf854-9765-790b-8657-434bd68efe37","019cf80d-4266-7117-8a51-54e13c84aca4","","456","
                <div class=""stimulus-container"">
                    <img src=""images/schematic_sequence/supermarket_scheme/supermarket_scheme_4.png"" class=""exp-image"">
                    <div class=""question-area"">
                        <p style=""font-size: 20px; font-weight: bold; margin: 0;"">Is there a person in this image?</p>
                    </div>
                </div>","0","main_experiment_trial","4","supermarket_scheme","schematic_sequence","","","","",""
"","","","","","html-keyboard-response","151","438696","0.0-151.0","89EA09DE48514928A396DEAC592AC3E4","019cf854-9765-790b-8657-434bd68efe37","019cf80d-4266-7117-8a51-54e13c84aca4","","null","
                <div class=""stimulus-container"">
                    <img src=""images/schematic_sequence/supermarket_scheme/supermarket_scheme_5.png"" class=""exp-image"">
                    <div class=""question-area""></div> 
                </div>","null","","","","","","","","",""
"","","","","","html-button-response","152","439213","0.0-152.0","89EA09DE48514928A396DEAC592AC3E4","019cf854-9765-790b-8657-434bd68efe37","019cf80d-4266-7117-8a51-54e13c84aca4","","516","
                <div class=""stimulus-container"">
                    <img src=""images/schematic_sequence/supermarket_scheme/supermarket_scheme_5.png"" class=""exp-image"">
                    <div class=""question-area"">
                        <p style=""font-size: 20px; font-weight: bold; margin: 0;"">Is there a person in this image?</p>
                    </div>
                </div>","1","main_experiment_trial","5","supermarket_scheme","schematic_sequence","","","","",""
"","","","","","html-keyboard-response","153","444215","0.0-153.0","89EA09DE48514928A396DEAC592AC3E4","019cf854-9765-790b-8657-434bd68efe37","019cf80d-4266-7117-8a51-54e13c84aca4","","null","
                <div class=""stimulus-container"">
                    <img src=""images/schematic_sequence/supermarket_scheme/supermarket_scheme_6.png"" class=""exp-image"">
                    <div class=""question-area""></div> 
                </div>","null","","","","","","","","",""
"","","","","","html-button-response","154","444600","0.0-154.0","89EA09DE48514928A396DEAC592AC3E4","019cf854-9765-790b-8657-434bd68efe37","019cf80d-4266-7117-8a51-54e13c84aca4","","383","
                <div class=""stimulus-container"">
                    <img src=""images/schematic_sequence/supermarket_scheme/supermarket_scheme_6.png"" class=""exp-image"">
                    <div class=""question-area"">
                        <p style=""font-size: 20px; font-weight: bold; margin: 0;"">Is there a person in this image?</p>
                    </div>
                </div>","0","main_experiment_trial","6","supermarket_scheme","schematic_sequence","","","","",""
"","","","","","html-keyboard-response","155","449602","0.0-155.0","89EA09DE48514928A396DEAC592AC3E4","019cf854-9765-790b-8657-434bd68efe37","019cf80d-4266-7117-8a51-54e13c84aca4","","null","
                <div class=""stimulus-container"">
                    <img src=""images/schematic_sequence/supermarket_scheme/supermarket_scheme_7.png"" class=""exp-image"">
                    <div class=""question-area""></div> 
                </div>","null","","","","","","","","",""
"","","","","","html-button-response","156","450014","0.0-156.0","89EA09DE48514928A396DEAC592AC3E4","019cf854-9765-790b-8657-434bd68efe37","019cf80d-4266-7117-8a51-54e13c84aca4","","411","
                <div class=""stimulus-container"">
                    <img src=""images/schematic_sequence/supermarket_scheme/supermarket_scheme_7.png"" class=""exp-image"">
                    <div class=""question-area"">
                        <p style=""font-size: 20px; font-weight: bold; margin: 0;"">Is there a person in this image?</p>
                    </div>
                </div>","0","main_experiment_trial","7","supermarket_scheme","schematic_sequence","","","","",""
"","","","","","html-keyboard-response","157","455017","0.0-157.0","89EA09DE48514928A396DEAC592AC3E4","019cf854-9765-790b-8657-434bd68efe37","019cf80d-4266-7117-8a51-54e13c84aca4","","null","
                <div class=""stimulus-container"">
                    <img src=""images/schematic_sequence/supermarket_scheme/supermarket_scheme_8.png"" class=""exp-image"">
                    <div class=""question-area""></div> 
                </div>","null","","","","","","","","",""
"","","","","","html-button-response","158","455460","0.0-158.0","89EA09DE48514928A396DEAC592AC3E4","019cf854-9765-790b-8657-434bd68efe37","019cf80d-4266-7117-8a51-54e13c84aca4","","442","
                <div class=""stimulus-container"">
                    <img src=""images/schematic_sequence/supermarket_scheme/supermarket_scheme_8.png"" class=""exp-image"">
                    <div class=""question-area"">
                        <p style=""font-size: 20px; font-weight: bold; margin: 0;"">Is there a person in this image?</p>
                    </div>
                </div>","0","main_experiment_trial","8","supermarket_scheme","schematic_sequence","","","","",""
"","","","","","html-keyboard-response","159","460462","0.0-159.0","89EA09DE48514928A396DEAC592AC3E4","019cf854-9765-790b-8657-434bd68efe37","019cf80d-4266-7117-8a51-54e13c84aca4","","null","
                <div class=""stimulus-container"">
                    <img src=""images/schematic_sequence/supermarket_scheme/supermarket_scheme_9.png"" class=""exp-image"">
                    <div class=""question-area""></div> 
                </div>","null","","","","","","","","",""
"","","","","","html-button-response","160","460948","0.0-160.0","89EA09DE48514928A396DEAC592AC3E4","019cf854-9765-790b-8657-434bd68efe37","019cf80d-4266-7117-8a51-54e13c84aca4","","485","
                <div class=""stimulus-container"">
                    <img src=""images/schematic_sequence/supermarket_scheme/supermarket_scheme_9.png"" class=""exp-image"">
                    <div class=""question-area"">
                        <p style=""font-size: 20px; font-weight: bold; margin: 0;"">Is there a person in this image?</p>
                    </div>
                </div>","0","main_experiment_trial","9","supermarket_scheme","schematic_sequence","","","","",""
"","","","","","html-keyboard-response","161","465950","0.0-161.0","89EA09DE48514928A396DEAC592AC3E4","019cf854-9765-790b-8657-434bd68efe37","019cf80d-4266-7117-8a51-54e13c84aca4","","null","
                <div class=""stimulus-container"">
                    <img src=""images/schematic_sequence/supermarket_scheme/supermarket_scheme_ten.png"" class=""exp-image"">
                    <div class=""question-area""></div> 
                </div>","null","","","","","","","","",""
"","","","","","html-button-response","162","466574","0.0-162.0","89EA09DE48514928A396DEAC592AC3E4","019cf854-9765-790b-8657-434bd68efe37","019cf80d-4266-7117-8a51-54e13c84aca4","","623","
                <div class=""stimulus-container"">
                    <img src=""images/schematic_sequence/supermarket_scheme/supermarket_scheme_ten.png"" class=""exp-image"">
                    <div class=""question-area"">
                        <p style=""font-size: 20px; font-weight: bold; margin: 0;"">Is there a person in this image?</p>
                    </div>
                </div>","1","main_experiment_trial","ten","supermarket_scheme","schematic_sequence","","","","",""
"","","","","","html-keyboard-response","163","467576","0.0-163.0","89EA09DE48514928A396DEAC592AC3E4","019cf854-9765-790b-8657-434bd68efe37","019cf80d-4266-7117-8a51-54e13c84aca4","","null","<div style=""background-color: white; width: 100vw; height: 100vh;""></div>","null","","","","","","","","",""
"","","","","","html-keyboard-response","164","472579","0.0-164.0","89EA09DE48514928A396DEAC592AC3E4","019cf854-9765-790b-8657-434bd68efe37","019cf80d-4266-7117-8a51-54e13c84aca4","","null","
                <div class=""stimulus-container"">
                    <img src=""images/semantic_sequence/exploring_nature_semantic/exploring_nature_semantic_1.png"" class=""exp-image"">
                    <div class=""question-area""></div> 
                </div>","null","","","","","","","","",""
"","","","","","html-button-response","165","473369","0.0-165.0","89EA09DE48514928A396DEAC592AC3E4","019cf854-9765-790b-8657-434bd68efe37","019cf80d-4266-7117-8a51-54e13c84aca4","","790","
                <div class=""stimulus-container"">
                    <img src=""images/semantic_sequence/exploring_nature_semantic/exploring_nature_semantic_1.png"" class=""exp-image"">
                    <div class=""question-area"">
                        <p style=""font-size: 20px; font-weight: bold; margin: 0;"">Is there a person in this image?</p>
                    </div>
                </div>","0","main_experiment_trial","1","exploring_nature_semantic","semantic_sequence","","","","",""
"","","","","","html-keyboard-response","166","478372","0.0-166.0","89EA09DE48514928A396DEAC592AC3E4","019cf854-9765-790b-8657-434bd68efe37","019cf80d-4266-7117-8a51-54e13c84aca4","","null","
                <div class=""stimulus-container"">
                    <img src=""images/semantic_sequence/exploring_nature_semantic/exploring_nature_semantic_2.png"" class=""exp-image"">
                    <div class=""question-area""></div> 
                </div>","null","","","","","","","","",""
"","","","","","html-button-response","167","479054","0.0-167.0","89EA09DE48514928A396DEAC592AC3E4","019cf854-9765-790b-8657-434bd68efe37","019cf80d-4266-7117-8a51-54e13c84aca4","","682","
                <div class=""stimulus-container"">
                    <img src=""images/semantic_sequence/exploring_nature_semantic/exploring_nature_semantic_2.png"" class=""exp-image"">
                    <div class=""question-area"">
                        <p style=""font-size: 20px; font-weight: bold; margin: 0;"">Is there a person in this image?</p>
                    </div>
                </div>","0","main_experiment_trial","2","exploring_nature_semantic","semantic_sequence","","","","",""
"","","","","","html-keyboard-response","168","484056","0.0-168.0","89EA09DE48514928A396DEAC592AC3E4","019cf854-9765-790b-8657-434bd68efe37","019cf80d-4266-7117-8a51-54e13c84aca4","","null","
                <div class=""stimulus-container"">
                    <img src=""images/semantic_sequence/exploring_nature_semantic/exploring_nature_semantic_3.png"" class=""exp-image"">
                    <div class=""question-area""></div> 
                </div>","null","","","","","","","","",""
"","","","","","html-button-response","169","484634","0.0-169.0","89EA09DE48514928A396DEAC592AC3E4","019cf854-9765-790b-8657-434bd68efe37","019cf80d-4266-7117-8a51-54e13c84aca4","","577","
                <div class=""stimulus-container"">
                    <img src=""images/semantic_sequence/exploring_nature_semantic/exploring_nature_semantic_3.png"" class=""exp-image"">
                    <div class=""question-area"">
                        <p style=""font-size: 20px; font-weight: bold; margin: 0;"">Is there a person in this image?</p>
                    </div>
                </div>","0","main_experiment_trial","3","exploring_nature_semantic","semantic_sequence","","","","",""
"","","","","","html-keyboard-response","170","489636","0.0-170.0","89EA09DE48514928A396DEAC592AC3E4","019cf854-9765-790b-8657-434bd68efe37","019cf80d-4266-7117-8a51-54e13c84aca4","","null","
                <div class=""stimulus-container"">
                    <img src=""images/semantic_sequence/exploring_nature_semantic/exploring_nature_semantic_4.png"" class=""exp-image"">
                    <div class=""question-area""></div> 
                </div>","null","","","","","","","","",""
"","","","","","html-button-response","171","490259","0.0-171.0","89EA09DE48514928A396DEAC592AC3E4","019cf854-9765-790b-8657-434bd68efe37","019cf80d-4266-7117-8a51-54e13c84aca4","","622","
                <div class=""stimulus-container"">
                    <img src=""images/semantic_sequence/exploring_nature_semantic/exploring_nature_semantic_4.png"" class=""exp-image"">
                    <div class=""question-area"">
                        <p style=""font-size: 20px; font-weight: bold; margin: 0;"">Is there a person in this image?</p>
                    </div>
                </div>","0","main_experiment_trial","4","exploring_nature_semantic","semantic_sequence","","","","",""
"","","","","","html-keyboard-response","172","495261","0.0-172.0","89EA09DE48514928A396DEAC592AC3E4","019cf854-9765-790b-8657-434bd68efe37","019cf80d-4266-7117-8a51-54e13c84aca4","","null","
                <div class=""stimulus-container"">
                    <img src=""images/semantic_sequence/exploring_nature_semantic/exploring_nature_semantic_5.png"" class=""exp-image"">
                    <div class=""question-area""></div> 
                </div>","null","","","","","","","","",""
"","","","","","html-button-response","173","496468","0.0-173.0","89EA09DE48514928A396DEAC592AC3E4","019cf854-9765-790b-8657-434bd68efe37","019cf80d-4266-7117-8a51-54e13c84aca4","","1206","
                <div class=""stimulus-container"">
                    <img src=""images/semantic_sequence/exploring_nature_semantic/exploring_nature_semantic_5.png"" class=""exp-image"">
                    <div class=""question-area"">
                        <p style=""font-size: 20px; font-weight: bold; margin: 0;"">Is there a person in this image?</p>
                    </div>
                </div>","0","main_experiment_trial","5","exploring_nature_semantic","semantic_sequence","","","","",""
"","","","","","html-keyboard-response","174","501470","0.0-174.0","89EA09DE48514928A396DEAC592AC3E4","019cf854-9765-790b-8657-434bd68efe37","019cf80d-4266-7117-8a51-54e13c84aca4","","null","
                <div class=""stimulus-container"">
                    <img src=""images/semantic_sequence/exploring_nature_semantic/exploring_nature_semantic_6.png"" class=""exp-image"">
                    <div class=""question-area""></div> 
                </div>","null","","","","","","","","",""
"","","","","","html-button-response","175","502078","0.0-175.0","89EA09DE48514928A396DEAC592AC3E4","019cf854-9765-790b-8657-434bd68efe37","019cf80d-4266-7117-8a51-54e13c84aca4","","607","
                <div class=""stimulus-container"">
                    <img src=""images/semantic_sequence/exploring_nature_semantic/exploring_nature_semantic_6.png"" class=""exp-image"">
                    <div class=""question-area"">
                        <p style=""font-size: 20px; font-weight: bold; margin: 0;"">Is there a person in this image?</p>
                    </div>
                </div>","0","main_experiment_trial","6","exploring_nature_semantic","semantic_sequence","","","","",""
"","","","","","html-keyboard-response","176","507080","0.0-176.0","89EA09DE48514928A396DEAC592AC3E4","019cf854-9765-790b-8657-434bd68efe37","019cf80d-4266-7117-8a51-54e13c84aca4","","null","
                <div class=""stimulus-container"">
                    <img src=""images/semantic_sequence/exploring_nature_semantic/exploring_nature_semantic_7.png"" class=""exp-image"">
                    <div class=""question-area""></div> 
                </div>","null","","","","","","","","",""
"","","","","","html-button-response","177","507598","0.0-177.0","89EA09DE48514928A396DEAC592AC3E4","019cf854-9765-790b-8657-434bd68efe37","019cf80d-4266-7117-8a51-54e13c84aca4","","516","
                <div class=""stimulus-container"">
                    <img src=""images/semantic_sequence/exploring_nature_semantic/exploring_nature_semantic_7.png"" class=""exp-image"">
                    <div class=""question-area"">
                        <p style=""font-size: 20px; font-weight: bold; margin: 0;"">Is there a person in this image?</p>
                    </div>
                </div>","0","main_experiment_trial","7","exploring_nature_semantic","semantic_sequence","","","","",""
"","","","","","html-keyboard-response","178","512600","0.0-178.0","89EA09DE48514928A396DEAC592AC3E4","019cf854-9765-790b-8657-434bd68efe37","019cf80d-4266-7117-8a51-54e13c84aca4","","null","
                <div class=""stimulus-container"">
                    <img src=""images/semantic_sequence/exploring_nature_semantic/exploring_nature_semantic_8.png"" class=""exp-image"">
                    <div class=""question-area""></div> 
                </div>","null","","","","","","","","",""
"","","","","","html-button-response","179","513134","0.0-179.0","89EA09DE48514928A396DEAC592AC3E4","019cf854-9765-790b-8657-434bd68efe37","019cf80d-4266-7117-8a51-54e13c84aca4","","533","
                <div class=""stimulus-container"">
                    <img src=""images/semantic_sequence/exploring_nature_semantic/exploring_nature_semantic_8.png"" class=""exp-image"">
                    <div class=""question-area"">
                        <p style=""font-size: 20px; font-weight: bold; margin: 0;"">Is there a person in this image?</p>
                    </div>
                </div>","0","main_experiment_trial","8","exploring_nature_semantic","semantic_sequence","","","","",""
"","","","","","html-keyboard-response","180","518137","0.0-180.0","89EA09DE48514928A396DEAC592AC3E4","019cf854-9765-790b-8657-434bd68efe37","019cf80d-4266-7117-8a51-54e13c84aca4","","null","
                <div class=""stimulus-container"">
                    <img src=""images/semantic_sequence/exploring_nature_semantic/exploring_nature_semantic_9.png"" class=""exp-image"">
                    <div class=""question-area""></div> 
                </div>","null","","","","","","","","",""
