"success","timeout","failed_images","failed_audio","failed_video","trial_type","trial_index","time_elapsed","internal_node_id","subject_id","study_id","session_id","view_history","rt","stimulus","response","task","image_index","folder","sequence_type","presentation_order","valuable_image_index","reward_type","distance_from_x","target_X","chosen_image_index","is_x_plus_dist","correct_choice"
"true","false","[]","[]","[]","preload","0","7942","0.0-0.0","F03BF6E836C74FBE9F41B86BFCE4FDA7","019d6ae9-724a-7cf7-96da-4d2ac0a5dfbc","019d6ae6-5d89-74c6-b581-3918d1816346","","","","","","","","","","","","","","","",""
"","","","","","instructions","1","26390","0.0-1.0","F03BF6E836C74FBE9F41B86BFCE4FDA7","019d6ae9-724a-7cf7-96da-4d2ac0a5dfbc","019d6ae6-5d89-74c6-b581-3918d1816346","[{""page_index"":0,""viewing_time"":18447}]","18447","","","","","","","","","","","","","",""
"","","","","","instructions","2","29262","0.0-2.0","F03BF6E836C74FBE9F41B86BFCE4FDA7","019d6ae9-724a-7cf7-96da-4d2ac0a5dfbc","019d6ae6-5d89-74c6-b581-3918d1816346","[{""page_index"":0,""viewing_time"":2872}]","2872","","","","","","","","","","","","","",""
"true","","","","","fullscreen","3","31707","0.0-3.0","F03BF6E836C74FBE9F41B86BFCE4FDA7","019d6ae9-724a-7cf7-96da-4d2ac0a5dfbc","019d6ae6-5d89-74c6-b581-3918d1816346","","1444","","","","","","","","","","","","","",""
"","","","","","instructions","4","37395","0.0-4.0","F03BF6E836C74FBE9F41B86BFCE4FDA7","019d6ae9-724a-7cf7-96da-4d2ac0a5dfbc","019d6ae6-5d89-74c6-b581-3918d1816346","[{""page_index"":0,""viewing_time"":5688}]","5688","","","","","","","","","","","","","",""
"","","","","","instructions","5","46835","0.0-5.0","F03BF6E836C74FBE9F41B86BFCE4FDA7","019d6ae9-724a-7cf7-96da-4d2ac0a5dfbc","019d6ae6-5d89-74c6-b581-3918d1816346","[{""page_index"":0,""viewing_time"":9440}]","9440","","","","","","","","","","","","","",""
"","","","","","html-keyboard-response","6","50846","0.0-6.0","F03BF6E836C74FBE9F41B86BFCE4FDA7","019d6ae9-724a-7cf7-96da-4d2ac0a5dfbc","019d6ae6-5d89-74c6-b581-3918d1816346","","null","
            <div class=""stimulus-container"">
                <img src=""images/instructions/movie_1.png"" class=""exp-image"">
                <div class=""question-area""></div> 
            </div>","null","","","","","","","","","","","",""
"","","","","","html-button-response","7","53345","0.0-7.0","F03BF6E836C74FBE9F41B86BFCE4FDA7","019d6ae9-724a-7cf7-96da-4d2ac0a5dfbc","019d6ae6-5d89-74c6-b581-3918d1816346","","2499","
            <div class=""stimulus-container"">
                <img src=""images/instructions/movie_1.png"" class=""exp-image"">
                <div class=""question-area"">
                    <p style=""font-size: 20px; font-weight: bold; margin: 0;"">Was there a person in this image?</p>
                </div>
            </div>","0","example_question","1","","","","","","","","","",""
"","","","","","html-keyboard-response","8","57346","0.0-8.0","F03BF6E836C74FBE9F41B86BFCE4FDA7","019d6ae9-724a-7cf7-96da-4d2ac0a5dfbc","019d6ae6-5d89-74c6-b581-3918d1816346","","null","
            <div class=""stimulus-container"">
                <img src=""images/instructions/movie_2.png"" class=""exp-image"">
                <div class=""question-area""></div> 
            </div>","null","","","","","","","","","","","",""
"","","","","","html-button-response","9","58386","0.0-9.0","F03BF6E836C74FBE9F41B86BFCE4FDA7","019d6ae9-724a-7cf7-96da-4d2ac0a5dfbc","019d6ae6-5d89-74c6-b581-3918d1816346","","1040","
            <div class=""stimulus-container"">
                <img src=""images/instructions/movie_2.png"" class=""exp-image"">
                <div class=""question-area"">
                    <p style=""font-size: 20px; font-weight: bold; margin: 0;"">Was there a person in this image?</p>
                </div>
            </div>","0","example_question","2","","","","","","","","","",""
"","","","","","html-keyboard-response","10","62389","0.0-10.0","F03BF6E836C74FBE9F41B86BFCE4FDA7","019d6ae9-724a-7cf7-96da-4d2ac0a5dfbc","019d6ae6-5d89-74c6-b581-3918d1816346","","null","
            <div class=""stimulus-container"">
                <img src=""images/instructions/movie_3.png"" class=""exp-image"">
                <div class=""question-area""></div> 
            </div>","null","","","","","","","","","","","",""
"","","","","","html-button-response","11","63490","0.0-11.0","F03BF6E836C74FBE9F41B86BFCE4FDA7","019d6ae9-724a-7cf7-96da-4d2ac0a5dfbc","019d6ae6-5d89-74c6-b581-3918d1816346","","1101","
            <div class=""stimulus-container"">
                <img src=""images/instructions/movie_3.png"" class=""exp-image"">
                <div class=""question-area"">
                    <p style=""font-size: 20px; font-weight: bold; margin: 0;"">Was there a person in this image?</p>
                </div>
            </div>","0","example_question","3","","","","","","","","","",""
"","","","","","html-keyboard-response","12","67499","0.0-12.0","F03BF6E836C74FBE9F41B86BFCE4FDA7","019d6ae9-724a-7cf7-96da-4d2ac0a5dfbc","019d6ae6-5d89-74c6-b581-3918d1816346","","null","
            <div class=""stimulus-container"">
                <img src=""images/instructions/movie_4.png"" class=""exp-image"">
                <div class=""question-area""></div> 
            </div>","null","","","","","","","","","","","",""
"","","","","","html-button-response","13","68957","0.0-13.0","F03BF6E836C74FBE9F41B86BFCE4FDA7","019d6ae9-724a-7cf7-96da-4d2ac0a5dfbc","019d6ae6-5d89-74c6-b581-3918d1816346","","1458","
            <div class=""stimulus-container"">
                <img src=""images/instructions/movie_4.png"" class=""exp-image"">
                <div class=""question-area"">
                    <p style=""font-size: 20px; font-weight: bold; margin: 0;"">Was there a person in this image?</p>
                </div>
            </div>","0","example_question","4","","","","","","","","","",""
"","","","","","instructions","14","70674","0.0-14.0","F03BF6E836C74FBE9F41B86BFCE4FDA7","019d6ae9-724a-7cf7-96da-4d2ac0a5dfbc","019d6ae6-5d89-74c6-b581-3918d1816346","[{""page_index"":0,""viewing_time"":1717}]","1717","","","","","","","","","","","","","",""
"","","","","","instructions","15","74054","0.0-15.0","F03BF6E836C74FBE9F41B86BFCE4FDA7","019d6ae9-724a-7cf7-96da-4d2ac0a5dfbc","019d6ae6-5d89-74c6-b581-3918d1816346","[{""page_index"":0,""viewing_time"":3380}]","3380","","","","","","","","","","","","","",""
"","","","","","html-keyboard-response","16","79066","0.0-16.0","F03BF6E836C74FBE9F41B86BFCE4FDA7","019d6ae9-724a-7cf7-96da-4d2ac0a5dfbc","019d6ae6-5d89-74c6-b581-3918d1816346","","null","<div style=""background-color: white; width: 100vw; height: 100vh;""></div>","null","","","","","","","","","","","",""
"","","","","","html-keyboard-response","17","84067","0.0-17.0","F03BF6E836C74FBE9F41B86BFCE4FDA7","019d6ae9-724a-7cf7-96da-4d2ac0a5dfbc","019d6ae6-5d89-74c6-b581-3918d1816346","","null","
                <div class=""stimulus-container"">
                    <img src=""semantic_sequence_notimeline/household_objects_semantic/household_objects_semantic_1.png"" class=""exp-image"">
                    <div class=""question-area""></div> 
                </div>","null","","","","","","","","","","","",""
"","","","","","html-button-response","18","85673","0.0-18.0","F03BF6E836C74FBE9F41B86BFCE4FDA7","019d6ae9-724a-7cf7-96da-4d2ac0a5dfbc","019d6ae6-5d89-74c6-b581-3918d1816346","","1605","
                <div class=""stimulus-container"">
                    <img src=""semantic_sequence_notimeline/household_objects_semantic/household_objects_semantic_1.png"" class=""exp-image"">
                    <div class=""question-area"">
                        <p style=""font-size: 20px; font-weight: bold; margin: 0;"">Is there a person in this image?</p>
                    </div>
                </div>","1","main_experiment_trial","1","household_objects_semantic","semantic_sequence_notimeline","chronological","","","","","","",""
"","","","","","html-keyboard-response","19","90673","0.0-19.0","F03BF6E836C74FBE9F41B86BFCE4FDA7","019d6ae9-724a-7cf7-96da-4d2ac0a5dfbc","019d6ae6-5d89-74c6-b581-3918d1816346","","null","
                <div class=""stimulus-container"">
                    <img src=""semantic_sequence_notimeline/household_objects_semantic/household_objects_semantic_2.png"" class=""exp-image"">
                    <div class=""question-area""></div> 
                </div>","null","","","","","","","","","","","",""
"","","","","","html-button-response","20","93681","0.0-20.0","F03BF6E836C74FBE9F41B86BFCE4FDA7","019d6ae9-724a-7cf7-96da-4d2ac0a5dfbc","019d6ae6-5d89-74c6-b581-3918d1816346","","null","
                <div class=""stimulus-container"">
                    <img src=""semantic_sequence_notimeline/household_objects_semantic/household_objects_semantic_2.png"" class=""exp-image"">
                    <div class=""question-area"">
                        <p style=""font-size: 20px; font-weight: bold; margin: 0;"">Is there a person in this image?</p>
                    </div>
                </div>","null","main_experiment_trial","2","household_objects_semantic","semantic_sequence_notimeline","chronological","","","","","","",""
"","","","","","html-keyboard-response","21","98687","0.0-21.0","F03BF6E836C74FBE9F41B86BFCE4FDA7","019d6ae9-724a-7cf7-96da-4d2ac0a5dfbc","019d6ae6-5d89-74c6-b581-3918d1816346","","null","
                <div class=""stimulus-container"">
                    <img src=""semantic_sequence_notimeline/household_objects_semantic/household_objects_semantic_3.png"" class=""exp-image"">
                    <div class=""question-area""></div> 
                </div>","null","","","","","","","","","","","",""
"","","","","","html-button-response","22","100415","0.0-22.0","F03BF6E836C74FBE9F41B86BFCE4FDA7","019d6ae9-724a-7cf7-96da-4d2ac0a5dfbc","019d6ae6-5d89-74c6-b581-3918d1816346","","1728","
                <div class=""stimulus-container"">
                    <img src=""semantic_sequence_notimeline/household_objects_semantic/household_objects_semantic_3.png"" class=""exp-image"">
                    <div class=""question-area"">
                        <p style=""font-size: 20px; font-weight: bold; margin: 0;"">Is there a person in this image?</p>
                    </div>
                </div>","1","main_experiment_trial","3","household_objects_semantic","semantic_sequence_notimeline","chronological","","","","","","",""
"","","","","","html-keyboard-response","23","105421","0.0-23.0","F03BF6E836C74FBE9F41B86BFCE4FDA7","019d6ae9-724a-7cf7-96da-4d2ac0a5dfbc","019d6ae6-5d89-74c6-b581-3918d1816346","","null","
                <div class=""stimulus-container"">
                    <img src=""semantic_sequence_notimeline/household_objects_semantic/household_objects_semantic_4.png"" class=""exp-image"">
                    <div class=""question-area""></div> 
                </div>","null","","","","","","","","","","","",""
"","","","","","html-button-response","24","108425","0.0-24.0","F03BF6E836C74FBE9F41B86BFCE4FDA7","019d6ae9-724a-7cf7-96da-4d2ac0a5dfbc","019d6ae6-5d89-74c6-b581-3918d1816346","","null","
                <div class=""stimulus-container"">
                    <img src=""semantic_sequence_notimeline/household_objects_semantic/household_objects_semantic_4.png"" class=""exp-image"">
                    <div class=""question-area"">
                        <p style=""font-size: 20px; font-weight: bold; margin: 0;"">Is there a person in this image?</p>
                    </div>
                </div>","null","main_experiment_trial","4","household_objects_semantic","semantic_sequence_notimeline","chronological","","","","","","",""
"","","","","","html-keyboard-response","25","113428","0.0-25.0","F03BF6E836C74FBE9F41B86BFCE4FDA7","019d6ae9-724a-7cf7-96da-4d2ac0a5dfbc","019d6ae6-5d89-74c6-b581-3918d1816346","","null","
                <div class=""stimulus-container"">
                    <img src=""semantic_sequence_notimeline/household_objects_semantic/household_objects_semantic_5.png"" class=""exp-image"">
                    <div class=""question-area""></div> 
                </div>","null","","","","","","","","","","","",""
"","","","","","html-button-response","26","114452","0.0-26.0","F03BF6E836C74FBE9F41B86BFCE4FDA7","019d6ae9-724a-7cf7-96da-4d2ac0a5dfbc","019d6ae6-5d89-74c6-b581-3918d1816346","","1024","
                <div class=""stimulus-container"">
                    <img src=""semantic_sequence_notimeline/household_objects_semantic/household_objects_semantic_5.png"" class=""exp-image"">
                    <div class=""question-area"">
                        <p style=""font-size: 20px; font-weight: bold; margin: 0;"">Is there a person in this image?</p>
                    </div>
                </div>","1","main_experiment_trial","5","household_objects_semantic","semantic_sequence_notimeline","chronological","","","","","","",""
"","","","","","html-keyboard-response","27","119466","0.0-27.0","F03BF6E836C74FBE9F41B86BFCE4FDA7","019d6ae9-724a-7cf7-96da-4d2ac0a5dfbc","019d6ae6-5d89-74c6-b581-3918d1816346","","null","
                <div class=""stimulus-container"">
                    <img src=""semantic_sequence_notimeline/household_objects_semantic/household_objects_semantic_6.png"" class=""exp-image"">
                    <div class=""question-area""></div> 
                </div>","null","","","","","","","","","","","",""
"","","","","","html-button-response","28","122476","0.0-28.0","F03BF6E836C74FBE9F41B86BFCE4FDA7","019d6ae9-724a-7cf7-96da-4d2ac0a5dfbc","019d6ae6-5d89-74c6-b581-3918d1816346","","null","
                <div class=""stimulus-container"">
                    <img src=""semantic_sequence_notimeline/household_objects_semantic/household_objects_semantic_6.png"" class=""exp-image"">
                    <div class=""question-area"">
                        <p style=""font-size: 20px; font-weight: bold; margin: 0;"">Is there a person in this image?</p>
                    </div>
                </div>","null","main_experiment_trial","6","household_objects_semantic","semantic_sequence_notimeline","chronological","","","","","","",""
"","","","","","html-keyboard-response","29","127482","0.0-29.0","F03BF6E836C74FBE9F41B86BFCE4FDA7","019d6ae9-724a-7cf7-96da-4d2ac0a5dfbc","019d6ae6-5d89-74c6-b581-3918d1816346","","null","
                <div class=""stimulus-container"">
                    <img src=""semantic_sequence_notimeline/household_objects_semantic/household_objects_semantic_7.png"" class=""exp-image"">
                    <div class=""question-area""></div> 
                </div>","null","","","","","","","","","","","",""
"","","","","","html-button-response","30","128720","0.0-30.0","F03BF6E836C74FBE9F41B86BFCE4FDA7","019d6ae9-724a-7cf7-96da-4d2ac0a5dfbc","019d6ae6-5d89-74c6-b581-3918d1816346","","1238","
                <div class=""stimulus-container"">
                    <img src=""semantic_sequence_notimeline/household_objects_semantic/household_objects_semantic_7.png"" class=""exp-image"">
                    <div class=""question-area"">
                        <p style=""font-size: 20px; font-weight: bold; margin: 0;"">Is there a person in this image?</p>
                    </div>
                </div>","1","main_experiment_trial","7","household_objects_semantic","semantic_sequence_notimeline","chronological","","","","","","",""
"","","","","","html-keyboard-response","31","133727","0.0-31.0","F03BF6E836C74FBE9F41B86BFCE4FDA7","019d6ae9-724a-7cf7-96da-4d2ac0a5dfbc","019d6ae6-5d89-74c6-b581-3918d1816346","","null","
                <div class=""stimulus-container"">
                    <img src=""semantic_sequence_notimeline/household_objects_semantic/household_objects_semantic_8.png"" class=""exp-image"">
                    <div class=""question-area""></div> 
                </div>","null","","","","","","","","","","","",""
"","","","","","html-button-response","32","136733","0.0-32.0","F03BF6E836C74FBE9F41B86BFCE4FDA7","019d6ae9-724a-7cf7-96da-4d2ac0a5dfbc","019d6ae6-5d89-74c6-b581-3918d1816346","","null","
                <div class=""stimulus-container"">
                    <img src=""semantic_sequence_notimeline/household_objects_semantic/household_objects_semantic_8.png"" class=""exp-image"">
                    <div class=""question-area"">
                        <p style=""font-size: 20px; font-weight: bold; margin: 0;"">Is there a person in this image?</p>
                    </div>
                </div>","null","main_experiment_trial","8","household_objects_semantic","semantic_sequence_notimeline","chronological","","","","","","",""
"","","","","","html-keyboard-response","33","141733","0.0-33.0","F03BF6E836C74FBE9F41B86BFCE4FDA7","019d6ae9-724a-7cf7-96da-4d2ac0a5dfbc","019d6ae6-5d89-74c6-b581-3918d1816346","","null","
                <div class=""stimulus-container"">
                    <img src=""semantic_sequence_notimeline/household_objects_semantic/household_objects_semantic_9.png"" class=""exp-image"">
                    <div class=""question-area""></div> 
                </div>","null","","","","","","","","","","","",""
"","","","","","html-button-response","34","144266","0.0-34.0","F03BF6E836C74FBE9F41B86BFCE4FDA7","019d6ae9-724a-7cf7-96da-4d2ac0a5dfbc","019d6ae6-5d89-74c6-b581-3918d1816346","","2532","
                <div class=""stimulus-container"">
                    <img src=""semantic_sequence_notimeline/household_objects_semantic/household_objects_semantic_9.png"" class=""exp-image"">
                    <div class=""question-area"">
                        <p style=""font-size: 20px; font-weight: bold; margin: 0;"">Is there a person in this image?</p>
                    </div>
                </div>","1","main_experiment_trial","9","household_objects_semantic","semantic_sequence_notimeline","chronological","","","","","","",""
"","","","","","html-keyboard-response","35","149274","0.0-35.0","F03BF6E836C74FBE9F41B86BFCE4FDA7","019d6ae9-724a-7cf7-96da-4d2ac0a5dfbc","019d6ae6-5d89-74c6-b581-3918d1816346","","null","
                <div class=""stimulus-container"">
                    <img src=""semantic_sequence_notimeline/household_objects_semantic/household_objects_semantic_ten.png"" class=""exp-image"">
                    <div class=""question-area""></div> 
                </div>","null","","","","","","","","","","","",""
"","","","","","html-button-response","36","151697","0.0-36.0","F03BF6E836C74FBE9F41B86BFCE4FDA7","019d6ae9-724a-7cf7-96da-4d2ac0a5dfbc","019d6ae6-5d89-74c6-b581-3918d1816346","","2423","
                <div class=""stimulus-container"">
                    <img src=""semantic_sequence_notimeline/household_objects_semantic/household_objects_semantic_ten.png"" class=""exp-image"">
                    <div class=""question-area"">
                        <p style=""font-size: 20px; font-weight: bold; margin: 0;"">Is there a person in this image?</p>
                    </div>
                </div>","1","main_experiment_trial","ten","household_objects_semantic","semantic_sequence_notimeline","chronological","","","","","","",""
"","","","","","html-keyboard-response","37","156699","0.0-37.0","F03BF6E836C74FBE9F41B86BFCE4FDA7","019d6ae9-724a-7cf7-96da-4d2ac0a5dfbc","019d6ae6-5d89-74c6-b581-3918d1816346","","null","<div style=""background-color: white; width: 100vw; height: 100vh;""></div>","null","","","","","","","","","","","",""
"","","","","","html-keyboard-response","38","161715","0.0-38.0","F03BF6E836C74FBE9F41B86BFCE4FDA7","019d6ae9-724a-7cf7-96da-4d2ac0a5dfbc","019d6ae6-5d89-74c6-b581-3918d1816346","","null","
                <div class=""stimulus-container"">
                    <img src=""semantic_sequence_notimeline/fruits_semantic/fruits_semantic_1.png"" class=""exp-image"">
                    <div class=""question-area""></div> 
                </div>","null","","","","","","","","","","","",""
"","","","","","html-button-response","39","164717","0.0-39.0","F03BF6E836C74FBE9F41B86BFCE4FDA7","019d6ae9-724a-7cf7-96da-4d2ac0a5dfbc","019d6ae6-5d89-74c6-b581-3918d1816346","","null","
                <div class=""stimulus-container"">
                    <img src=""semantic_sequence_notimeline/fruits_semantic/fruits_semantic_1.png"" class=""exp-image"">
                    <div class=""question-area"">
                        <p style=""font-size: 20px; font-weight: bold; margin: 0;"">Is there a person in this image?</p>
                    </div>
                </div>","null","main_experiment_trial","1","fruits_semantic","semantic_sequence_notimeline","chronological","","","","","","",""
"","","","","","html-keyboard-response","40","169718","0.0-40.0","F03BF6E836C74FBE9F41B86BFCE4FDA7","019d6ae9-724a-7cf7-96da-4d2ac0a5dfbc","019d6ae6-5d89-74c6-b581-3918d1816346","","null","
                <div class=""stimulus-container"">
                    <img src=""semantic_sequence_notimeline/fruits_semantic/fruits_semantic_2.png"" class=""exp-image"">
                    <div class=""question-area""></div> 
                </div>","null","","","","","","","","","","","",""
"","","","","","html-button-response","41","172723","0.0-41.0","F03BF6E836C74FBE9F41B86BFCE4FDA7","019d6ae9-724a-7cf7-96da-4d2ac0a5dfbc","019d6ae6-5d89-74c6-b581-3918d1816346","","null","
                <div class=""stimulus-container"">
                    <img src=""semantic_sequence_notimeline/fruits_semantic/fruits_semantic_2.png"" class=""exp-image"">
                    <div class=""question-area"">
                        <p style=""font-size: 20px; font-weight: bold; margin: 0;"">Is there a person in this image?</p>
                    </div>
                </div>","null","main_experiment_trial","2","fruits_semantic","semantic_sequence_notimeline","chronological","","","","","","",""
"","","","","","html-keyboard-response","42","177731","0.0-42.0","F03BF6E836C74FBE9F41B86BFCE4FDA7","019d6ae9-724a-7cf7-96da-4d2ac0a5dfbc","019d6ae6-5d89-74c6-b581-3918d1816346","","null","
                <div class=""stimulus-container"">
                    <img src=""semantic_sequence_notimeline/fruits_semantic/fruits_semantic_3.png"" class=""exp-image"">
                    <div class=""question-area""></div> 
                </div>","null","","","","","","","","","","","",""
"","","","","","html-button-response","43","178555","0.0-43.0","F03BF6E836C74FBE9F41B86BFCE4FDA7","019d6ae9-724a-7cf7-96da-4d2ac0a5dfbc","019d6ae6-5d89-74c6-b581-3918d1816346","","824","
                <div class=""stimulus-container"">
                    <img src=""semantic_sequence_notimeline/fruits_semantic/fruits_semantic_3.png"" class=""exp-image"">
                    <div class=""question-area"">
                        <p style=""font-size: 20px; font-weight: bold; margin: 0;"">Is there a person in this image?</p>
                    </div>
                </div>","1","main_experiment_trial","3","fruits_semantic","semantic_sequence_notimeline","chronological","","","","","","",""
"","","","","","html-keyboard-response","44","183571","0.0-44.0","F03BF6E836C74FBE9F41B86BFCE4FDA7","019d6ae9-724a-7cf7-96da-4d2ac0a5dfbc","019d6ae6-5d89-74c6-b581-3918d1816346","","null","
                <div class=""stimulus-container"">
                    <img src=""semantic_sequence_notimeline/fruits_semantic/fruits_semantic_4.png"" class=""exp-image"">
                    <div class=""question-area""></div> 
                </div>","null","","","","","","","","","","","",""
"","","","","","html-button-response","45","185287","0.0-45.0","F03BF6E836C74FBE9F41B86BFCE4FDA7","019d6ae9-724a-7cf7-96da-4d2ac0a5dfbc","019d6ae6-5d89-74c6-b581-3918d1816346","","1715","
                <div class=""stimulus-container"">
                    <img src=""semantic_sequence_notimeline/fruits_semantic/fruits_semantic_4.png"" class=""exp-image"">
                    <div class=""question-area"">
                        <p style=""font-size: 20px; font-weight: bold; margin: 0;"">Is there a person in this image?</p>
                    </div>
                </div>","1","main_experiment_trial","4","fruits_semantic","semantic_sequence_notimeline","chronological","","","","","","",""
"","","","","","html-keyboard-response","46","190287","0.0-46.0","F03BF6E836C74FBE9F41B86BFCE4FDA7","019d6ae9-724a-7cf7-96da-4d2ac0a5dfbc","019d6ae6-5d89-74c6-b581-3918d1816346","","null","
                <div class=""stimulus-container"">
                    <img src=""semantic_sequence_notimeline/fruits_semantic/fruits_semantic_5.png"" class=""exp-image"">
                    <div class=""question-area""></div> 
                </div>","null","","","","","","","","","","","",""
"","","","","","html-button-response","47","191273","0.0-47.0","F03BF6E836C74FBE9F41B86BFCE4FDA7","019d6ae9-724a-7cf7-96da-4d2ac0a5dfbc","019d6ae6-5d89-74c6-b581-3918d1816346","","985","
                <div class=""stimulus-container"">
                    <img src=""semantic_sequence_notimeline/fruits_semantic/fruits_semantic_5.png"" class=""exp-image"">
                    <div class=""question-area"">
                        <p style=""font-size: 20px; font-weight: bold; margin: 0;"">Is there a person in this image?</p>
                    </div>
                </div>","1","main_experiment_trial","5","fruits_semantic","semantic_sequence_notimeline","chronological","","","","","","",""
"","","","","","html-keyboard-response","48","196277","0.0-48.0","F03BF6E836C74FBE9F41B86BFCE4FDA7","019d6ae9-724a-7cf7-96da-4d2ac0a5dfbc","019d6ae6-5d89-74c6-b581-3918d1816346","","null","
                <div class=""stimulus-container"">
                    <img src=""semantic_sequence_notimeline/fruits_semantic/fruits_semantic_6.png"" class=""exp-image"">
                    <div class=""question-area""></div> 
                </div>","null","","","","","","","","","","","",""
"","","","","","html-button-response","49","197731","0.0-49.0","F03BF6E836C74FBE9F41B86BFCE4FDA7","019d6ae9-724a-7cf7-96da-4d2ac0a5dfbc","019d6ae6-5d89-74c6-b581-3918d1816346","","1454","
                <div class=""stimulus-container"">
                    <img src=""semantic_sequence_notimeline/fruits_semantic/fruits_semantic_6.png"" class=""exp-image"">
                    <div class=""question-area"">
                        <p style=""font-size: 20px; font-weight: bold; margin: 0;"">Is there a person in this image?</p>
                    </div>
                </div>","1","main_experiment_trial","6","fruits_semantic","semantic_sequence_notimeline","chronological","","","","","","",""
"","","","","","html-keyboard-response","50","202732","0.0-50.0","F03BF6E836C74FBE9F41B86BFCE4FDA7","019d6ae9-724a-7cf7-96da-4d2ac0a5dfbc","019d6ae6-5d89-74c6-b581-3918d1816346","","null","
                <div class=""stimulus-container"">
                    <img src=""semantic_sequence_notimeline/fruits_semantic/fruits_semantic_7.png"" class=""exp-image"">
                    <div class=""question-area""></div> 
                </div>","null","","","","","","","","","","","",""
"","","","","","html-button-response","51","204958","0.0-51.0","F03BF6E836C74FBE9F41B86BFCE4FDA7","019d6ae9-724a-7cf7-96da-4d2ac0a5dfbc","019d6ae6-5d89-74c6-b581-3918d1816346","","2226","
                <div class=""stimulus-container"">
                    <img src=""semantic_sequence_notimeline/fruits_semantic/fruits_semantic_7.png"" class=""exp-image"">
                    <div class=""question-area"">
                        <p style=""font-size: 20px; font-weight: bold; margin: 0;"">Is there a person in this image?</p>
                    </div>
                </div>","1","main_experiment_trial","7","fruits_semantic","semantic_sequence_notimeline","chronological","","","","","","",""
"","","","","","html-keyboard-response","52","209959","0.0-52.0","F03BF6E836C74FBE9F41B86BFCE4FDA7","019d6ae9-724a-7cf7-96da-4d2ac0a5dfbc","019d6ae6-5d89-74c6-b581-3918d1816346","","null","
                <div class=""stimulus-container"">
                    <img src=""semantic_sequence_notimeline/fruits_semantic/fruits_semantic_8.png"" class=""exp-image"">
                    <div class=""question-area""></div> 
                </div>","null","","","","","","","","","","","",""
"","","","","","html-button-response","53","210957","0.0-53.0","F03BF6E836C74FBE9F41B86BFCE4FDA7","019d6ae9-724a-7cf7-96da-4d2ac0a5dfbc","019d6ae6-5d89-74c6-b581-3918d1816346","","997","
                <div class=""stimulus-container"">
                    <img src=""semantic_sequence_notimeline/fruits_semantic/fruits_semantic_8.png"" class=""exp-image"">
                    <div class=""question-area"">
                        <p style=""font-size: 20px; font-weight: bold; margin: 0;"">Is there a person in this image?</p>
                    </div>
                </div>","1","main_experiment_trial","8","fruits_semantic","semantic_sequence_notimeline","chronological","","","","","","",""
"","","","","","html-keyboard-response","54","215961","0.0-54.0","F03BF6E836C74FBE9F41B86BFCE4FDA7","019d6ae9-724a-7cf7-96da-4d2ac0a5dfbc","019d6ae6-5d89-74c6-b581-3918d1816346","","null","
                <div class=""stimulus-container"">
                    <img src=""semantic_sequence_notimeline/fruits_semantic/fruits_semantic_9.png"" class=""exp-image"">
                    <div class=""question-area""></div> 
                </div>","null","","","","","","","","","","","",""
"","","","","","html-button-response","55","216885","0.0-55.0","F03BF6E836C74FBE9F41B86BFCE4FDA7","019d6ae9-724a-7cf7-96da-4d2ac0a5dfbc","019d6ae6-5d89-74c6-b581-3918d1816346","","924","
                <div class=""stimulus-container"">
                    <img src=""semantic_sequence_notimeline/fruits_semantic/fruits_semantic_9.png"" class=""exp-image"">
                    <div class=""question-area"">
                        <p style=""font-size: 20px; font-weight: bold; margin: 0;"">Is there a person in this image?</p>
                    </div>
                </div>","1","main_experiment_trial","9","fruits_semantic","semantic_sequence_notimeline","chronological","","","","","","",""
"","","","","","html-keyboard-response","56","221896","0.0-56.0","F03BF6E836C74FBE9F41B86BFCE4FDA7","019d6ae9-724a-7cf7-96da-4d2ac0a5dfbc","019d6ae6-5d89-74c6-b581-3918d1816346","","null","
                <div class=""stimulus-container"">
                    <img src=""semantic_sequence_notimeline/fruits_semantic/fruits_semantic_ten.png"" class=""exp-image"">
                    <div class=""question-area""></div> 
                </div>","null","","","","","","","","","","","",""
"","","","","","html-button-response","57","223476","0.0-57.0","F03BF6E836C74FBE9F41B86BFCE4FDA7","019d6ae9-724a-7cf7-96da-4d2ac0a5dfbc","019d6ae6-5d89-74c6-b581-3918d1816346","","1580","
                <div class=""stimulus-container"">
                    <img src=""semantic_sequence_notimeline/fruits_semantic/fruits_semantic_ten.png"" class=""exp-image"">
                    <div class=""question-area"">
                        <p style=""font-size: 20px; font-weight: bold; margin: 0;"">Is there a person in this image?</p>
                    </div>
                </div>","1","main_experiment_trial","ten","fruits_semantic","semantic_sequence_notimeline","chronological","","","","","","",""
"","","","","","html-keyboard-response","58","228477","0.0-58.0","F03BF6E836C74FBE9F41B86BFCE4FDA7","019d6ae9-724a-7cf7-96da-4d2ac0a5dfbc","019d6ae6-5d89-74c6-b581-3918d1816346","","null","<div style=""background-color: white; width: 100vw; height: 100vh;""></div>","null","","","","","","","","","","","",""
"","","","","","html-keyboard-response","59","233493","0.0-59.0","F03BF6E836C74FBE9F41B86BFCE4FDA7","019d6ae9-724a-7cf7-96da-4d2ac0a5dfbc","019d6ae6-5d89-74c6-b581-3918d1816346","","null","
                <div class=""stimulus-container"">
                    <img src=""images/causal_sequence/coin_causal/coin_causal_1.png"" class=""exp-image"">
                    <div class=""question-area""></div> 
                </div>","null","","","","","","","","","","","",""
"","","","","","html-button-response","60","235168","0.0-60.0","F03BF6E836C74FBE9F41B86BFCE4FDA7","019d6ae9-724a-7cf7-96da-4d2ac0a5dfbc","019d6ae6-5d89-74c6-b581-3918d1816346","","1675","
                <div class=""stimulus-container"">
                    <img src=""images/causal_sequence/coin_causal/coin_causal_1.png"" class=""exp-image"">
                    <div class=""question-area"">
                        <p style=""font-size: 20px; font-weight: bold; margin: 0;"">Is there a person in this image?</p>
                    </div>
                </div>","0","main_experiment_trial","1","coin_causal","causal_sequence","chronological","","","","","","",""
"","","","","","html-keyboard-response","61","240174","0.0-61.0","F03BF6E836C74FBE9F41B86BFCE4FDA7","019d6ae9-724a-7cf7-96da-4d2ac0a5dfbc","019d6ae6-5d89-74c6-b581-3918d1816346","","null","
                <div class=""stimulus-container"">
                    <img src=""images/causal_sequence/coin_causal/coin_causal_2.png"" class=""exp-image"">
                    <div class=""question-area""></div> 
                </div>","null","","","","","","","","","","","",""
"","","","","","html-button-response","62","243182","0.0-62.0","F03BF6E836C74FBE9F41B86BFCE4FDA7","019d6ae9-724a-7cf7-96da-4d2ac0a5dfbc","019d6ae6-5d89-74c6-b581-3918d1816346","","null","
                <div class=""stimulus-container"">
                    <img src=""images/causal_sequence/coin_causal/coin_causal_2.png"" class=""exp-image"">
                    <div class=""question-area"">
                        <p style=""font-size: 20px; font-weight: bold; margin: 0;"">Is there a person in this image?</p>
                    </div>
                </div>","null","main_experiment_trial","2","coin_causal","causal_sequence","chronological","","","","","","",""
"","","","","","html-keyboard-response","63","248182","0.0-63.0","F03BF6E836C74FBE9F41B86BFCE4FDA7","019d6ae9-724a-7cf7-96da-4d2ac0a5dfbc","019d6ae6-5d89-74c6-b581-3918d1816346","","null","
                <div class=""stimulus-container"">
                    <img src=""images/causal_sequence/coin_causal/coin_causal_3.png"" class=""exp-image"">
                    <div class=""question-area""></div> 
                </div>","null","","","","","","","","","","","",""
"","","","","","html-button-response","64","249646","0.0-64.0","F03BF6E836C74FBE9F41B86BFCE4FDA7","019d6ae9-724a-7cf7-96da-4d2ac0a5dfbc","019d6ae6-5d89-74c6-b581-3918d1816346","","1463","
                <div class=""stimulus-container"">
                    <img src=""images/causal_sequence/coin_causal/coin_causal_3.png"" class=""exp-image"">
                    <div class=""question-area"">
                        <p style=""font-size: 20px; font-weight: bold; margin: 0;"">Is there a person in this image?</p>
                    </div>
                </div>","0","main_experiment_trial","3","coin_causal","causal_sequence","chronological","","","","","","",""
"","","","","","html-keyboard-response","65","254648","0.0-65.0","F03BF6E836C74FBE9F41B86BFCE4FDA7","019d6ae9-724a-7cf7-96da-4d2ac0a5dfbc","019d6ae6-5d89-74c6-b581-3918d1816346","","null","
                <div class=""stimulus-container"">
                    <img src=""images/causal_sequence/coin_causal/coin_causal_4.png"" class=""exp-image"">
                    <div class=""question-area""></div> 
                </div>","null","","","","","","","","","","","",""
"","","","","","html-button-response","66","255356","0.0-66.0","F03BF6E836C74FBE9F41B86BFCE4FDA7","019d6ae9-724a-7cf7-96da-4d2ac0a5dfbc","019d6ae6-5d89-74c6-b581-3918d1816346","","708","
                <div class=""stimulus-container"">
                    <img src=""images/causal_sequence/coin_causal/coin_causal_4.png"" class=""exp-image"">
                    <div class=""question-area"">
                        <p style=""font-size: 20px; font-weight: bold; margin: 0;"">Is there a person in this image?</p>
                    </div>
                </div>","0","main_experiment_trial","4","coin_causal","causal_sequence","chronological","","","","","","",""
"","","","","","html-keyboard-response","67","260361","0.0-67.0","F03BF6E836C74FBE9F41B86BFCE4FDA7","019d6ae9-724a-7cf7-96da-4d2ac0a5dfbc","019d6ae6-5d89-74c6-b581-3918d1816346","","null","
                <div class=""stimulus-container"">
                    <img src=""images/causal_sequence/coin_causal/coin_causal_5.png"" class=""exp-image"">
                    <div class=""question-area""></div> 
                </div>","null","","","","","","","","","","","",""
"","","","","","html-button-response","68","261315","0.0-68.0","F03BF6E836C74FBE9F41B86BFCE4FDA7","019d6ae9-724a-7cf7-96da-4d2ac0a5dfbc","019d6ae6-5d89-74c6-b581-3918d1816346","","954","
                <div class=""stimulus-container"">
                    <img src=""images/causal_sequence/coin_causal/coin_causal_5.png"" class=""exp-image"">
                    <div class=""question-area"">
                        <p style=""font-size: 20px; font-weight: bold; margin: 0;"">Is there a person in this image?</p>
                    </div>
                </div>","0","main_experiment_trial","5","coin_causal","causal_sequence","chronological","","","","","","",""
"","","","","","html-keyboard-response","69","266316","0.0-69.0","F03BF6E836C74FBE9F41B86BFCE4FDA7","019d6ae9-724a-7cf7-96da-4d2ac0a5dfbc","019d6ae6-5d89-74c6-b581-3918d1816346","","null","
                <div class=""stimulus-container"">
                    <img src=""images/causal_sequence/coin_causal/coin_causal_6.png"" class=""exp-image"">
                    <div class=""question-area""></div> 
                </div>","null","","","","","","","","","","","",""
"","","","","","html-button-response","70","267092","0.0-70.0","F03BF6E836C74FBE9F41B86BFCE4FDA7","019d6ae9-724a-7cf7-96da-4d2ac0a5dfbc","019d6ae6-5d89-74c6-b581-3918d1816346","","776","
                <div class=""stimulus-container"">
                    <img src=""images/causal_sequence/coin_causal/coin_causal_6.png"" class=""exp-image"">
                    <div class=""question-area"">
                        <p style=""font-size: 20px; font-weight: bold; margin: 0;"">Is there a person in this image?</p>
                    </div>
                </div>","0","main_experiment_trial","6","coin_causal","causal_sequence","chronological","","","","","","",""
"","","","","","html-keyboard-response","71","272100","0.0-71.0","F03BF6E836C74FBE9F41B86BFCE4FDA7","019d6ae9-724a-7cf7-96da-4d2ac0a5dfbc","019d6ae6-5d89-74c6-b581-3918d1816346","","null","
                <div class=""stimulus-container"">
                    <img src=""images/causal_sequence/coin_causal/coin_causal_7.png"" class=""exp-image"">
                    <div class=""question-area""></div> 
                </div>","null","","","","","","","","","","","",""
"","","","","","html-button-response","72","273172","0.0-72.0","F03BF6E836C74FBE9F41B86BFCE4FDA7","019d6ae9-724a-7cf7-96da-4d2ac0a5dfbc","019d6ae6-5d89-74c6-b581-3918d1816346","","1071","
                <div class=""stimulus-container"">
                    <img src=""images/causal_sequence/coin_causal/coin_causal_7.png"" class=""exp-image"">
                    <div class=""question-area"">
                        <p style=""font-size: 20px; font-weight: bold; margin: 0;"">Is there a person in this image?</p>
                    </div>
                </div>","1","main_experiment_trial","7","coin_causal","causal_sequence","chronological","","","","","","",""
"","","","","","html-keyboard-response","73","278173","0.0-73.0","F03BF6E836C74FBE9F41B86BFCE4FDA7","019d6ae9-724a-7cf7-96da-4d2ac0a5dfbc","019d6ae6-5d89-74c6-b581-3918d1816346","","null","
                <div class=""stimulus-container"">
                    <img src=""images/causal_sequence/coin_causal/coin_causal_8.png"" class=""exp-image"">
                    <div class=""question-area""></div> 
                </div>","null","","","","","","","","","","","",""
"","","","","","html-button-response","74","279464","0.0-74.0","F03BF6E836C74FBE9F41B86BFCE4FDA7","019d6ae9-724a-7cf7-96da-4d2ac0a5dfbc","019d6ae6-5d89-74c6-b581-3918d1816346","","1291","
                <div class=""stimulus-container"">
                    <img src=""images/causal_sequence/coin_causal/coin_causal_8.png"" class=""exp-image"">
                    <div class=""question-area"">
                        <p style=""font-size: 20px; font-weight: bold; margin: 0;"">Is there a person in this image?</p>
                    </div>
                </div>","0","main_experiment_trial","8","coin_causal","causal_sequence","chronological","","","","","","",""
"","","","","","html-keyboard-response","75","284466","0.0-75.0","F03BF6E836C74FBE9F41B86BFCE4FDA7","019d6ae9-724a-7cf7-96da-4d2ac0a5dfbc","019d6ae6-5d89-74c6-b581-3918d1816346","","null","
                <div class=""stimulus-container"">
                    <img src=""images/causal_sequence/coin_causal/coin_causal_9.png"" class=""exp-image"">
                    <div class=""question-area""></div> 
                </div>","null","","","","","","","","","","","",""
"","","","","","html-button-response","76","285628","0.0-76.0","F03BF6E836C74FBE9F41B86BFCE4FDA7","019d6ae9-724a-7cf7-96da-4d2ac0a5dfbc","019d6ae6-5d89-74c6-b581-3918d1816346","","1161","
                <div class=""stimulus-container"">
                    <img src=""images/causal_sequence/coin_causal/coin_causal_9.png"" class=""exp-image"">
                    <div class=""question-area"">
                        <p style=""font-size: 20px; font-weight: bold; margin: 0;"">Is there a person in this image?</p>
                    </div>
                </div>","0","main_experiment_trial","9","coin_causal","causal_sequence","chronological","","","","","","",""
"","","","","","html-keyboard-response","77","290629","0.0-77.0","F03BF6E836C74FBE9F41B86BFCE4FDA7","019d6ae9-724a-7cf7-96da-4d2ac0a5dfbc","019d6ae6-5d89-74c6-b581-3918d1816346","","null","
                <div class=""stimulus-container"">
                    <img src=""images/causal_sequence/coin_causal/coin_causal_ten.png"" class=""exp-image"">
                    <div class=""question-area""></div> 
                </div>","null","","","","","","","","","","","",""
"","","","","","html-button-response","78","292602","0.0-78.0","F03BF6E836C74FBE9F41B86BFCE4FDA7","019d6ae9-724a-7cf7-96da-4d2ac0a5dfbc","019d6ae6-5d89-74c6-b581-3918d1816346","","1972","
                <div class=""stimulus-container"">
                    <img src=""images/causal_sequence/coin_causal/coin_causal_ten.png"" class=""exp-image"">
                    <div class=""question-area"">
                        <p style=""font-size: 20px; font-weight: bold; margin: 0;"">Is there a person in this image?</p>
                    </div>
                </div>","0","main_experiment_trial","ten","coin_causal","causal_sequence","chronological","","","","","","",""
"","","","","","html-keyboard-response","79","297615","0.0-79.0","F03BF6E836C74FBE9F41B86BFCE4FDA7","019d6ae9-724a-7cf7-96da-4d2ac0a5dfbc","019d6ae6-5d89-74c6-b581-3918d1816346","","null","<div style=""background-color: white; width: 100vw; height: 100vh;""></div>","null","","","","","","","","","","","",""
"","","","","","html-keyboard-response","80","302619","0.0-80.0","F03BF6E836C74FBE9F41B86BFCE4FDA7","019d6ae9-724a-7cf7-96da-4d2ac0a5dfbc","019d6ae6-5d89-74c6-b581-3918d1816346","","null","
                <div class=""stimulus-container"">
                    <img src=""semantic_sequence_notimeline/animals_semantic/animals_semantic_1.png"" class=""exp-image"">
                    <div class=""question-area""></div> 
                </div>","null","","","","","","","","","","","",""
"","","","","","html-button-response","81","304315","0.0-81.0","F03BF6E836C74FBE9F41B86BFCE4FDA7","019d6ae9-724a-7cf7-96da-4d2ac0a5dfbc","019d6ae6-5d89-74c6-b581-3918d1816346","","1696","
                <div class=""stimulus-container"">
                    <img src=""semantic_sequence_notimeline/animals_semantic/animals_semantic_1.png"" class=""exp-image"">
                    <div class=""question-area"">
                        <p style=""font-size: 20px; font-weight: bold; margin: 0;"">Is there a person in this image?</p>
                    </div>
                </div>","1","main_experiment_trial","1","animals_semantic","semantic_sequence_notimeline","chronological","","","","","","",""
"","","","","","html-keyboard-response","82","309327","0.0-82.0","F03BF6E836C74FBE9F41B86BFCE4FDA7","019d6ae9-724a-7cf7-96da-4d2ac0a5dfbc","019d6ae6-5d89-74c6-b581-3918d1816346","","null","
                <div class=""stimulus-container"">
                    <img src=""semantic_sequence_notimeline/animals_semantic/animals_semantic_2.png"" class=""exp-image"">
                    <div class=""question-area""></div> 
                </div>","null","","","","","","","","","","","",""
"","","","","","html-button-response","83","310175","0.0-83.0","F03BF6E836C74FBE9F41B86BFCE4FDA7","019d6ae9-724a-7cf7-96da-4d2ac0a5dfbc","019d6ae6-5d89-74c6-b581-3918d1816346","","847","
                <div class=""stimulus-container"">
                    <img src=""semantic_sequence_notimeline/animals_semantic/animals_semantic_2.png"" class=""exp-image"">
                    <div class=""question-area"">
                        <p style=""font-size: 20px; font-weight: bold; margin: 0;"">Is there a person in this image?</p>
                    </div>
                </div>","1","main_experiment_trial","2","animals_semantic","semantic_sequence_notimeline","chronological","","","","","","",""
"","","","","","html-keyboard-response","84","315187","0.0-84.0","F03BF6E836C74FBE9F41B86BFCE4FDA7","019d6ae9-724a-7cf7-96da-4d2ac0a5dfbc","019d6ae6-5d89-74c6-b581-3918d1816346","","null","
                <div class=""stimulus-container"">
                    <img src=""semantic_sequence_notimeline/animals_semantic/animals_semantic_3.png"" class=""exp-image"">
                    <div class=""question-area""></div> 
                </div>","null","","","","","","","","","","","",""
"","","","","","html-button-response","85","316092","0.0-85.0","F03BF6E836C74FBE9F41B86BFCE4FDA7","019d6ae9-724a-7cf7-96da-4d2ac0a5dfbc","019d6ae6-5d89-74c6-b581-3918d1816346","","904","
                <div class=""stimulus-container"">
                    <img src=""semantic_sequence_notimeline/animals_semantic/animals_semantic_3.png"" class=""exp-image"">
                    <div class=""question-area"">
                        <p style=""font-size: 20px; font-weight: bold; margin: 0;"">Is there a person in this image?</p>
                    </div>
                </div>","1","main_experiment_trial","3","animals_semantic","semantic_sequence_notimeline","chronological","","","","","","",""
"","","","","","html-keyboard-response","86","321107","0.0-86.0","F03BF6E836C74FBE9F41B86BFCE4FDA7","019d6ae9-724a-7cf7-96da-4d2ac0a5dfbc","019d6ae6-5d89-74c6-b581-3918d1816346","","null","
                <div class=""stimulus-container"">
                    <img src=""semantic_sequence_notimeline/animals_semantic/animals_semantic_4.png"" class=""exp-image"">
                    <div class=""question-area""></div> 
                </div>","null","","","","","","","","","","","",""
"","","","","","html-button-response","87","321990","0.0-87.0","F03BF6E836C74FBE9F41B86BFCE4FDA7","019d6ae9-724a-7cf7-96da-4d2ac0a5dfbc","019d6ae6-5d89-74c6-b581-3918d1816346","","883","
                <div class=""stimulus-container"">
                    <img src=""semantic_sequence_notimeline/animals_semantic/animals_semantic_4.png"" class=""exp-image"">
                    <div class=""question-area"">
                        <p style=""font-size: 20px; font-weight: bold; margin: 0;"">Is there a person in this image?</p>
                    </div>
                </div>","1","main_experiment_trial","4","animals_semantic","semantic_sequence_notimeline","chronological","","","","","","",""
"","","","","","html-keyboard-response","88","326996","0.0-88.0","F03BF6E836C74FBE9F41B86BFCE4FDA7","019d6ae9-724a-7cf7-96da-4d2ac0a5dfbc","019d6ae6-5d89-74c6-b581-3918d1816346","","null","
                <div class=""stimulus-container"">
                    <img src=""semantic_sequence_notimeline/animals_semantic/animals_semantic_5.png"" class=""exp-image"">
                    <div class=""question-area""></div> 
                </div>","null","","","","","","","","","","","",""
"","","","","","html-button-response","89","328346","0.0-89.0","F03BF6E836C74FBE9F41B86BFCE4FDA7","019d6ae9-724a-7cf7-96da-4d2ac0a5dfbc","019d6ae6-5d89-74c6-b581-3918d1816346","","1350","
                <div class=""stimulus-container"">
                    <img src=""semantic_sequence_notimeline/animals_semantic/animals_semantic_5.png"" class=""exp-image"">
                    <div class=""question-area"">
                        <p style=""font-size: 20px; font-weight: bold; margin: 0;"">Is there a person in this image?</p>
                    </div>
                </div>","1","main_experiment_trial","5","animals_semantic","semantic_sequence_notimeline","chronological","","","","","","",""
"","","","","","html-keyboard-response","90","333355","0.0-90.0","F03BF6E836C74FBE9F41B86BFCE4FDA7","019d6ae9-724a-7cf7-96da-4d2ac0a5dfbc","019d6ae6-5d89-74c6-b581-3918d1816346","","null","
                <div class=""stimulus-container"">
                    <img src=""semantic_sequence_notimeline/animals_semantic/animals_semantic_6.png"" class=""exp-image"">
                    <div class=""question-area""></div> 
                </div>","null","","","","","","","","","","","",""
"","","","","","html-button-response","91","334821","0.0-91.0","F03BF6E836C74FBE9F41B86BFCE4FDA7","019d6ae9-724a-7cf7-96da-4d2ac0a5dfbc","019d6ae6-5d89-74c6-b581-3918d1816346","","1465","
                <div class=""stimulus-container"">
                    <img src=""semantic_sequence_notimeline/animals_semantic/animals_semantic_6.png"" class=""exp-image"">
                    <div class=""question-area"">
                        <p style=""font-size: 20px; font-weight: bold; margin: 0;"">Is there a person in this image?</p>
                    </div>
                </div>","1","main_experiment_trial","6","animals_semantic","semantic_sequence_notimeline","chronological","","","","","","",""
"","","","","","html-keyboard-response","92","339832","0.0-92.0","F03BF6E836C74FBE9F41B86BFCE4FDA7","019d6ae9-724a-7cf7-96da-4d2ac0a5dfbc","019d6ae6-5d89-74c6-b581-3918d1816346","","null","
                <div class=""stimulus-container"">
                    <img src=""semantic_sequence_notimeline/animals_semantic/animals_semantic_7.png"" class=""exp-image"">
                    <div class=""question-area""></div> 
                </div>","null","","","","","","","","","","","",""
"","","","","","html-button-response","93","342770","0.0-93.0","F03BF6E836C74FBE9F41B86BFCE4FDA7","019d6ae9-724a-7cf7-96da-4d2ac0a5dfbc","019d6ae6-5d89-74c6-b581-3918d1816346","","2937","
                <div class=""stimulus-container"">
                    <img src=""semantic_sequence_notimeline/animals_semantic/animals_semantic_7.png"" class=""exp-image"">
                    <div class=""question-area"">
                        <p style=""font-size: 20px; font-weight: bold; margin: 0;"">Is there a person in this image?</p>
                    </div>
                </div>","1","main_experiment_trial","7","animals_semantic","semantic_sequence_notimeline","chronological","","","","","","",""
"","","","","","html-keyboard-response","94","347782","0.0-94.0","F03BF6E836C74FBE9F41B86BFCE4FDA7","019d6ae9-724a-7cf7-96da-4d2ac0a5dfbc","019d6ae6-5d89-74c6-b581-3918d1816346","","null","
                <div class=""stimulus-container"">
                    <img src=""semantic_sequence_notimeline/animals_semantic/animals_semantic_8.png"" class=""exp-image"">
                    <div class=""question-area""></div> 
                </div>","null","","","","","","","","","","","",""
"","","","","","html-button-response","95","349317","0.0-95.0","F03BF6E836C74FBE9F41B86BFCE4FDA7","019d6ae9-724a-7cf7-96da-4d2ac0a5dfbc","019d6ae6-5d89-74c6-b581-3918d1816346","","1535","
                <div class=""stimulus-container"">
                    <img src=""semantic_sequence_notimeline/animals_semantic/animals_semantic_8.png"" class=""exp-image"">
                    <div class=""question-area"">
                        <p style=""font-size: 20px; font-weight: bold; margin: 0;"">Is there a person in this image?</p>
                    </div>
                </div>","1","main_experiment_trial","8","animals_semantic","semantic_sequence_notimeline","chronological","","","","","","",""
"","","","","","html-keyboard-response","96","354323","0.0-96.0","F03BF6E836C74FBE9F41B86BFCE4FDA7","019d6ae9-724a-7cf7-96da-4d2ac0a5dfbc","019d6ae6-5d89-74c6-b581-3918d1816346","","null","
                <div class=""stimulus-container"">
                    <img src=""semantic_sequence_notimeline/animals_semantic/animals_semantic_9.png"" class=""exp-image"">
                    <div class=""question-area""></div> 
                </div>","null","","","","","","","","","","","",""
"","","","","","html-button-response","97","357330","0.0-97.0","F03BF6E836C74FBE9F41B86BFCE4FDA7","019d6ae9-724a-7cf7-96da-4d2ac0a5dfbc","019d6ae6-5d89-74c6-b581-3918d1816346","","null","
                <div class=""stimulus-container"">
                    <img src=""semantic_sequence_notimeline/animals_semantic/animals_semantic_9.png"" class=""exp-image"">
                    <div class=""question-area"">
                        <p style=""font-size: 20px; font-weight: bold; margin: 0;"">Is there a person in this image?</p>
                    </div>
                </div>","null","main_experiment_trial","9","animals_semantic","semantic_sequence_notimeline","chronological","","","","","","",""
"","","","","","html-keyboard-response","98","362336","0.0-98.0","F03BF6E836C74FBE9F41B86BFCE4FDA7","019d6ae9-724a-7cf7-96da-4d2ac0a5dfbc","019d6ae6-5d89-74c6-b581-3918d1816346","","null","
                <div class=""stimulus-container"">
                    <img src=""semantic_sequence_notimeline/animals_semantic/animals_semantic_ten.png"" class=""exp-image"">
                    <div class=""question-area""></div> 
                </div>","null","","","","","","","","","","","",""
"","","","","","html-button-response","99","363196","0.0-99.0","F03BF6E836C74FBE9F41B86BFCE4FDA7","019d6ae9-724a-7cf7-96da-4d2ac0a5dfbc","019d6ae6-5d89-74c6-b581-3918d1816346","","860","
                <div class=""stimulus-container"">
                    <img src=""semantic_sequence_notimeline/animals_semantic/animals_semantic_ten.png"" class=""exp-image"">
                    <div class=""question-area"">
                        <p style=""font-size: 20px; font-weight: bold; margin: 0;"">Is there a person in this image?</p>
                    </div>
                </div>","1","main_experiment_trial","ten","animals_semantic","semantic_sequence_notimeline","chronological","","","","","","",""
"","","","","","html-keyboard-response","100","368199","0.0-100.0","F03BF6E836C74FBE9F41B86BFCE4FDA7","019d6ae9-724a-7cf7-96da-4d2ac0a5dfbc","019d6ae6-5d89-74c6-b581-3918d1816346","","null","<div style=""background-color: white; width: 100vw; height: 100vh;""></div>","null","","","","","","","","","","","",""
"","","","","","html-keyboard-response","101","373205","0.0-101.0","F03BF6E836C74FBE9F41B86BFCE4FDA7","019d6ae9-724a-7cf7-96da-4d2ac0a5dfbc","019d6ae6-5d89-74c6-b581-3918d1816346","","null","
                <div class=""stimulus-container"">
                    <img src=""images/causal_sequence/dog_causal/dog_causal_1.png"" class=""exp-image"">
                    <div class=""question-area""></div> 
                </div>","null","","","","","","","","","","","",""
"","","","","","html-button-response","102","374317","0.0-102.0","F03BF6E836C74FBE9F41B86BFCE4FDA7","019d6ae9-724a-7cf7-96da-4d2ac0a5dfbc","019d6ae6-5d89-74c6-b581-3918d1816346","","1112","
                <div class=""stimulus-container"">
                    <img src=""images/causal_sequence/dog_causal/dog_causal_1.png"" class=""exp-image"">
                    <div class=""question-area"">
                        <p style=""font-size: 20px; font-weight: bold; margin: 0;"">Is there a person in this image?</p>
                    </div>
                </div>","0","main_experiment_trial","1","dog_causal","causal_sequence","chronological","","","","","","",""
"","","","","","html-keyboard-response","103","379321","0.0-103.0","F03BF6E836C74FBE9F41B86BFCE4FDA7","019d6ae9-724a-7cf7-96da-4d2ac0a5dfbc","019d6ae6-5d89-74c6-b581-3918d1816346","","null","
                <div class=""stimulus-container"">
                    <img src=""images/causal_sequence/dog_causal/dog_causal_2.png"" class=""exp-image"">
                    <div class=""question-area""></div> 
                </div>","null","","","","","","","","","","","",""
"","","","","","html-button-response","104","382325","0.0-104.0","F03BF6E836C74FBE9F41B86BFCE4FDA7","019d6ae9-724a-7cf7-96da-4d2ac0a5dfbc","019d6ae6-5d89-74c6-b581-3918d1816346","","null","
                <div class=""stimulus-container"">
                    <img src=""images/causal_sequence/dog_causal/dog_causal_2.png"" class=""exp-image"">
                    <div class=""question-area"">
                        <p style=""font-size: 20px; font-weight: bold; margin: 0;"">Is there a person in this image?</p>
                    </div>
                </div>","null","main_experiment_trial","2","dog_causal","causal_sequence","chronological","","","","","","",""
"","","","","","html-keyboard-response","105","387326","0.0-105.0","F03BF6E836C74FBE9F41B86BFCE4FDA7","019d6ae9-724a-7cf7-96da-4d2ac0a5dfbc","019d6ae6-5d89-74c6-b581-3918d1816346","","null","
                <div class=""stimulus-container"">
                    <img src=""images/causal_sequence/dog_causal/dog_causal_3.png"" class=""exp-image"">
                    <div class=""question-area""></div> 
                </div>","null","","","","","","","","","","","",""
"","","","","","html-button-response","106","388060","0.0-106.0","F03BF6E836C74FBE9F41B86BFCE4FDA7","019d6ae9-724a-7cf7-96da-4d2ac0a5dfbc","019d6ae6-5d89-74c6-b581-3918d1816346","","734","
                <div class=""stimulus-container"">
                    <img src=""images/causal_sequence/dog_causal/dog_causal_3.png"" class=""exp-image"">
                    <div class=""question-area"">
                        <p style=""font-size: 20px; font-weight: bold; margin: 0;"">Is there a person in this image?</p>
                    </div>
                </div>","0","main_experiment_trial","3","dog_causal","causal_sequence","chronological","","","","","","",""
"","","","","","html-keyboard-response","107","393073","0.0-107.0","F03BF6E836C74FBE9F41B86BFCE4FDA7","019d6ae9-724a-7cf7-96da-4d2ac0a5dfbc","019d6ae6-5d89-74c6-b581-3918d1816346","","null","
                <div class=""stimulus-container"">
                    <img src=""images/causal_sequence/dog_causal/dog_causal_4.png"" class=""exp-image"">
                    <div class=""question-area""></div> 
                </div>","null","","","","","","","","","","","",""
"","","","","","html-button-response","108","393526","0.0-108.0","F03BF6E836C74FBE9F41B86BFCE4FDA7","019d6ae9-724a-7cf7-96da-4d2ac0a5dfbc","019d6ae6-5d89-74c6-b581-3918d1816346","","453","
                <div class=""stimulus-container"">
                    <img src=""images/causal_sequence/dog_causal/dog_causal_4.png"" class=""exp-image"">
                    <div class=""question-area"">
                        <p style=""font-size: 20px; font-weight: bold; margin: 0;"">Is there a person in this image?</p>
                    </div>
                </div>","0","main_experiment_trial","4","dog_causal","causal_sequence","chronological","","","","","","",""
"","","","","","html-keyboard-response","109","398541","0.0-109.0","F03BF6E836C74FBE9F41B86BFCE4FDA7","019d6ae9-724a-7cf7-96da-4d2ac0a5dfbc","019d6ae6-5d89-74c6-b581-3918d1816346","","null","
                <div class=""stimulus-container"">
                    <img src=""images/causal_sequence/dog_causal/dog_causal_5.png"" class=""exp-image"">
                    <div class=""question-area""></div> 
                </div>","null","","","","","","","","","","","",""
"","","","","","html-button-response","110","399184","0.0-110.0","F03BF6E836C74FBE9F41B86BFCE4FDA7","019d6ae9-724a-7cf7-96da-4d2ac0a5dfbc","019d6ae6-5d89-74c6-b581-3918d1816346","","643","
                <div class=""stimulus-container"">
                    <img src=""images/causal_sequence/dog_causal/dog_causal_5.png"" class=""exp-image"">
                    <div class=""question-area"">
                        <p style=""font-size: 20px; font-weight: bold; margin: 0;"">Is there a person in this image?</p>
                    </div>
                </div>","0","main_experiment_trial","5","dog_causal","causal_sequence","chronological","","","","","","",""
"","","","","","html-keyboard-response","111","404189","0.0-111.0","F03BF6E836C74FBE9F41B86BFCE4FDA7","019d6ae9-724a-7cf7-96da-4d2ac0a5dfbc","019d6ae6-5d89-74c6-b581-3918d1816346","","null","
                <div class=""stimulus-container"">
                    <img src=""images/causal_sequence/dog_causal/dog_causal_6.png"" class=""exp-image"">
                    <div class=""question-area""></div> 
                </div>","null","","","","","","","","","","","",""
"","","","","","html-button-response","112","404631","0.0-112.0","F03BF6E836C74FBE9F41B86BFCE4FDA7","019d6ae9-724a-7cf7-96da-4d2ac0a5dfbc","019d6ae6-5d89-74c6-b581-3918d1816346","","442","
                <div class=""stimulus-container"">
                    <img src=""images/causal_sequence/dog_causal/dog_causal_6.png"" class=""exp-image"">
                    <div class=""question-area"">
                        <p style=""font-size: 20px; font-weight: bold; margin: 0;"">Is there a person in this image?</p>
                    </div>
                </div>","0","main_experiment_trial","6","dog_causal","causal_sequence","chronological","","","","","","",""
"","","","","","html-keyboard-response","113","409641","0.0-113.0","F03BF6E836C74FBE9F41B86BFCE4FDA7","019d6ae9-724a-7cf7-96da-4d2ac0a5dfbc","019d6ae6-5d89-74c6-b581-3918d1816346","","null","
                <div class=""stimulus-container"">
                    <img src=""images/causal_sequence/dog_causal/dog_causal_7.png"" class=""exp-image"">
                    <div class=""question-area""></div> 
                </div>","null","","","","","","","","","","","",""
"","","","","","html-button-response","114","410299","0.0-114.0","F03BF6E836C74FBE9F41B86BFCE4FDA7","019d6ae9-724a-7cf7-96da-4d2ac0a5dfbc","019d6ae6-5d89-74c6-b581-3918d1816346","","657","
                <div class=""stimulus-container"">
                    <img src=""images/causal_sequence/dog_causal/dog_causal_7.png"" class=""exp-image"">
                    <div class=""question-area"">
                        <p style=""font-size: 20px; font-weight: bold; margin: 0;"">Is there a person in this image?</p>
                    </div>
                </div>","0","main_experiment_trial","7","dog_causal","causal_sequence","chronological","","","","","","",""
"","","","","","html-keyboard-response","115","415303","0.0-115.0","F03BF6E836C74FBE9F41B86BFCE4FDA7","019d6ae9-724a-7cf7-96da-4d2ac0a5dfbc","019d6ae6-5d89-74c6-b581-3918d1816346","","null","
                <div class=""stimulus-container"">
                    <img src=""images/causal_sequence/dog_causal/dog_causal_8.png"" class=""exp-image"">
                    <div class=""question-area""></div> 
                </div>","null","","","","","","","","","","","",""
"","","","","","html-button-response","116","415742","0.0-116.0","F03BF6E836C74FBE9F41B86BFCE4FDA7","019d6ae9-724a-7cf7-96da-4d2ac0a5dfbc","019d6ae6-5d89-74c6-b581-3918d1816346","","439","
                <div class=""stimulus-container"">
                    <img src=""images/causal_sequence/dog_causal/dog_causal_8.png"" class=""exp-image"">
                    <div class=""question-area"">
                        <p style=""font-size: 20px; font-weight: bold; margin: 0;"">Is there a person in this image?</p>
                    </div>
                </div>","0","main_experiment_trial","8","dog_causal","causal_sequence","chronological","","","","","","",""
"","","","","","html-keyboard-response","117","420753","0.0-117.0","F03BF6E836C74FBE9F41B86BFCE4FDA7","019d6ae9-724a-7cf7-96da-4d2ac0a5dfbc","019d6ae6-5d89-74c6-b581-3918d1816346","","null","
                <div class=""stimulus-container"">
                    <img src=""images/causal_sequence/dog_causal/dog_causal_9.png"" class=""exp-image"">
                    <div class=""question-area""></div> 
                </div>","null","","","","","","","","","","","",""
"","","","","","html-button-response","118","421661","0.0-118.0","F03BF6E836C74FBE9F41B86BFCE4FDA7","019d6ae9-724a-7cf7-96da-4d2ac0a5dfbc","019d6ae6-5d89-74c6-b581-3918d1816346","","908","
                <div class=""stimulus-container"">
                    <img src=""images/causal_sequence/dog_causal/dog_causal_9.png"" class=""exp-image"">
                    <div class=""question-area"">
                        <p style=""font-size: 20px; font-weight: bold; margin: 0;"">Is there a person in this image?</p>
                    </div>
                </div>","0","main_experiment_trial","9","dog_causal","causal_sequence","chronological","","","","","","",""
"","","","","","html-keyboard-response","119","426663","0.0-119.0","F03BF6E836C74FBE9F41B86BFCE4FDA7","019d6ae9-724a-7cf7-96da-4d2ac0a5dfbc","019d6ae6-5d89-74c6-b581-3918d1816346","","null","
                <div class=""stimulus-container"">
                    <img src=""images/causal_sequence/dog_causal/dog_causal_ten.png"" class=""exp-image"">
                    <div class=""question-area""></div> 
                </div>","null","","","","","","","","","","","",""
"","","","","","html-button-response","120","427217","0.0-120.0","F03BF6E836C74FBE9F41B86BFCE4FDA7","019d6ae9-724a-7cf7-96da-4d2ac0a5dfbc","019d6ae6-5d89-74c6-b581-3918d1816346","","554","
                <div class=""stimulus-container"">
                    <img src=""images/causal_sequence/dog_causal/dog_causal_ten.png"" class=""exp-image"">
                    <div class=""question-area"">
                        <p style=""font-size: 20px; font-weight: bold; margin: 0;"">Is there a person in this image?</p>
                    </div>
                </div>","0","main_experiment_trial","ten","dog_causal","causal_sequence","chronological","","","","","","",""
"","","","","","html-keyboard-response","121","432219","0.0-121.0","F03BF6E836C74FBE9F41B86BFCE4FDA7","019d6ae9-724a-7cf7-96da-4d2ac0a5dfbc","019d6ae6-5d89-74c6-b581-3918d1816346","","null","<div style=""background-color: white; width: 100vw; height: 100vh;""></div>","null","","","","","","","","","","","",""
"","","","","","html-keyboard-response","122","437229","0.0-122.0","F03BF6E836C74FBE9F41B86BFCE4FDA7","019d6ae9-724a-7cf7-96da-4d2ac0a5dfbc","019d6ae6-5d89-74c6-b581-3918d1816346","","null","
                <div class=""stimulus-container"">
                    <img src=""images/causal_sequence/package_causal/package_causal_1.png"" class=""exp-image"">
                    <div class=""question-area""></div> 
                </div>","null","","","","","","","","","","","",""
"","","","","","html-button-response","123","438449","0.0-123.0","F03BF6E836C74FBE9F41B86BFCE4FDA7","019d6ae9-724a-7cf7-96da-4d2ac0a5dfbc","019d6ae6-5d89-74c6-b581-3918d1816346","","1219","
                <div class=""stimulus-container"">
                    <img src=""images/causal_sequence/package_causal/package_causal_1.png"" class=""exp-image"">
                    <div class=""question-area"">
                        <p style=""font-size: 20px; font-weight: bold; margin: 0;"">Is there a person in this image?</p>
                    </div>
                </div>","0","main_experiment_trial","1","package_causal","causal_sequence","chronological","","","","","","",""
"","","","","","html-keyboard-response","124","443450","0.0-124.0","F03BF6E836C74FBE9F41B86BFCE4FDA7","019d6ae9-724a-7cf7-96da-4d2ac0a5dfbc","019d6ae6-5d89-74c6-b581-3918d1816346","","null","
                <div class=""stimulus-container"">
                    <img src=""images/causal_sequence/package_causal/package_causal_2.png"" class=""exp-image"">
                    <div class=""question-area""></div> 
                </div>","null","","","","","","","","","","","",""
"","","","","","html-button-response","125","446058","0.0-125.0","F03BF6E836C74FBE9F41B86BFCE4FDA7","019d6ae9-724a-7cf7-96da-4d2ac0a5dfbc","019d6ae6-5d89-74c6-b581-3918d1816346","","2608","
                <div class=""stimulus-container"">
                    <img src=""images/causal_sequence/package_causal/package_causal_2.png"" class=""exp-image"">
                    <div class=""question-area"">
                        <p style=""font-size: 20px; font-weight: bold; margin: 0;"">Is there a person in this image?</p>
                    </div>
                </div>","0","main_experiment_trial","2","package_causal","causal_sequence","chronological","","","","","","",""
"","","","","","html-keyboard-response","126","451073","0.0-126.0","F03BF6E836C74FBE9F41B86BFCE4FDA7","019d6ae9-724a-7cf7-96da-4d2ac0a5dfbc","019d6ae6-5d89-74c6-b581-3918d1816346","","null","
                <div class=""stimulus-container"">
                    <img src=""images/causal_sequence/package_causal/package_causal_3.png"" class=""exp-image"">
                    <div class=""question-area""></div> 
                </div>","null","","","","","","","","","","","",""
"","","","","","html-button-response","127","453253","0.0-127.0","F03BF6E836C74FBE9F41B86BFCE4FDA7","019d6ae9-724a-7cf7-96da-4d2ac0a5dfbc","019d6ae6-5d89-74c6-b581-3918d1816346","","2180","
                <div class=""stimulus-container"">
                    <img src=""images/causal_sequence/package_causal/package_causal_3.png"" class=""exp-image"">
                    <div class=""question-area"">
                        <p style=""font-size: 20px; font-weight: bold; margin: 0;"">Is there a person in this image?</p>
                    </div>
                </div>","0","main_experiment_trial","3","package_causal","causal_sequence","chronological","","","","","","",""
"","","","","","html-keyboard-response","128","458256","0.0-128.0","F03BF6E836C74FBE9F41B86BFCE4FDA7","019d6ae9-724a-7cf7-96da-4d2ac0a5dfbc","019d6ae6-5d89-74c6-b581-3918d1816346","","null","
                <div class=""stimulus-container"">
                    <img src=""images/causal_sequence/package_causal/package_causal_4.png"" class=""exp-image"">
                    <div class=""question-area""></div> 
                </div>","null","","","","","","","","","","","",""
"","","","","","html-button-response","129","459102","0.0-129.0","F03BF6E836C74FBE9F41B86BFCE4FDA7","019d6ae9-724a-7cf7-96da-4d2ac0a5dfbc","019d6ae6-5d89-74c6-b581-3918d1816346","","845","
                <div class=""stimulus-container"">
                    <img src=""images/causal_sequence/package_causal/package_causal_4.png"" class=""exp-image"">
                    <div class=""question-area"">
                        <p style=""font-size: 20px; font-weight: bold; margin: 0;"">Is there a person in this image?</p>
                    </div>
                </div>","1","main_experiment_trial","4","package_causal","causal_sequence","chronological","","","","","","",""
"","","","","","html-keyboard-response","130","464117","0.0-130.0","F03BF6E836C74FBE9F41B86BFCE4FDA7","019d6ae9-724a-7cf7-96da-4d2ac0a5dfbc","019d6ae6-5d89-74c6-b581-3918d1816346","","null","
                <div class=""stimulus-container"">
                    <img src=""images/causal_sequence/package_causal/package_causal_5.png"" class=""exp-image"">
                    <div class=""question-area""></div> 
                </div>","null","","","","","","","","","","","",""
"","","","","","html-button-response","131","465743","0.0-131.0","F03BF6E836C74FBE9F41B86BFCE4FDA7","019d6ae9-724a-7cf7-96da-4d2ac0a5dfbc","019d6ae6-5d89-74c6-b581-3918d1816346","","1626","
                <div class=""stimulus-container"">
                    <img src=""images/causal_sequence/package_causal/package_causal_5.png"" class=""exp-image"">
                    <div class=""question-area"">
                        <p style=""font-size: 20px; font-weight: bold; margin: 0;"">Is there a person in this image?</p>
                    </div>
                </div>","1","main_experiment_trial","5","package_causal","causal_sequence","chronological","","","","","","",""
"","","","","","html-keyboard-response","132","470758","0.0-132.0","F03BF6E836C74FBE9F41B86BFCE4FDA7","019d6ae9-724a-7cf7-96da-4d2ac0a5dfbc","019d6ae6-5d89-74c6-b581-3918d1816346","","null","
                <div class=""stimulus-container"">
                    <img src=""images/causal_sequence/package_causal/package_causal_6.png"" class=""exp-image"">
                    <div class=""question-area""></div> 
                </div>","null","","","","","","","","","","","",""
"","","","","","html-button-response","133","472017","0.0-133.0","F03BF6E836C74FBE9F41B86BFCE4FDA7","019d6ae9-724a-7cf7-96da-4d2ac0a5dfbc","019d6ae6-5d89-74c6-b581-3918d1816346","","1259","
                <div class=""stimulus-container"">
                    <img src=""images/causal_sequence/package_causal/package_causal_6.png"" class=""exp-image"">
                    <div class=""question-area"">
                        <p style=""font-size: 20px; font-weight: bold; margin: 0;"">Is there a person in this image?</p>
                    </div>
                </div>","0","main_experiment_trial","6","package_causal","causal_sequence","chronological","","","","","","",""
"","","","","","html-keyboard-response","134","477030","0.0-134.0","F03BF6E836C74FBE9F41B86BFCE4FDA7","019d6ae9-724a-7cf7-96da-4d2ac0a5dfbc","019d6ae6-5d89-74c6-b581-3918d1816346","","null","
                <div class=""stimulus-container"">
                    <img src=""images/causal_sequence/package_causal/package_causal_7.png"" class=""exp-image"">
                    <div class=""question-area""></div> 
                </div>","null","","","","","","","","","","","",""
"","","","","","html-button-response","135","478087","0.0-135.0","F03BF6E836C74FBE9F41B86BFCE4FDA7","019d6ae9-724a-7cf7-96da-4d2ac0a5dfbc","019d6ae6-5d89-74c6-b581-3918d1816346","","1057","
                <div class=""stimulus-container"">
                    <img src=""images/causal_sequence/package_causal/package_causal_7.png"" class=""exp-image"">
                    <div class=""question-area"">
                        <p style=""font-size: 20px; font-weight: bold; margin: 0;"">Is there a person in this image?</p>
                    </div>
                </div>","0","main_experiment_trial","7","package_causal","causal_sequence","chronological","","","","","","",""
"","","","","","html-keyboard-response","136","483096","0.0-136.0","F03BF6E836C74FBE9F41B86BFCE4FDA7","019d6ae9-724a-7cf7-96da-4d2ac0a5dfbc","019d6ae6-5d89-74c6-b581-3918d1816346","","null","
                <div class=""stimulus-container"">
                    <img src=""images/causal_sequence/package_causal/package_causal_8.png"" class=""exp-image"">
                    <div class=""question-area""></div> 
                </div>","null","","","","","","","","","","","",""
"","","","","","html-button-response","137","484229","0.0-137.0","F03BF6E836C74FBE9F41B86BFCE4FDA7","019d6ae9-724a-7cf7-96da-4d2ac0a5dfbc","019d6ae6-5d89-74c6-b581-3918d1816346","","1133","
                <div class=""stimulus-container"">
                    <img src=""images/causal_sequence/package_causal/package_causal_8.png"" class=""exp-image"">
                    <div class=""question-area"">
                        <p style=""font-size: 20px; font-weight: bold; margin: 0;"">Is there a person in this image?</p>
                    </div>
                </div>","0","main_experiment_trial","8","package_causal","causal_sequence","chronological","","","","","","",""
"","","","","","html-keyboard-response","138","489230","0.0-138.0","F03BF6E836C74FBE9F41B86BFCE4FDA7","019d6ae9-724a-7cf7-96da-4d2ac0a5dfbc","019d6ae6-5d89-74c6-b581-3918d1816346","","null","
                <div class=""stimulus-container"">
                    <img src=""images/causal_sequence/package_causal/package_causal_9.png"" class=""exp-image"">
                    <div class=""question-area""></div> 
                </div>","null","","","","","","","","","","","",""
"","","","","","html-button-response","139","489768","0.0-139.0","F03BF6E836C74FBE9F41B86BFCE4FDA7","019d6ae9-724a-7cf7-96da-4d2ac0a5dfbc","019d6ae6-5d89-74c6-b581-3918d1816346","","537","
                <div class=""stimulus-container"">
                    <img src=""images/causal_sequence/package_causal/package_causal_9.png"" class=""exp-image"">
                    <div class=""question-area"">
                        <p style=""font-size: 20px; font-weight: bold; margin: 0;"">Is there a person in this image?</p>
                    </div>
                </div>","0","main_experiment_trial","9","package_causal","causal_sequence","chronological","","","","","","",""
"","","","","","html-keyboard-response","140","494780","0.0-140.0","F03BF6E836C74FBE9F41B86BFCE4FDA7","019d6ae9-724a-7cf7-96da-4d2ac0a5dfbc","019d6ae6-5d89-74c6-b581-3918d1816346","","null","
                <div class=""stimulus-container"">
                    <img src=""images/causal_sequence/package_causal/package_causal_ten.png"" class=""exp-image"">
                    <div class=""question-area""></div> 
                </div>","null","","","","","","","","","","","",""
"","","","","","html-button-response","141","495176","0.0-141.0","F03BF6E836C74FBE9F41B86BFCE4FDA7","019d6ae9-724a-7cf7-96da-4d2ac0a5dfbc","019d6ae6-5d89-74c6-b581-3918d1816346","","396","
                <div class=""stimulus-container"">
                    <img src=""images/causal_sequence/package_causal/package_causal_ten.png"" class=""exp-image"">
                    <div class=""question-area"">
                        <p style=""font-size: 20px; font-weight: bold; margin: 0;"">Is there a person in this image?</p>
                    </div>
                </div>","0","main_experiment_trial","ten","package_causal","causal_sequence","chronological","","","","","","",""
"","","","","","html-keyboard-response","142","500182","0.0-142.0","F03BF6E836C74FBE9F41B86BFCE4FDA7","019d6ae9-724a-7cf7-96da-4d2ac0a5dfbc","019d6ae6-5d89-74c6-b581-3918d1816346","","null","<div style=""background-color: white; width: 100vw; height: 100vh;""></div>","null","","","","","","","","","","","",""
"","","","","","html-keyboard-response","143","505184","0.0-143.0","F03BF6E836C74FBE9F41B86BFCE4FDA7","019d6ae9-724a-7cf7-96da-4d2ac0a5dfbc","019d6ae6-5d89-74c6-b581-3918d1816346","","null","
                <div class=""stimulus-container"">
                    <img src=""semantic_sequence_notimeline/transportation_semantic/transportation_semantic_1.png"" class=""exp-image"">
                    <div class=""question-area""></div> 
                </div>","null","","","","","","","","","","","",""
"","","","","","html-button-response","144","506493","0.0-144.0","F03BF6E836C74FBE9F41B86BFCE4FDA7","019d6ae9-724a-7cf7-96da-4d2ac0a5dfbc","019d6ae6-5d89-74c6-b581-3918d1816346","","1308","
                <div class=""stimulus-container"">
                    <img src=""semantic_sequence_notimeline/transportation_semantic/transportation_semantic_1.png"" class=""exp-image"">
                    <div class=""question-area"">
                        <p style=""font-size: 20px; font-weight: bold; margin: 0;"">Is there a person in this image?</p>
                    </div>
                </div>","1","main_experiment_trial","1","transportation_semantic","semantic_sequence_notimeline","chronological","","","","","","",""
"","","","","","html-keyboard-response","145","511620","0.0-145.0","F03BF6E836C74FBE9F41B86BFCE4FDA7","019d6ae9-724a-7cf7-96da-4d2ac0a5dfbc","019d6ae6-5d89-74c6-b581-3918d1816346","","null","
                <div class=""stimulus-container"">
                    <img src=""semantic_sequence_notimeline/transportation_semantic/transportation_semantic_2.png"" class=""exp-image"">
                    <div class=""question-area""></div> 
                </div>","null","","","","","","","","","","","",""
"","","","","","html-button-response","146","513330","0.0-146.0","F03BF6E836C74FBE9F41B86BFCE4FDA7","019d6ae9-724a-7cf7-96da-4d2ac0a5dfbc","019d6ae6-5d89-74c6-b581-3918d1816346","","1709","
                <div class=""stimulus-container"">
                    <img src=""semantic_sequence_notimeline/transportation_semantic/transportation_semantic_2.png"" class=""exp-image"">
                    <div class=""question-area"">
                        <p style=""font-size: 20px; font-weight: bold; margin: 0;"">Is there a person in this image?</p>
                    </div>
                </div>","1","main_experiment_trial","2","transportation_semantic","semantic_sequence_notimeline","chronological","","","","","","",""
"","","","","","html-keyboard-response","147","518623","0.0-147.0","F03BF6E836C74FBE9F41B86BFCE4FDA7","019d6ae9-724a-7cf7-96da-4d2ac0a5dfbc","019d6ae6-5d89-74c6-b581-3918d1816346","","null","
                <div class=""stimulus-container"">
                    <img src=""semantic_sequence_notimeline/transportation_semantic/transportation_semantic_3.png"" class=""exp-image"">
                    <div class=""question-area""></div> 
                </div>","null","","","","","","","","","","","",""
"","","","","","html-button-response","148","520448","0.0-148.0","F03BF6E836C74FBE9F41B86BFCE4FDA7","019d6ae9-724a-7cf7-96da-4d2ac0a5dfbc","019d6ae6-5d89-74c6-b581-3918d1816346","","1825","
                <div class=""stimulus-container"">
                    <img src=""semantic_sequence_notimeline/transportation_semantic/transportation_semantic_3.png"" class=""exp-image"">
                    <div class=""question-area"">
                        <p style=""font-size: 20px; font-weight: bold; margin: 0;"">Is there a person in this image?</p>
                    </div>
                </div>","1","main_experiment_trial","3","transportation_semantic","semantic_sequence_notimeline","chronological","","","","","","",""
"","","","","","html-keyboard-response","149","525452","0.0-149.0","F03BF6E836C74FBE9F41B86BFCE4FDA7","019d6ae9-724a-7cf7-96da-4d2ac0a5dfbc","019d6ae6-5d89-74c6-b581-3918d1816346","","null","
                <div class=""stimulus-container"">
                    <img src=""semantic_sequence_notimeline/transportation_semantic/transportation_semantic_4.png"" class=""exp-image"">
                    <div class=""question-area""></div> 
                </div>","null","","","","","","","","","","","",""
"","","","","","html-button-response","150","528452","0.0-150.0","F03BF6E836C74FBE9F41B86BFCE4FDA7","019d6ae9-724a-7cf7-96da-4d2ac0a5dfbc","019d6ae6-5d89-74c6-b581-3918d1816346","","null","
                <div class=""stimulus-container"">
                    <img src=""semantic_sequence_notimeline/transportation_semantic/transportation_semantic_4.png"" class=""exp-image"">
                    <div class=""question-area"">
                        <p style=""font-size: 20px; font-weight: bold; margin: 0;"">Is there a person in this image?</p>
                    </div>
                </div>","null","main_experiment_trial","4","transportation_semantic","semantic_sequence_notimeline","chronological","","","","","","",""
"","","","","","html-keyboard-response","151","533456","0.0-151.0","F03BF6E836C74FBE9F41B86BFCE4FDA7","019d6ae9-724a-7cf7-96da-4d2ac0a5dfbc","019d6ae6-5d89-74c6-b581-3918d1816346","","null","
                <div class=""stimulus-container"">
                    <img src=""semantic_sequence_notimeline/transportation_semantic/transportation_semantic_5.png"" class=""exp-image"">
                    <div class=""question-area""></div> 
                </div>","null","","","","","","","","","","","",""
"","","","","","html-button-response","152","534468","0.0-152.0","F03BF6E836C74FBE9F41B86BFCE4FDA7","019d6ae9-724a-7cf7-96da-4d2ac0a5dfbc","019d6ae6-5d89-74c6-b581-3918d1816346","","1011","
                <div class=""stimulus-container"">
                    <img src=""semantic_sequence_notimeline/transportation_semantic/transportation_semantic_5.png"" class=""exp-image"">
                    <div class=""question-area"">
                        <p style=""font-size: 20px; font-weight: bold; margin: 0;"">Is there a person in this image?</p>
                    </div>
                </div>","1","main_experiment_trial","5","transportation_semantic","semantic_sequence_notimeline","chronological","","","","","","",""
"","","","","","html-keyboard-response","153","539476","0.0-153.0","F03BF6E836C74FBE9F41B86BFCE4FDA7","019d6ae9-724a-7cf7-96da-4d2ac0a5dfbc","019d6ae6-5d89-74c6-b581-3918d1816346","","null","
                <div class=""stimulus-container"">
                    <img src=""semantic_sequence_notimeline/transportation_semantic/transportation_semantic_6.png"" class=""exp-image"">
                    <div class=""question-area""></div> 
                </div>","null","","","","","","","","","","","",""
"","","","","","html-button-response","154","540085","0.0-154.0","F03BF6E836C74FBE9F41B86BFCE4FDA7","019d6ae9-724a-7cf7-96da-4d2ac0a5dfbc","019d6ae6-5d89-74c6-b581-3918d1816346","","608","
                <div class=""stimulus-container"">
                    <img src=""semantic_sequence_notimeline/transportation_semantic/transportation_semantic_6.png"" class=""exp-image"">
                    <div class=""question-area"">
                        <p style=""font-size: 20px; font-weight: bold; margin: 0;"">Is there a person in this image?</p>
                    </div>
                </div>","0","main_experiment_trial","6","transportation_semantic","semantic_sequence_notimeline","chronological","","","","","","",""
"","","","","","html-keyboard-response","155","545085","0.0-155.0","F03BF6E836C74FBE9F41B86BFCE4FDA7","019d6ae9-724a-7cf7-96da-4d2ac0a5dfbc","019d6ae6-5d89-74c6-b581-3918d1816346","","null","
                <div class=""stimulus-container"">
                    <img src=""semantic_sequence_notimeline/transportation_semantic/transportation_semantic_7.png"" class=""exp-image"">
                    <div class=""question-area""></div> 
                </div>","null","","","","","","","","","","","",""
"","","","","","html-button-response","156","546459","0.0-156.0","F03BF6E836C74FBE9F41B86BFCE4FDA7","019d6ae9-724a-7cf7-96da-4d2ac0a5dfbc","019d6ae6-5d89-74c6-b581-3918d1816346","","1373","
                <div class=""stimulus-container"">
                    <img src=""semantic_sequence_notimeline/transportation_semantic/transportation_semantic_7.png"" class=""exp-image"">
                    <div class=""question-area"">
                        <p style=""font-size: 20px; font-weight: bold; margin: 0;"">Is there a person in this image?</p>
                    </div>
                </div>","1","main_experiment_trial","7","transportation_semantic","semantic_sequence_notimeline","chronological","","","","","","",""
"","","","","","html-keyboard-response","157","551465","0.0-157.0","F03BF6E836C74FBE9F41B86BFCE4FDA7","019d6ae9-724a-7cf7-96da-4d2ac0a5dfbc","019d6ae6-5d89-74c6-b581-3918d1816346","","null","
                <div class=""stimulus-container"">
                    <img src=""semantic_sequence_notimeline/transportation_semantic/transportation_semantic_8.png"" class=""exp-image"">
                    <div class=""question-area""></div> 
                </div>","null","","","","","","","","","","","",""
"","","","","","html-button-response","158","552794","0.0-158.0","F03BF6E836C74FBE9F41B86BFCE4FDA7","019d6ae9-724a-7cf7-96da-4d2ac0a5dfbc","019d6ae6-5d89-74c6-b581-3918d1816346","","1328","
                <div class=""stimulus-container"">
                    <img src=""semantic_sequence_notimeline/transportation_semantic/transportation_semantic_8.png"" class=""exp-image"">
                    <div class=""question-area"">
                        <p style=""font-size: 20px; font-weight: bold; margin: 0;"">Is there a person in this image?</p>
                    </div>
                </div>","1","main_experiment_trial","8","transportation_semantic","semantic_sequence_notimeline","chronological","","","","","","",""
"","","","","","html-keyboard-response","159","557804","0.0-159.0","F03BF6E836C74FBE9F41B86BFCE4FDA7","019d6ae9-724a-7cf7-96da-4d2ac0a5dfbc","019d6ae6-5d89-74c6-b581-3918d1816346","","null","
                <div class=""stimulus-container"">
                    <img src=""semantic_sequence_notimeline/transportation_semantic/transportation_semantic_9.png"" class=""exp-image"">
                    <div class=""question-area""></div> 
                </div>","null","","","","","","","","","","","",""
"","","","","","html-button-response","160","559257","0.0-160.0","F03BF6E836C74FBE9F41B86BFCE4FDA7","019d6ae9-724a-7cf7-96da-4d2ac0a5dfbc","019d6ae6-5d89-74c6-b581-3918d1816346","","1453","
                <div class=""stimulus-container"">
                    <img src=""semantic_sequence_notimeline/transportation_semantic/transportation_semantic_9.png"" class=""exp-image"">
                    <div class=""question-area"">
                        <p style=""font-size: 20px; font-weight: bold; margin: 0;"">Is there a person in this image?</p>
                    </div>
                </div>","1","main_experiment_trial","9","transportation_semantic","semantic_sequence_notimeline","chronological","","","","","","",""
"","","","","","html-keyboard-response","161","564257","0.0-161.0","F03BF6E836C74FBE9F41B86BFCE4FDA7","019d6ae9-724a-7cf7-96da-4d2ac0a5dfbc","019d6ae6-5d89-74c6-b581-3918d1816346","","null","
                <div class=""stimulus-container"">
                    <img src=""semantic_sequence_notimeline/transportation_semantic/transportation_semantic_ten.png"" class=""exp-image"">
                    <div class=""question-area""></div> 
                </div>","null","","","","","","","","","","","",""
"","","","","","html-button-response","162","566007","0.0-162.0","F03BF6E836C74FBE9F41B86BFCE4FDA7","019d6ae9-724a-7cf7-96da-4d2ac0a5dfbc","019d6ae6-5d89-74c6-b581-3918d1816346","","1750","
                <div class=""stimulus-container"">
                    <img src=""semantic_sequence_notimeline/transportation_semantic/transportation_semantic_ten.png"" class=""exp-image"">
                    <div class=""question-area"">
                        <p style=""font-size: 20px; font-weight: bold; margin: 0;"">Is there a person in this image?</p>
                    </div>
                </div>","1","main_experiment_trial","ten","transportation_semantic","semantic_sequence_notimeline","chronological","","","","","","",""
"","","","","","html-keyboard-response","163","571020","0.0-163.0","F03BF6E836C74FBE9F41B86BFCE4FDA7","019d6ae9-724a-7cf7-96da-4d2ac0a5dfbc","019d6ae6-5d89-74c6-b581-3918d1816346","","null","<div style=""background-color: white; width: 100vw; height: 100vh;""></div>","null","","","","","","","","","","","",""
"","","","","","html-keyboard-response","164","576033","0.0-164.0","F03BF6E836C74FBE9F41B86BFCE4FDA7","019d6ae9-724a-7cf7-96da-4d2ac0a5dfbc","019d6ae6-5d89-74c6-b581-3918d1816346","","null","
                <div class=""stimulus-container"">
                    <img src=""semantic_sequence_notimeline/clothing_semantic/clothing_semantic_1.png"" class=""exp-image"">
                    <div class=""question-area""></div> 
                </div>","null","","","","","","","","","","","",""
"","","","","","html-button-response","165","576716","0.0-165.0","F03BF6E836C74FBE9F41B86BFCE4FDA7","019d6ae9-724a-7cf7-96da-4d2ac0a5dfbc","019d6ae6-5d89-74c6-b581-3918d1816346","","683","
                <div class=""stimulus-container"">
                    <img src=""semantic_sequence_notimeline/clothing_semantic/clothing_semantic_1.png"" class=""exp-image"">
                    <div class=""question-area"">
                        <p style=""font-size: 20px; font-weight: bold; margin: 0;"">Is there a person in this image?</p>
                    </div>
                </div>","1","main_experiment_trial","1","clothing_semantic","semantic_sequence_notimeline","chronological","","","","","","",""
"","","","","","html-keyboard-response","166","581730","0.0-166.0","F03BF6E836C74FBE9F41B86BFCE4FDA7","019d6ae9-724a-7cf7-96da-4d2ac0a5dfbc","019d6ae6-5d89-74c6-b581-3918d1816346","","null","
                <div class=""stimulus-container"">
                    <img src=""semantic_sequence_notimeline/clothing_semantic/clothing_semantic_2.png"" class=""exp-image"">
                    <div class=""question-area""></div> 
                </div>","null","","","","","","","","","","","",""
"","","","","","html-button-response","167","582494","0.0-167.0","F03BF6E836C74FBE9F41B86BFCE4FDA7","019d6ae9-724a-7cf7-96da-4d2ac0a5dfbc","019d6ae6-5d89-74c6-b581-3918d1816346","","764","
                <div class=""stimulus-container"">
                    <img src=""semantic_sequence_notimeline/clothing_semantic/clothing_semantic_2.png"" class=""exp-image"">
                    <div class=""question-area"">
                        <p style=""font-size: 20px; font-weight: bold; margin: 0;"">Is there a person in this image?</p>
                    </div>
                </div>","1","main_experiment_trial","2","clothing_semantic","semantic_sequence_notimeline","chronological","","","","","","",""
"","","","","","html-keyboard-response","168","587504","0.0-168.0","F03BF6E836C74FBE9F41B86BFCE4FDA7","019d6ae9-724a-7cf7-96da-4d2ac0a5dfbc","019d6ae6-5d89-74c6-b581-3918d1816346","","null","
                <div class=""stimulus-container"">
                    <img src=""semantic_sequence_notimeline/clothing_semantic/clothing_semantic_3.png"" class=""exp-image"">
                    <div class=""question-area""></div> 
                </div>","null","","","","","","","","","","","",""
"","","","","","html-button-response","169","589051","0.0-169.0","F03BF6E836C74FBE9F41B86BFCE4FDA7","019d6ae9-724a-7cf7-96da-4d2ac0a5dfbc","019d6ae6-5d89-74c6-b581-3918d1816346","","1547","
                <div class=""stimulus-container"">
                    <img src=""semantic_sequence_notimeline/clothing_semantic/clothing_semantic_3.png"" class=""exp-image"">
                    <div class=""question-area"">
                        <p style=""font-size: 20px; font-weight: bold; margin: 0;"">Is there a person in this image?</p>
                    </div>
                </div>","1","main_experiment_trial","3","clothing_semantic","semantic_sequence_notimeline","chronological","","","","","","",""
"","","","","","html-keyboard-response","170","594052","0.0-170.0","F03BF6E836C74FBE9F41B86BFCE4FDA7","019d6ae9-724a-7cf7-96da-4d2ac0a5dfbc","019d6ae6-5d89-74c6-b581-3918d1816346","","null","
                <div class=""stimulus-container"">
                    <img src=""semantic_sequence_notimeline/clothing_semantic/clothing_semantic_4.png"" class=""exp-image"">
                    <div class=""question-area""></div> 
                </div>","null","","","","","","","","","","","",""
"","","","","","html-button-response","171","596529","0.0-171.0","F03BF6E836C74FBE9F41B86BFCE4FDA7","019d6ae9-724a-7cf7-96da-4d2ac0a5dfbc","019d6ae6-5d89-74c6-b581-3918d1816346","","2476","
                <div class=""stimulus-container"">
                    <img src=""semantic_sequence_notimeline/clothing_semantic/clothing_semantic_4.png"" class=""exp-image"">
                    <div class=""question-area"">
                        <p style=""font-size: 20px; font-weight: bold; margin: 0;"">Is there a person in this image?</p>
                    </div>
                </div>","1","main_experiment_trial","4","clothing_semantic","semantic_sequence_notimeline","chronological","","","","","","",""
"","","","","","html-keyboard-response","172","601543","0.0-172.0","F03BF6E836C74FBE9F41B86BFCE4FDA7","019d6ae9-724a-7cf7-96da-4d2ac0a5dfbc","019d6ae6-5d89-74c6-b581-3918d1816346","","null","
                <div class=""stimulus-container"">
                    <img src=""semantic_sequence_notimeline/clothing_semantic/clothing_semantic_5.png"" class=""exp-image"">
                    <div class=""question-area""></div> 
                </div>","null","","","","","","","","","","","",""
"","","","","","html-button-response","173","602907","0.0-173.0","F03BF6E836C74FBE9F41B86BFCE4FDA7","019d6ae9-724a-7cf7-96da-4d2ac0a5dfbc","019d6ae6-5d89-74c6-b581-3918d1816346","","1363","
                <div class=""stimulus-container"">
                    <img src=""semantic_sequence_notimeline/clothing_semantic/clothing_semantic_5.png"" class=""exp-image"">
                    <div class=""question-area"">
                        <p style=""font-size: 20px; font-weight: bold; margin: 0;"">Is there a person in this image?</p>
                    </div>
                </div>","1","main_experiment_trial","5","clothing_semantic","semantic_sequence_notimeline","chronological","","","","","","",""
"","","","","","html-keyboard-response","174","607920","0.0-174.0","F03BF6E836C74FBE9F41B86BFCE4FDA7","019d6ae9-724a-7cf7-96da-4d2ac0a5dfbc","019d6ae6-5d89-74c6-b581-3918d1816346","","null","
                <div class=""stimulus-container"">
                    <img src=""semantic_sequence_notimeline/clothing_semantic/clothing_semantic_6.png"" class=""exp-image"">
                    <div class=""question-area""></div> 
                </div>","null","","","","","","","","","","","",""
"","","","","","html-button-response","175","608397","0.0-175.0","F03BF6E836C74FBE9F41B86BFCE4FDA7","019d6ae9-724a-7cf7-96da-4d2ac0a5dfbc","019d6ae6-5d89-74c6-b581-3918d1816346","","477","
                <div class=""stimulus-container"">
                    <img src=""semantic_sequence_notimeline/clothing_semantic/clothing_semantic_6.png"" class=""exp-image"">
                    <div class=""question-area"">
                        <p style=""font-size: 20px; font-weight: bold; margin: 0;"">Is there a person in this image?</p>
                    </div>
                </div>","1","main_experiment_trial","6","clothing_semantic","semantic_sequence_notimeline","chronological","","","","","","",""
"","","","","","html-keyboard-response","176","613398","0.0-176.0","F03BF6E836C74FBE9F41B86BFCE4FDA7","019d6ae9-724a-7cf7-96da-4d2ac0a5dfbc","019d6ae6-5d89-74c6-b581-3918d1816346","","null","
                <div class=""stimulus-container"">
                    <img src=""semantic_sequence_notimeline/clothing_semantic/clothing_semantic_7.png"" class=""exp-image"">
                    <div class=""question-area""></div> 
                </div>","null","","","","","","","","","","","",""
"","","","","","html-button-response","177","614174","0.0-177.0","F03BF6E836C74FBE9F41B86BFCE4FDA7","019d6ae9-724a-7cf7-96da-4d2ac0a5dfbc","019d6ae6-5d89-74c6-b581-3918d1816346","","775","
                <div class=""stimulus-container"">
