"success","timeout","failed_images","failed_audio","failed_video","trial_type","trial_index","time_elapsed","internal_node_id","subject_id","study_id","session_id","view_history","rt","stimulus","response","task","image_index","folder","sequence_type","valuable_image_index","reward_type","chosen_image_index","target_X","correct_choice"
"true","false","[]","[]","[]","preload","0","12643","0.0-0.0","E8454A56D9AC4EA0ABBBFB0320FBD547","019cf799-5a50-7527-bc38-c5463e9e10e4","019cf78c-cfcf-769c-9016-9b96552b5e33","","","","","","","","","","","","",""
"","","","","","instructions","1","33300","0.0-1.0","E8454A56D9AC4EA0ABBBFB0320FBD547","019cf799-5a50-7527-bc38-c5463e9e10e4","019cf78c-cfcf-769c-9016-9b96552b5e33","[{""page_index"":0,""viewing_time"":20655}]","20655","","","","","","","","","","",""
"","","","","","instructions","2","36371","0.0-2.0","E8454A56D9AC4EA0ABBBFB0320FBD547","019cf799-5a50-7527-bc38-c5463e9e10e4","019cf78c-cfcf-769c-9016-9b96552b5e33","[{""page_index"":0,""viewing_time"":3069}]","3070","","","","","","","","","","",""
"true","","","","","fullscreen","3","39077","0.0-3.0","E8454A56D9AC4EA0ABBBFB0320FBD547","019cf799-5a50-7527-bc38-c5463e9e10e4","019cf78c-cfcf-769c-9016-9b96552b5e33","","1677","","","","","","","","","","",""
"","","","","","instructions","4","41603","0.0-4.0","E8454A56D9AC4EA0ABBBFB0320FBD547","019cf799-5a50-7527-bc38-c5463e9e10e4","019cf78c-cfcf-769c-9016-9b96552b5e33","[{""page_index"":0,""viewing_time"":2524}]","2525","","","","","","","","","","",""
"","","","","","instructions","5","45332","0.0-5.0","E8454A56D9AC4EA0ABBBFB0320FBD547","019cf799-5a50-7527-bc38-c5463e9e10e4","019cf78c-cfcf-769c-9016-9b96552b5e33","[{""page_index"":0,""viewing_time"":3729}]","3730","","","","","","","","","","",""
"","","","","","html-keyboard-response","6","49345","0.0-6.0","E8454A56D9AC4EA0ABBBFB0320FBD547","019cf799-5a50-7527-bc38-c5463e9e10e4","019cf78c-cfcf-769c-9016-9b96552b5e33","","null","
                <div class=""stimulus-container"">
                    <img src=""images/instructions/movie_1.png"" class=""exp-image"">
                    <div class=""question-area""></div> 
                </div>","null","","","","","","","","",""
"","","","","","html-button-response","7","51790","0.0-7.0","E8454A56D9AC4EA0ABBBFB0320FBD547","019cf799-5a50-7527-bc38-c5463e9e10e4","019cf78c-cfcf-769c-9016-9b96552b5e33","","2441","
                <div class=""stimulus-container"">
                    <img src=""images/instructions/movie_1.png"" class=""exp-image"">
                    <div class=""question-area"">
                        <p style=""font-size: 20px; font-weight: bold; margin: 0;"">Was there a person in this image?</p>
                    </div>
                </div>","0","example_question","1","","","","","","",""
"","","","","","html-keyboard-response","8","55808","0.0-8.0","E8454A56D9AC4EA0ABBBFB0320FBD547","019cf799-5a50-7527-bc38-c5463e9e10e4","019cf78c-cfcf-769c-9016-9b96552b5e33","","null","
                <div class=""stimulus-container"">
                    <img src=""images/instructions/movie_2.png"" class=""exp-image"">
                    <div class=""question-area""></div> 
                </div>","null","","","","","","","","",""
"","","","","","html-button-response","9","56389","0.0-9.0","E8454A56D9AC4EA0ABBBFB0320FBD547","019cf799-5a50-7527-bc38-c5463e9e10e4","019cf78c-cfcf-769c-9016-9b96552b5e33","","578","
                <div class=""stimulus-container"">
                    <img src=""images/instructions/movie_2.png"" class=""exp-image"">
                    <div class=""question-area"">
                        <p style=""font-size: 20px; font-weight: bold; margin: 0;"">Was there a person in this image?</p>
                    </div>
                </div>","0","example_question","2","","","","","","",""
"","","","","","html-keyboard-response","10","60404","0.0-10.0","E8454A56D9AC4EA0ABBBFB0320FBD547","019cf799-5a50-7527-bc38-c5463e9e10e4","019cf78c-cfcf-769c-9016-9b96552b5e33","","null","
                <div class=""stimulus-container"">
                    <img src=""images/instructions/movie_3.png"" class=""exp-image"">
                    <div class=""question-area""></div> 
                </div>","null","","","","","","","","",""
"","","","","","html-button-response","11","60950","0.0-11.0","E8454A56D9AC4EA0ABBBFB0320FBD547","019cf799-5a50-7527-bc38-c5463e9e10e4","019cf78c-cfcf-769c-9016-9b96552b5e33","","543","
                <div class=""stimulus-container"">
                    <img src=""images/instructions/movie_3.png"" class=""exp-image"">
                    <div class=""question-area"">
                        <p style=""font-size: 20px; font-weight: bold; margin: 0;"">Was there a person in this image?</p>
                    </div>
                </div>","0","example_question","3","","","","","","",""
"","","","","","html-keyboard-response","12","64952","0.0-12.0","E8454A56D9AC4EA0ABBBFB0320FBD547","019cf799-5a50-7527-bc38-c5463e9e10e4","019cf78c-cfcf-769c-9016-9b96552b5e33","","null","
                <div class=""stimulus-container"">
                    <img src=""images/instructions/movie_4.png"" class=""exp-image"">
                    <div class=""question-area""></div> 
                </div>","null","","","","","","","","",""
"","","","","","html-button-response","13","65477","0.0-13.0","E8454A56D9AC4EA0ABBBFB0320FBD547","019cf799-5a50-7527-bc38-c5463e9e10e4","019cf78c-cfcf-769c-9016-9b96552b5e33","","522","
                <div class=""stimulus-container"">
                    <img src=""images/instructions/movie_4.png"" class=""exp-image"">
                    <div class=""question-area"">
                        <p style=""font-size: 20px; font-weight: bold; margin: 0;"">Was there a person in this image?</p>
                    </div>
                </div>","0","example_question","4","","","","","","",""
"","","","","","instructions","14","67223","0.0-14.0","E8454A56D9AC4EA0ABBBFB0320FBD547","019cf799-5a50-7527-bc38-c5463e9e10e4","019cf78c-cfcf-769c-9016-9b96552b5e33","[{""page_index"":0,""viewing_time"":1744}]","1745","","","","","","","","","","",""
"","","","","","instructions","15","72031","0.0-15.0","E8454A56D9AC4EA0ABBBFB0320FBD547","019cf799-5a50-7527-bc38-c5463e9e10e4","019cf78c-cfcf-769c-9016-9b96552b5e33","[{""page_index"":0,""viewing_time"":4806}]","4807","","","","","","","","","","",""
"","","","","","html-keyboard-response","16","73043","0.0-16.0","E8454A56D9AC4EA0ABBBFB0320FBD547","019cf799-5a50-7527-bc38-c5463e9e10e4","019cf78c-cfcf-769c-9016-9b96552b5e33","","null","<div style=""background-color: white; width: 100vw; height: 100vh;""></div>","null","","","","","","","","",""
"","","","","","html-keyboard-response","17","78052","0.0-17.0","E8454A56D9AC4EA0ABBBFB0320FBD547","019cf799-5a50-7527-bc38-c5463e9e10e4","019cf78c-cfcf-769c-9016-9b96552b5e33","","null","
                <div class=""stimulus-container"">
                    <img src=""images/schematic_sequence/restaurant_scheme/restaurant_scheme_1.png"" class=""exp-image"">
                    <div class=""question-area""></div> 
                </div>","null","","","","","","","","",""
"","","","","","html-button-response","18","79006","0.0-18.0","E8454A56D9AC4EA0ABBBFB0320FBD547","019cf799-5a50-7527-bc38-c5463e9e10e4","019cf78c-cfcf-769c-9016-9b96552b5e33","","952","
                <div class=""stimulus-container"">
                    <img src=""images/schematic_sequence/restaurant_scheme/restaurant_scheme_1.png"" class=""exp-image"">
                    <div class=""question-area"">
                        <p style=""font-size: 20px; font-weight: bold; margin: 0;"">Is there a person in this image?</p>
                    </div>
                </div>","0","main_experiment_trial","1","restaurant_scheme","schematic_sequence","","","","",""
"","","","","","html-keyboard-response","19","84012","0.0-19.0","E8454A56D9AC4EA0ABBBFB0320FBD547","019cf799-5a50-7527-bc38-c5463e9e10e4","019cf78c-cfcf-769c-9016-9b96552b5e33","","null","
                <div class=""stimulus-container"">
                    <img src=""images/schematic_sequence/restaurant_scheme/restaurant_scheme_2.png"" class=""exp-image"">
                    <div class=""question-area""></div> 
                </div>","null","","","","","","","","",""
"","","","","","html-button-response","20","86454","0.0-20.0","E8454A56D9AC4EA0ABBBFB0320FBD547","019cf799-5a50-7527-bc38-c5463e9e10e4","019cf78c-cfcf-769c-9016-9b96552b5e33","","2440","
                <div class=""stimulus-container"">
                    <img src=""images/schematic_sequence/restaurant_scheme/restaurant_scheme_2.png"" class=""exp-image"">
                    <div class=""question-area"">
                        <p style=""font-size: 20px; font-weight: bold; margin: 0;"">Is there a person in this image?</p>
                    </div>
                </div>","1","main_experiment_trial","2","restaurant_scheme","schematic_sequence","","","","",""
"","","","","","html-keyboard-response","21","91465","0.0-21.0","E8454A56D9AC4EA0ABBBFB0320FBD547","019cf799-5a50-7527-bc38-c5463e9e10e4","019cf78c-cfcf-769c-9016-9b96552b5e33","","null","
                <div class=""stimulus-container"">
                    <img src=""images/schematic_sequence/restaurant_scheme/restaurant_scheme_3.png"" class=""exp-image"">
                    <div class=""question-area""></div> 
                </div>","null","","","","","","","","",""
"","","","","","html-button-response","22","92063","0.0-22.0","E8454A56D9AC4EA0ABBBFB0320FBD547","019cf799-5a50-7527-bc38-c5463e9e10e4","019cf78c-cfcf-769c-9016-9b96552b5e33","","595","
                <div class=""stimulus-container"">
                    <img src=""images/schematic_sequence/restaurant_scheme/restaurant_scheme_3.png"" class=""exp-image"">
                    <div class=""question-area"">
                        <p style=""font-size: 20px; font-weight: bold; margin: 0;"">Is there a person in this image?</p>
                    </div>
                </div>","0","main_experiment_trial","3","restaurant_scheme","schematic_sequence","","","","",""
"","","","","","html-keyboard-response","23","97074","0.0-23.0","E8454A56D9AC4EA0ABBBFB0320FBD547","019cf799-5a50-7527-bc38-c5463e9e10e4","019cf78c-cfcf-769c-9016-9b96552b5e33","","null","
                <div class=""stimulus-container"">
                    <img src=""images/schematic_sequence/restaurant_scheme/restaurant_scheme_4.png"" class=""exp-image"">
                    <div class=""question-area""></div> 
                </div>","null","","","","","","","","",""
"","","","","","html-button-response","24","98030","0.0-24.0","E8454A56D9AC4EA0ABBBFB0320FBD547","019cf799-5a50-7527-bc38-c5463e9e10e4","019cf78c-cfcf-769c-9016-9b96552b5e33","","954","
                <div class=""stimulus-container"">
                    <img src=""images/schematic_sequence/restaurant_scheme/restaurant_scheme_4.png"" class=""exp-image"">
                    <div class=""question-area"">
                        <p style=""font-size: 20px; font-weight: bold; margin: 0;"">Is there a person in this image?</p>
                    </div>
                </div>","0","main_experiment_trial","4","restaurant_scheme","schematic_sequence","","","","",""
"","","","","","html-keyboard-response","25","103039","0.0-25.0","E8454A56D9AC4EA0ABBBFB0320FBD547","019cf799-5a50-7527-bc38-c5463e9e10e4","019cf78c-cfcf-769c-9016-9b96552b5e33","","null","
                <div class=""stimulus-container"">
                    <img src=""images/schematic_sequence/restaurant_scheme/restaurant_scheme_5.png"" class=""exp-image"">
                    <div class=""question-area""></div> 
                </div>","null","","","","","","","","",""
"","","","","","html-button-response","26","103798","0.0-26.0","E8454A56D9AC4EA0ABBBFB0320FBD547","019cf799-5a50-7527-bc38-c5463e9e10e4","019cf78c-cfcf-769c-9016-9b96552b5e33","","755","
                <div class=""stimulus-container"">
                    <img src=""images/schematic_sequence/restaurant_scheme/restaurant_scheme_5.png"" class=""exp-image"">
                    <div class=""question-area"">
                        <p style=""font-size: 20px; font-weight: bold; margin: 0;"">Is there a person in this image?</p>
                    </div>
                </div>","0","main_experiment_trial","5","restaurant_scheme","schematic_sequence","","","","",""
"","","","","","html-keyboard-response","27","108802","0.0-27.0","E8454A56D9AC4EA0ABBBFB0320FBD547","019cf799-5a50-7527-bc38-c5463e9e10e4","019cf78c-cfcf-769c-9016-9b96552b5e33","","null","
                <div class=""stimulus-container"">
                    <img src=""images/schematic_sequence/restaurant_scheme/restaurant_scheme_6.png"" class=""exp-image"">
                    <div class=""question-area""></div> 
                </div>","null","","","","","","","","",""
"","","","","","html-button-response","28","109390","0.0-28.0","E8454A56D9AC4EA0ABBBFB0320FBD547","019cf799-5a50-7527-bc38-c5463e9e10e4","019cf78c-cfcf-769c-9016-9b96552b5e33","","586","
                <div class=""stimulus-container"">
                    <img src=""images/schematic_sequence/restaurant_scheme/restaurant_scheme_6.png"" class=""exp-image"">
                    <div class=""question-area"">
                        <p style=""font-size: 20px; font-weight: bold; margin: 0;"">Is there a person in this image?</p>
                    </div>
                </div>","1","main_experiment_trial","6","restaurant_scheme","schematic_sequence","","","","",""
"","","","","","html-keyboard-response","29","114407","0.0-29.0","E8454A56D9AC4EA0ABBBFB0320FBD547","019cf799-5a50-7527-bc38-c5463e9e10e4","019cf78c-cfcf-769c-9016-9b96552b5e33","","null","
                <div class=""stimulus-container"">
                    <img src=""images/schematic_sequence/restaurant_scheme/restaurant_scheme_7.png"" class=""exp-image"">
                    <div class=""question-area""></div> 
                </div>","null","","","","","","","","",""
"","","","","","html-button-response","30","114878","0.0-30.0","E8454A56D9AC4EA0ABBBFB0320FBD547","019cf799-5a50-7527-bc38-c5463e9e10e4","019cf78c-cfcf-769c-9016-9b96552b5e33","","469","
                <div class=""stimulus-container"">
                    <img src=""images/schematic_sequence/restaurant_scheme/restaurant_scheme_7.png"" class=""exp-image"">
                    <div class=""question-area"">
                        <p style=""font-size: 20px; font-weight: bold; margin: 0;"">Is there a person in this image?</p>
                    </div>
                </div>","1","main_experiment_trial","7","restaurant_scheme","schematic_sequence","","","","",""
"","","","","","html-keyboard-response","31","119893","0.0-31.0","E8454A56D9AC4EA0ABBBFB0320FBD547","019cf799-5a50-7527-bc38-c5463e9e10e4","019cf78c-cfcf-769c-9016-9b96552b5e33","","null","
                <div class=""stimulus-container"">
                    <img src=""images/schematic_sequence/restaurant_scheme/restaurant_scheme_8.png"" class=""exp-image"">
                    <div class=""question-area""></div> 
                </div>","null","","","","","","","","",""
"","","","","","html-button-response","32","120487","0.0-32.0","E8454A56D9AC4EA0ABBBFB0320FBD547","019cf799-5a50-7527-bc38-c5463e9e10e4","019cf78c-cfcf-769c-9016-9b96552b5e33","","589","
                <div class=""stimulus-container"">
                    <img src=""images/schematic_sequence/restaurant_scheme/restaurant_scheme_8.png"" class=""exp-image"">
                    <div class=""question-area"">
                        <p style=""font-size: 20px; font-weight: bold; margin: 0;"">Is there a person in this image?</p>
                    </div>
                </div>","1","main_experiment_trial","8","restaurant_scheme","schematic_sequence","","","","",""
"","","","","","html-keyboard-response","33","125489","0.0-33.0","E8454A56D9AC4EA0ABBBFB0320FBD547","019cf799-5a50-7527-bc38-c5463e9e10e4","019cf78c-cfcf-769c-9016-9b96552b5e33","","null","
                <div class=""stimulus-container"">
                    <img src=""images/schematic_sequence/restaurant_scheme/restaurant_scheme_9.png"" class=""exp-image"">
                    <div class=""question-area""></div> 
                </div>","null","","","","","","","","",""
"","","","","","html-button-response","34","126000","0.0-34.0","E8454A56D9AC4EA0ABBBFB0320FBD547","019cf799-5a50-7527-bc38-c5463e9e10e4","019cf78c-cfcf-769c-9016-9b96552b5e33","","509","
                <div class=""stimulus-container"">
                    <img src=""images/schematic_sequence/restaurant_scheme/restaurant_scheme_9.png"" class=""exp-image"">
                    <div class=""question-area"">
                        <p style=""font-size: 20px; font-weight: bold; margin: 0;"">Is there a person in this image?</p>
                    </div>
                </div>","0","main_experiment_trial","9","restaurant_scheme","schematic_sequence","","","","",""
"","","","","","html-keyboard-response","35","131009","0.0-35.0","E8454A56D9AC4EA0ABBBFB0320FBD547","019cf799-5a50-7527-bc38-c5463e9e10e4","019cf78c-cfcf-769c-9016-9b96552b5e33","","null","
                <div class=""stimulus-container"">
                    <img src=""images/schematic_sequence/restaurant_scheme/restaurant_scheme_ten.png"" class=""exp-image"">
                    <div class=""question-area""></div> 
                </div>","null","","","","","","","","",""
"","","","","","html-button-response","36","131505","0.0-36.0","E8454A56D9AC4EA0ABBBFB0320FBD547","019cf799-5a50-7527-bc38-c5463e9e10e4","019cf78c-cfcf-769c-9016-9b96552b5e33","","493","
                <div class=""stimulus-container"">
                    <img src=""images/schematic_sequence/restaurant_scheme/restaurant_scheme_ten.png"" class=""exp-image"">
                    <div class=""question-area"">
                        <p style=""font-size: 20px; font-weight: bold; margin: 0;"">Is there a person in this image?</p>
                    </div>
                </div>","0","main_experiment_trial","ten","restaurant_scheme","schematic_sequence","","","","",""
"","","","","","html-keyboard-response","37","132517","0.0-37.0","E8454A56D9AC4EA0ABBBFB0320FBD547","019cf799-5a50-7527-bc38-c5463e9e10e4","019cf78c-cfcf-769c-9016-9b96552b5e33","","null","<div style=""background-color: white; width: 100vw; height: 100vh;""></div>","null","","","","","","","","",""
"","","","","","html-keyboard-response","38","137532","0.0-38.0","E8454A56D9AC4EA0ABBBFB0320FBD547","019cf799-5a50-7527-bc38-c5463e9e10e4","019cf78c-cfcf-769c-9016-9b96552b5e33","","null","
                <div class=""stimulus-container"">
                    <img src=""images/schematic_sequence/hotel_scheme/hotel_scheme_1.png"" class=""exp-image"">
                    <div class=""question-area""></div> 
                </div>","null","","","","","","","","",""
"","","","","","html-button-response","39","138264","0.0-39.0","E8454A56D9AC4EA0ABBBFB0320FBD547","019cf799-5a50-7527-bc38-c5463e9e10e4","019cf78c-cfcf-769c-9016-9b96552b5e33","","729","
                <div class=""stimulus-container"">
                    <img src=""images/schematic_sequence/hotel_scheme/hotel_scheme_1.png"" class=""exp-image"">
                    <div class=""question-area"">
                        <p style=""font-size: 20px; font-weight: bold; margin: 0;"">Is there a person in this image?</p>
                    </div>
                </div>","1","main_experiment_trial","1","hotel_scheme","schematic_sequence","","","","",""
"","","","","","html-keyboard-response","40","143277","0.0-40.0","E8454A56D9AC4EA0ABBBFB0320FBD547","019cf799-5a50-7527-bc38-c5463e9e10e4","019cf78c-cfcf-769c-9016-9b96552b5e33","","null","
                <div class=""stimulus-container"">
                    <img src=""images/schematic_sequence/hotel_scheme/hotel_scheme_2.png"" class=""exp-image"">
                    <div class=""question-area""></div> 
                </div>","null","","","","","","","","",""
"","","","","","html-button-response","41","143856","0.0-41.0","E8454A56D9AC4EA0ABBBFB0320FBD547","019cf799-5a50-7527-bc38-c5463e9e10e4","019cf78c-cfcf-769c-9016-9b96552b5e33","","576","
                <div class=""stimulus-container"">
                    <img src=""images/schematic_sequence/hotel_scheme/hotel_scheme_2.png"" class=""exp-image"">
                    <div class=""question-area"">
                        <p style=""font-size: 20px; font-weight: bold; margin: 0;"">Is there a person in this image?</p>
                    </div>
                </div>","0","main_experiment_trial","2","hotel_scheme","schematic_sequence","","","","",""
"","","","","","html-keyboard-response","42","148862","0.0-42.0","E8454A56D9AC4EA0ABBBFB0320FBD547","019cf799-5a50-7527-bc38-c5463e9e10e4","019cf78c-cfcf-769c-9016-9b96552b5e33","","null","
                <div class=""stimulus-container"">
                    <img src=""images/schematic_sequence/hotel_scheme/hotel_scheme_3.png"" class=""exp-image"">
                    <div class=""question-area""></div> 
                </div>","null","","","","","","","","",""
"","","","","","html-button-response","43","149880","0.0-43.0","E8454A56D9AC4EA0ABBBFB0320FBD547","019cf799-5a50-7527-bc38-c5463e9e10e4","019cf78c-cfcf-769c-9016-9b96552b5e33","","1016","
                <div class=""stimulus-container"">
                    <img src=""images/schematic_sequence/hotel_scheme/hotel_scheme_3.png"" class=""exp-image"">
                    <div class=""question-area"">
                        <p style=""font-size: 20px; font-weight: bold; margin: 0;"">Is there a person in this image?</p>
                    </div>
                </div>","0","main_experiment_trial","3","hotel_scheme","schematic_sequence","","","","",""
"","","","","","html-keyboard-response","44","154894","0.0-44.0","E8454A56D9AC4EA0ABBBFB0320FBD547","019cf799-5a50-7527-bc38-c5463e9e10e4","019cf78c-cfcf-769c-9016-9b96552b5e33","","null","
                <div class=""stimulus-container"">
                    <img src=""images/schematic_sequence/hotel_scheme/hotel_scheme_4.png"" class=""exp-image"">
                    <div class=""question-area""></div> 
                </div>","null","","","","","","","","",""
"","","","","","html-button-response","45","155816","0.0-45.0","E8454A56D9AC4EA0ABBBFB0320FBD547","019cf799-5a50-7527-bc38-c5463e9e10e4","019cf78c-cfcf-769c-9016-9b96552b5e33","","919","
                <div class=""stimulus-container"">
                    <img src=""images/schematic_sequence/hotel_scheme/hotel_scheme_4.png"" class=""exp-image"">
                    <div class=""question-area"">
                        <p style=""font-size: 20px; font-weight: bold; margin: 0;"">Is there a person in this image?</p>
                    </div>
                </div>","1","main_experiment_trial","4","hotel_scheme","schematic_sequence","","","","",""
"","","","","","html-keyboard-response","46","160832","0.0-46.0","E8454A56D9AC4EA0ABBBFB0320FBD547","019cf799-5a50-7527-bc38-c5463e9e10e4","019cf78c-cfcf-769c-9016-9b96552b5e33","","null","
                <div class=""stimulus-container"">
                    <img src=""images/schematic_sequence/hotel_scheme/hotel_scheme_5.png"" class=""exp-image"">
                    <div class=""question-area""></div> 
                </div>","null","","","","","","","","",""
"","","","","","html-button-response","47","161702","0.0-47.0","E8454A56D9AC4EA0ABBBFB0320FBD547","019cf799-5a50-7527-bc38-c5463e9e10e4","019cf78c-cfcf-769c-9016-9b96552b5e33","","869","
                <div class=""stimulus-container"">
                    <img src=""images/schematic_sequence/hotel_scheme/hotel_scheme_5.png"" class=""exp-image"">
                    <div class=""question-area"">
                        <p style=""font-size: 20px; font-weight: bold; margin: 0;"">Is there a person in this image?</p>
                    </div>
                </div>","0","main_experiment_trial","5","hotel_scheme","schematic_sequence","","","","",""
"","","","","","html-keyboard-response","48","166709","0.0-48.0","E8454A56D9AC4EA0ABBBFB0320FBD547","019cf799-5a50-7527-bc38-c5463e9e10e4","019cf78c-cfcf-769c-9016-9b96552b5e33","","null","
                <div class=""stimulus-container"">
                    <img src=""images/schematic_sequence/hotel_scheme/hotel_scheme_6.png"" class=""exp-image"">
                    <div class=""question-area""></div> 
                </div>","null","","","","","","","","",""
"","","","","","html-button-response","49","167177","0.0-49.0","E8454A56D9AC4EA0ABBBFB0320FBD547","019cf799-5a50-7527-bc38-c5463e9e10e4","019cf78c-cfcf-769c-9016-9b96552b5e33","","464","
                <div class=""stimulus-container"">
                    <img src=""images/schematic_sequence/hotel_scheme/hotel_scheme_6.png"" class=""exp-image"">
                    <div class=""question-area"">
                        <p style=""font-size: 20px; font-weight: bold; margin: 0;"">Is there a person in this image?</p>
                    </div>
                </div>","0","main_experiment_trial","6","hotel_scheme","schematic_sequence","","","","",""
"","","","","","html-keyboard-response","50","172188","0.0-50.0","E8454A56D9AC4EA0ABBBFB0320FBD547","019cf799-5a50-7527-bc38-c5463e9e10e4","019cf78c-cfcf-769c-9016-9b96552b5e33","","null","
                <div class=""stimulus-container"">
                    <img src=""images/schematic_sequence/hotel_scheme/hotel_scheme_7.png"" class=""exp-image"">
                    <div class=""question-area""></div> 
                </div>","null","","","","","","","","",""
"","","","","","html-button-response","51","172743","0.0-51.0","E8454A56D9AC4EA0ABBBFB0320FBD547","019cf799-5a50-7527-bc38-c5463e9e10e4","019cf78c-cfcf-769c-9016-9b96552b5e33","","553","
                <div class=""stimulus-container"">
                    <img src=""images/schematic_sequence/hotel_scheme/hotel_scheme_7.png"" class=""exp-image"">
                    <div class=""question-area"">
                        <p style=""font-size: 20px; font-weight: bold; margin: 0;"">Is there a person in this image?</p>
                    </div>
                </div>","0","main_experiment_trial","7","hotel_scheme","schematic_sequence","","","","",""
"","","","","","html-keyboard-response","52","177753","0.0-52.0","E8454A56D9AC4EA0ABBBFB0320FBD547","019cf799-5a50-7527-bc38-c5463e9e10e4","019cf78c-cfcf-769c-9016-9b96552b5e33","","null","
                <div class=""stimulus-container"">
                    <img src=""images/schematic_sequence/hotel_scheme/hotel_scheme_8.png"" class=""exp-image"">
                    <div class=""question-area""></div> 
                </div>","null","","","","","","","","",""
"","","","","","html-button-response","53","178288","0.0-53.0","E8454A56D9AC4EA0ABBBFB0320FBD547","019cf799-5a50-7527-bc38-c5463e9e10e4","019cf78c-cfcf-769c-9016-9b96552b5e33","","533","
                <div class=""stimulus-container"">
                    <img src=""images/schematic_sequence/hotel_scheme/hotel_scheme_8.png"" class=""exp-image"">
                    <div class=""question-area"">
                        <p style=""font-size: 20px; font-weight: bold; margin: 0;"">Is there a person in this image?</p>
                    </div>
                </div>","0","main_experiment_trial","8","hotel_scheme","schematic_sequence","","","","",""
"","","","","","html-keyboard-response","54","183294","0.0-54.0","E8454A56D9AC4EA0ABBBFB0320FBD547","019cf799-5a50-7527-bc38-c5463e9e10e4","019cf78c-cfcf-769c-9016-9b96552b5e33","","null","
                <div class=""stimulus-container"">
                    <img src=""images/schematic_sequence/hotel_scheme/hotel_scheme_9.png"" class=""exp-image"">
                    <div class=""question-area""></div> 
                </div>","null","","","","","","","","",""
"","","","","","html-button-response","55","184088","0.0-55.0","E8454A56D9AC4EA0ABBBFB0320FBD547","019cf799-5a50-7527-bc38-c5463e9e10e4","019cf78c-cfcf-769c-9016-9b96552b5e33","","791","
                <div class=""stimulus-container"">
                    <img src=""images/schematic_sequence/hotel_scheme/hotel_scheme_9.png"" class=""exp-image"">
                    <div class=""question-area"">
                        <p style=""font-size: 20px; font-weight: bold; margin: 0;"">Is there a person in this image?</p>
                    </div>
                </div>","0","main_experiment_trial","9","hotel_scheme","schematic_sequence","","","","",""
"","","","","","html-keyboard-response","56","189093","0.0-56.0","E8454A56D9AC4EA0ABBBFB0320FBD547","019cf799-5a50-7527-bc38-c5463e9e10e4","019cf78c-cfcf-769c-9016-9b96552b5e33","","null","
                <div class=""stimulus-container"">
                    <img src=""images/schematic_sequence/hotel_scheme/hotel_scheme_ten.png"" class=""exp-image"">
                    <div class=""question-area""></div> 
                </div>","null","","","","","","","","",""
"","","","","","html-button-response","57","189906","0.0-57.0","E8454A56D9AC4EA0ABBBFB0320FBD547","019cf799-5a50-7527-bc38-c5463e9e10e4","019cf78c-cfcf-769c-9016-9b96552b5e33","","810","
                <div class=""stimulus-container"">
                    <img src=""images/schematic_sequence/hotel_scheme/hotel_scheme_ten.png"" class=""exp-image"">
                    <div class=""question-area"">
                        <p style=""font-size: 20px; font-weight: bold; margin: 0;"">Is there a person in this image?</p>
                    </div>
                </div>","0","main_experiment_trial","ten","hotel_scheme","schematic_sequence","","","","",""
"","","","","","html-keyboard-response","58","190910","0.0-58.0","E8454A56D9AC4EA0ABBBFB0320FBD547","019cf799-5a50-7527-bc38-c5463e9e10e4","019cf78c-cfcf-769c-9016-9b96552b5e33","","null","<div style=""background-color: white; width: 100vw; height: 100vh;""></div>","null","","","","","","","","",""
"","","","","","html-keyboard-response","59","195923","0.0-59.0","E8454A56D9AC4EA0ABBBFB0320FBD547","019cf799-5a50-7527-bc38-c5463e9e10e4","019cf78c-cfcf-769c-9016-9b96552b5e33","","null","
                <div class=""stimulus-container"">
                    <img src=""images/schematic_sequence/interview_scheme/interview_scheme_1.png"" class=""exp-image"">
                    <div class=""question-area""></div> 
                </div>","null","","","","","","","","",""
"","","","","","html-button-response","60","196986","0.0-60.0","E8454A56D9AC4EA0ABBBFB0320FBD547","019cf799-5a50-7527-bc38-c5463e9e10e4","019cf78c-cfcf-769c-9016-9b96552b5e33","","1060","
                <div class=""stimulus-container"">
                    <img src=""images/schematic_sequence/interview_scheme/interview_scheme_1.png"" class=""exp-image"">
                    <div class=""question-area"">
                        <p style=""font-size: 20px; font-weight: bold; margin: 0;"">Is there a person in this image?</p>
                    </div>
                </div>","1","main_experiment_trial","1","interview_scheme","schematic_sequence","","","","",""
"","","","","","html-keyboard-response","61","202004","0.0-61.0","E8454A56D9AC4EA0ABBBFB0320FBD547","019cf799-5a50-7527-bc38-c5463e9e10e4","019cf78c-cfcf-769c-9016-9b96552b5e33","","null","
                <div class=""stimulus-container"">
                    <img src=""images/schematic_sequence/interview_scheme/interview_scheme_2.png"" class=""exp-image"">
                    <div class=""question-area""></div> 
                </div>","null","","","","","","","","",""
"","","","","","html-button-response","62","202530","0.0-62.0","E8454A56D9AC4EA0ABBBFB0320FBD547","019cf799-5a50-7527-bc38-c5463e9e10e4","019cf78c-cfcf-769c-9016-9b96552b5e33","","524","
                <div class=""stimulus-container"">
                    <img src=""images/schematic_sequence/interview_scheme/interview_scheme_2.png"" class=""exp-image"">
                    <div class=""question-area"">
                        <p style=""font-size: 20px; font-weight: bold; margin: 0;"">Is there a person in this image?</p>
                    </div>
                </div>","1","main_experiment_trial","2","interview_scheme","schematic_sequence","","","","",""
"","","","","","html-keyboard-response","63","207546","0.0-63.0","E8454A56D9AC4EA0ABBBFB0320FBD547","019cf799-5a50-7527-bc38-c5463e9e10e4","019cf78c-cfcf-769c-9016-9b96552b5e33","","null","
                <div class=""stimulus-container"">
                    <img src=""images/schematic_sequence/interview_scheme/interview_scheme_3.png"" class=""exp-image"">
                    <div class=""question-area""></div> 
                </div>","null","","","","","","","","",""
"","","","","","html-button-response","64","208050","0.0-64.0","E8454A56D9AC4EA0ABBBFB0320FBD547","019cf799-5a50-7527-bc38-c5463e9e10e4","019cf78c-cfcf-769c-9016-9b96552b5e33","","501","
                <div class=""stimulus-container"">
                    <img src=""images/schematic_sequence/interview_scheme/interview_scheme_3.png"" class=""exp-image"">
                    <div class=""question-area"">
                        <p style=""font-size: 20px; font-weight: bold; margin: 0;"">Is there a person in this image?</p>
                    </div>
                </div>","1","main_experiment_trial","3","interview_scheme","schematic_sequence","","","","",""
"","","","","","html-keyboard-response","65","213065","0.0-65.0","E8454A56D9AC4EA0ABBBFB0320FBD547","019cf799-5a50-7527-bc38-c5463e9e10e4","019cf78c-cfcf-769c-9016-9b96552b5e33","","null","
                <div class=""stimulus-container"">
                    <img src=""images/schematic_sequence/interview_scheme/interview_scheme_4.png"" class=""exp-image"">
                    <div class=""question-area""></div> 
                </div>","null","","","","","","","","",""
"","","","","","html-button-response","66","213594","0.0-66.0","E8454A56D9AC4EA0ABBBFB0320FBD547","019cf799-5a50-7527-bc38-c5463e9e10e4","019cf78c-cfcf-769c-9016-9b96552b5e33","","527","
                <div class=""stimulus-container"">
                    <img src=""images/schematic_sequence/interview_scheme/interview_scheme_4.png"" class=""exp-image"">
                    <div class=""question-area"">
                        <p style=""font-size: 20px; font-weight: bold; margin: 0;"">Is there a person in this image?</p>
                    </div>
                </div>","1","main_experiment_trial","4","interview_scheme","schematic_sequence","","","","",""
"","","","","","html-keyboard-response","67","218605","0.0-67.0","E8454A56D9AC4EA0ABBBFB0320FBD547","019cf799-5a50-7527-bc38-c5463e9e10e4","019cf78c-cfcf-769c-9016-9b96552b5e33","","null","
                <div class=""stimulus-container"">
                    <img src=""images/schematic_sequence/interview_scheme/interview_scheme_5.png"" class=""exp-image"">
                    <div class=""question-area""></div> 
                </div>","null","","","","","","","","",""
"","","","","","html-button-response","68","219796","0.0-68.0","E8454A56D9AC4EA0ABBBFB0320FBD547","019cf799-5a50-7527-bc38-c5463e9e10e4","019cf78c-cfcf-769c-9016-9b96552b5e33","","1190","
                <div class=""stimulus-container"">
                    <img src=""images/schematic_sequence/interview_scheme/interview_scheme_5.png"" class=""exp-image"">
                    <div class=""question-area"">
                        <p style=""font-size: 20px; font-weight: bold; margin: 0;"">Is there a person in this image?</p>
                    </div>
                </div>","0","main_experiment_trial","5","interview_scheme","schematic_sequence","","","","",""
"","","","","","html-keyboard-response","69","224798","0.0-69.0","E8454A56D9AC4EA0ABBBFB0320FBD547","019cf799-5a50-7527-bc38-c5463e9e10e4","019cf78c-cfcf-769c-9016-9b96552b5e33","","null","
                <div class=""stimulus-container"">
                    <img src=""images/schematic_sequence/interview_scheme/interview_scheme_6.png"" class=""exp-image"">
                    <div class=""question-area""></div> 
                </div>","null","","","","","","","","",""
"","","","","","html-button-response","70","225394","0.0-70.0","E8454A56D9AC4EA0ABBBFB0320FBD547","019cf799-5a50-7527-bc38-c5463e9e10e4","019cf78c-cfcf-769c-9016-9b96552b5e33","","595","
                <div class=""stimulus-container"">
                    <img src=""images/schematic_sequence/interview_scheme/interview_scheme_6.png"" class=""exp-image"">
                    <div class=""question-area"">
                        <p style=""font-size: 20px; font-weight: bold; margin: 0;"">Is there a person in this image?</p>
                    </div>
                </div>","0","main_experiment_trial","6","interview_scheme","schematic_sequence","","","","",""
"","","","","","html-keyboard-response","71","230403","0.0-71.0","E8454A56D9AC4EA0ABBBFB0320FBD547","019cf799-5a50-7527-bc38-c5463e9e10e4","019cf78c-cfcf-769c-9016-9b96552b5e33","","null","
                <div class=""stimulus-container"">
                    <img src=""images/schematic_sequence/interview_scheme/interview_scheme_7.png"" class=""exp-image"">
                    <div class=""question-area""></div> 
                </div>","null","","","","","","","","",""
"","","","","","html-button-response","72","230890","0.0-72.0","E8454A56D9AC4EA0ABBBFB0320FBD547","019cf799-5a50-7527-bc38-c5463e9e10e4","019cf78c-cfcf-769c-9016-9b96552b5e33","","484","
                <div class=""stimulus-container"">
                    <img src=""images/schematic_sequence/interview_scheme/interview_scheme_7.png"" class=""exp-image"">
                    <div class=""question-area"">
                        <p style=""font-size: 20px; font-weight: bold; margin: 0;"">Is there a person in this image?</p>
                    </div>
                </div>","0","main_experiment_trial","7","interview_scheme","schematic_sequence","","","","",""
"","","","","","html-keyboard-response","73","235893","0.0-73.0","E8454A56D9AC4EA0ABBBFB0320FBD547","019cf799-5a50-7527-bc38-c5463e9e10e4","019cf78c-cfcf-769c-9016-9b96552b5e33","","null","
                <div class=""stimulus-container"">
                    <img src=""images/schematic_sequence/interview_scheme/interview_scheme_8.png"" class=""exp-image"">
                    <div class=""question-area""></div> 
                </div>","null","","","","","","","","",""
"","","","","","html-button-response","74","237010","0.0-74.0","E8454A56D9AC4EA0ABBBFB0320FBD547","019cf799-5a50-7527-bc38-c5463e9e10e4","019cf78c-cfcf-769c-9016-9b96552b5e33","","1115","
                <div class=""stimulus-container"">
                    <img src=""images/schematic_sequence/interview_scheme/interview_scheme_8.png"" class=""exp-image"">
                    <div class=""question-area"">
                        <p style=""font-size: 20px; font-weight: bold; margin: 0;"">Is there a person in this image?</p>
                    </div>
                </div>","0","main_experiment_trial","8","interview_scheme","schematic_sequence","","","","",""
"","","","","","html-keyboard-response","75","242020","0.0-75.0","E8454A56D9AC4EA0ABBBFB0320FBD547","019cf799-5a50-7527-bc38-c5463e9e10e4","019cf78c-cfcf-769c-9016-9b96552b5e33","","null","
                <div class=""stimulus-container"">
                    <img src=""images/schematic_sequence/interview_scheme/interview_scheme_9.png"" class=""exp-image"">
                    <div class=""question-area""></div> 
                </div>","null","","","","","","","","",""
"","","","","","html-button-response","76","242610","0.0-76.0","E8454A56D9AC4EA0ABBBFB0320FBD547","019cf799-5a50-7527-bc38-c5463e9e10e4","019cf78c-cfcf-769c-9016-9b96552b5e33","","587","
                <div class=""stimulus-container"">
                    <img src=""images/schematic_sequence/interview_scheme/interview_scheme_9.png"" class=""exp-image"">
                    <div class=""question-area"">
                        <p style=""font-size: 20px; font-weight: bold; margin: 0;"">Is there a person in this image?</p>
                    </div>
                </div>","0","main_experiment_trial","9","interview_scheme","schematic_sequence","","","","",""
"","","","","","html-keyboard-response","77","247625","0.0-77.0","E8454A56D9AC4EA0ABBBFB0320FBD547","019cf799-5a50-7527-bc38-c5463e9e10e4","019cf78c-cfcf-769c-9016-9b96552b5e33","","null","
                <div class=""stimulus-container"">
                    <img src=""images/schematic_sequence/interview_scheme/interview_scheme_ten.png"" class=""exp-image"">
                    <div class=""question-area""></div> 
                </div>","null","","","","","","","","",""
"","","","","","html-button-response","78","248107","0.0-78.0","E8454A56D9AC4EA0ABBBFB0320FBD547","019cf799-5a50-7527-bc38-c5463e9e10e4","019cf78c-cfcf-769c-9016-9b96552b5e33","","480","
                <div class=""stimulus-container"">
                    <img src=""images/schematic_sequence/interview_scheme/interview_scheme_ten.png"" class=""exp-image"">
                    <div class=""question-area"">
                        <p style=""font-size: 20px; font-weight: bold; margin: 0;"">Is there a person in this image?</p>
                    </div>
                </div>","0","main_experiment_trial","ten","interview_scheme","schematic_sequence","","","","",""
"","","","","","html-keyboard-response","79","249116","0.0-79.0","E8454A56D9AC4EA0ABBBFB0320FBD547","019cf799-5a50-7527-bc38-c5463e9e10e4","019cf78c-cfcf-769c-9016-9b96552b5e33","","null","<div style=""background-color: white; width: 100vw; height: 100vh;""></div>","null","","","","","","","","",""
"","","","","","html-keyboard-response","80","254133","0.0-80.0","E8454A56D9AC4EA0ABBBFB0320FBD547","019cf799-5a50-7527-bc38-c5463e9e10e4","019cf78c-cfcf-769c-9016-9b96552b5e33","","null","
                <div class=""stimulus-container"">
                    <img src=""images/semantic_sequence/exploring_nature_semantic/exploring_nature_semantic_1.png"" class=""exp-image"">
                    <div class=""question-area""></div> 
                </div>","null","","","","","","","","",""
"","","","","","html-button-response","81","254923","0.0-81.0","E8454A56D9AC4EA0ABBBFB0320FBD547","019cf799-5a50-7527-bc38-c5463e9e10e4","019cf78c-cfcf-769c-9016-9b96552b5e33","","788","
                <div class=""stimulus-container"">
                    <img src=""images/semantic_sequence/exploring_nature_semantic/exploring_nature_semantic_1.png"" class=""exp-image"">
                    <div class=""question-area"">
                        <p style=""font-size: 20px; font-weight: bold; margin: 0;"">Is there a person in this image?</p>
                    </div>
                </div>","0","main_experiment_trial","1","exploring_nature_semantic","semantic_sequence","","","","",""
"","","","","","html-keyboard-response","82","259937","0.0-82.0","E8454A56D9AC4EA0ABBBFB0320FBD547","019cf799-5a50-7527-bc38-c5463e9e10e4","019cf78c-cfcf-769c-9016-9b96552b5e33","","null","
                <div class=""stimulus-container"">
                    <img src=""images/semantic_sequence/exploring_nature_semantic/exploring_nature_semantic_2.png"" class=""exp-image"">
                    <div class=""question-area""></div> 
                </div>","null","","","","","","","","",""
"","","","","","html-button-response","83","260627","0.0-83.0","E8454A56D9AC4EA0ABBBFB0320FBD547","019cf799-5a50-7527-bc38-c5463e9e10e4","019cf78c-cfcf-769c-9016-9b96552b5e33","","688","
                <div class=""stimulus-container"">
                    <img src=""images/semantic_sequence/exploring_nature_semantic/exploring_nature_semantic_2.png"" class=""exp-image"">
                    <div class=""question-area"">
                        <p style=""font-size: 20px; font-weight: bold; margin: 0;"">Is there a person in this image?</p>
                    </div>
                </div>","0","main_experiment_trial","2","exploring_nature_semantic","semantic_sequence","","","","",""
"","","","","","html-keyboard-response","84","265639","0.0-84.0","E8454A56D9AC4EA0ABBBFB0320FBD547","019cf799-5a50-7527-bc38-c5463e9e10e4","019cf78c-cfcf-769c-9016-9b96552b5e33","","null","
                <div class=""stimulus-container"">
                    <img src=""images/semantic_sequence/exploring_nature_semantic/exploring_nature_semantic_3.png"" class=""exp-image"">
                    <div class=""question-area""></div> 
                </div>","null","","","","","","","","",""
"","","","","","html-button-response","85","266212","0.0-85.0","E8454A56D9AC4EA0ABBBFB0320FBD547","019cf799-5a50-7527-bc38-c5463e9e10e4","019cf78c-cfcf-769c-9016-9b96552b5e33","","570","
                <div class=""stimulus-container"">
                    <img src=""images/semantic_sequence/exploring_nature_semantic/exploring_nature_semantic_3.png"" class=""exp-image"">
                    <div class=""question-area"">
                        <p style=""font-size: 20px; font-weight: bold; margin: 0;"">Is there a person in this image?</p>
                    </div>
                </div>","0","main_experiment_trial","3","exploring_nature_semantic","semantic_sequence","","","","",""
"","","","","","html-keyboard-response","86","271229","0.0-86.0","E8454A56D9AC4EA0ABBBFB0320FBD547","019cf799-5a50-7527-bc38-c5463e9e10e4","019cf78c-cfcf-769c-9016-9b96552b5e33","","null","
                <div class=""stimulus-container"">
                    <img src=""images/semantic_sequence/exploring_nature_semantic/exploring_nature_semantic_4.png"" class=""exp-image"">
                    <div class=""question-area""></div> 
                </div>","null","","","","","","","","",""
"","","","","","html-button-response","87","271836","0.0-87.0","E8454A56D9AC4EA0ABBBFB0320FBD547","019cf799-5a50-7527-bc38-c5463e9e10e4","019cf78c-cfcf-769c-9016-9b96552b5e33","","604","
                <div class=""stimulus-container"">
                    <img src=""images/semantic_sequence/exploring_nature_semantic/exploring_nature_semantic_4.png"" class=""exp-image"">
                    <div class=""question-area"">
                        <p style=""font-size: 20px; font-weight: bold; margin: 0;"">Is there a person in this image?</p>
                    </div>
                </div>","0","main_experiment_trial","4","exploring_nature_semantic","semantic_sequence","","","","",""
"","","","","","html-keyboard-response","88","276846","0.0-88.0","E8454A56D9AC4EA0ABBBFB0320FBD547","019cf799-5a50-7527-bc38-c5463e9e10e4","019cf78c-cfcf-769c-9016-9b96552b5e33","","null","
                <div class=""stimulus-container"">
                    <img src=""images/semantic_sequence/exploring_nature_semantic/exploring_nature_semantic_5.png"" class=""exp-image"">
                    <div class=""question-area""></div> 
                </div>","null","","","","","","","","",""
"","","","","","html-button-response","89","277355","0.0-89.0","E8454A56D9AC4EA0ABBBFB0320FBD547","019cf799-5a50-7527-bc38-c5463e9e10e4","019cf78c-cfcf-769c-9016-9b96552b5e33","","507","
                <div class=""stimulus-container"">
                    <img src=""images/semantic_sequence/exploring_nature_semantic/exploring_nature_semantic_5.png"" class=""exp-image"">
                    <div class=""question-area"">
                        <p style=""font-size: 20px; font-weight: bold; margin: 0;"">Is there a person in this image?</p>
                    </div>
                </div>","0","main_experiment_trial","5","exploring_nature_semantic","semantic_sequence","","","","",""
"","","","","","html-keyboard-response","90","282369","0.0-90.0","E8454A56D9AC4EA0ABBBFB0320FBD547","019cf799-5a50-7527-bc38-c5463e9e10e4","019cf78c-cfcf-769c-9016-9b96552b5e33","","null","
                <div class=""stimulus-container"">
                    <img src=""images/semantic_sequence/exploring_nature_semantic/exploring_nature_semantic_6.png"" class=""exp-image"">
                    <div class=""question-area""></div> 
                </div>","null","","","","","","","","",""
"","","","","","html-button-response","91","283315","0.0-91.0","E8454A56D9AC4EA0ABBBFB0320FBD547","019cf799-5a50-7527-bc38-c5463e9e10e4","019cf78c-cfcf-769c-9016-9b96552b5e33","","944","
                <div class=""stimulus-container"">
                    <img src=""images/semantic_sequence/exploring_nature_semantic/exploring_nature_semantic_6.png"" class=""exp-image"">
                    <div class=""question-area"">
                        <p style=""font-size: 20px; font-weight: bold; margin: 0;"">Is there a person in this image?</p>
                    </div>
                </div>","0","main_experiment_trial","6","exploring_nature_semantic","semantic_sequence","","","","",""
"","","","","","html-keyboard-response","92","288332","0.0-92.0","E8454A56D9AC4EA0ABBBFB0320FBD547","019cf799-5a50-7527-bc38-c5463e9e10e4","019cf78c-cfcf-769c-9016-9b96552b5e33","","null","
                <div class=""stimulus-container"">
                    <img src=""images/semantic_sequence/exploring_nature_semantic/exploring_nature_semantic_7.png"" class=""exp-image"">
                    <div class=""question-area""></div> 
                </div>","null","","","","","","","","",""
"","","","","","html-button-response","93","289164","0.0-93.0","E8454A56D9AC4EA0ABBBFB0320FBD547","019cf799-5a50-7527-bc38-c5463e9e10e4","019cf78c-cfcf-769c-9016-9b96552b5e33","","828","
                <div class=""stimulus-container"">
                    <img src=""images/semantic_sequence/exploring_nature_semantic/exploring_nature_semantic_7.png"" class=""exp-image"">
                    <div class=""question-area"">
                        <p style=""font-size: 20px; font-weight: bold; margin: 0;"">Is there a person in this image?</p>
                    </div>
                </div>","0","main_experiment_trial","7","exploring_nature_semantic","semantic_sequence","","","","",""
"","","","","","html-keyboard-response","94","294177","0.0-94.0","E8454A56D9AC4EA0ABBBFB0320FBD547","019cf799-5a50-7527-bc38-c5463e9e10e4","019cf78c-cfcf-769c-9016-9b96552b5e33","","null","
                <div class=""stimulus-container"">
                    <img src=""images/semantic_sequence/exploring_nature_semantic/exploring_nature_semantic_8.png"" class=""exp-image"">
                    <div class=""question-area""></div> 
                </div>","null","","","","","","","","",""
"","","","","","html-button-response","95","294731","0.0-95.0","E8454A56D9AC4EA0ABBBFB0320FBD547","019cf799-5a50-7527-bc38-c5463e9e10e4","019cf78c-cfcf-769c-9016-9b96552b5e33","","552","
                <div class=""stimulus-container"">
                    <img src=""images/semantic_sequence/exploring_nature_semantic/exploring_nature_semantic_8.png"" class=""exp-image"">
                    <div class=""question-area"">
                        <p style=""font-size: 20px; font-weight: bold; margin: 0;"">Is there a person in this image?</p>
                    </div>
                </div>","0","main_experiment_trial","8","exploring_nature_semantic","semantic_sequence","","","","",""
"","","","","","html-keyboard-response","96","299749","0.0-96.0","E8454A56D9AC4EA0ABBBFB0320FBD547","019cf799-5a50-7527-bc38-c5463e9e10e4","019cf78c-cfcf-769c-9016-9b96552b5e33","","null","
                <div class=""stimulus-container"">
                    <img src=""images/semantic_sequence/exploring_nature_semantic/exploring_nature_semantic_9.png"" class=""exp-image"">
                    <div class=""question-area""></div> 
                </div>","null","","","","","","","","",""
"","","","","","html-button-response","97","300515","0.0-97.0","E8454A56D9AC4EA0ABBBFB0320FBD547","019cf799-5a50-7527-bc38-c5463e9e10e4","019cf78c-cfcf-769c-9016-9b96552b5e33","","763","
                <div class=""stimulus-container"">
                    <img src=""images/semantic_sequence/exploring_nature_semantic/exploring_nature_semantic_9.png"" class=""exp-image"">
                    <div class=""question-area"">
                        <p style=""font-size: 20px; font-weight: bold; margin: 0;"">Is there a person in this image?</p>
                    </div>
                </div>","0","main_experiment_trial","9","exploring_nature_semantic","semantic_sequence","","","","",""
"","","","","","html-keyboard-response","98","305527","0.0-98.0","E8454A56D9AC4EA0ABBBFB0320FBD547","019cf799-5a50-7527-bc38-c5463e9e10e4","019cf78c-cfcf-769c-9016-9b96552b5e33","","null","
                <div class=""stimulus-container"">
                    <img src=""images/semantic_sequence/exploring_nature_semantic/exploring_nature_semantic_ten.png"" class=""exp-image"">
                    <div class=""question-area""></div> 
                </div>","null","","","","","","","","",""
"","","","","","html-button-response","99","306148","0.0-99.0","E8454A56D9AC4EA0ABBBFB0320FBD547","019cf799-5a50-7527-bc38-c5463e9e10e4","019cf78c-cfcf-769c-9016-9b96552b5e33","","618","
                <div class=""stimulus-container"">
                    <img src=""images/semantic_sequence/exploring_nature_semantic/exploring_nature_semantic_ten.png"" class=""exp-image"">
                    <div class=""question-area"">
                        <p style=""font-size: 20px; font-weight: bold; margin: 0;"">Is there a person in this image?</p>
                    </div>
                </div>","0","main_experiment_trial","ten","exploring_nature_semantic","semantic_sequence","","","","",""
"","","","","","html-keyboard-response","100","307166","0.0-100.0","E8454A56D9AC4EA0ABBBFB0320FBD547","019cf799-5a50-7527-bc38-c5463e9e10e4","019cf78c-cfcf-769c-9016-9b96552b5e33","","null","<div style=""background-color: white; width: 100vw; height: 100vh;""></div>","null","","","","","","","","",""
"","","","","","html-keyboard-response","101","312180","0.0-101.0","E8454A56D9AC4EA0ABBBFB0320FBD547","019cf799-5a50-7527-bc38-c5463e9e10e4","019cf78c-cfcf-769c-9016-9b96552b5e33","","null","
                <div class=""stimulus-container"">
                    <img src=""images/schematic_sequence/flight_scheme/flight_scheme_1.png"" class=""exp-image"">
                    <div class=""question-area""></div> 
                </div>","null","","","","","","","","",""
"","","","","","html-button-response","102","313100","0.0-102.0","E8454A56D9AC4EA0ABBBFB0320FBD547","019cf799-5a50-7527-bc38-c5463e9e10e4","019cf78c-cfcf-769c-9016-9b96552b5e33","","918","
                <div class=""stimulus-container"">
                    <img src=""images/schematic_sequence/flight_scheme/flight_scheme_1.png"" class=""exp-image"">
                    <div class=""question-area"">
                        <p style=""font-size: 20px; font-weight: bold; margin: 0;"">Is there a person in this image?</p>
                    </div>
                </div>","1","main_experiment_trial","1","flight_scheme","schematic_sequence","","","","",""
"","","","","","html-keyboard-response","103","318102","0.0-103.0","E8454A56D9AC4EA0ABBBFB0320FBD547","019cf799-5a50-7527-bc38-c5463e9e10e4","019cf78c-cfcf-769c-9016-9b96552b5e33","","null","
                <div class=""stimulus-container"">
                    <img src=""images/schematic_sequence/flight_scheme/flight_scheme_2.png"" class=""exp-image"">
                    <div class=""question-area""></div> 
                </div>","null","","","","","","","","",""
"","","","","","html-button-response","104","318814","0.0-104.0","E8454A56D9AC4EA0ABBBFB0320FBD547","019cf799-5a50-7527-bc38-c5463e9e10e4","019cf78c-cfcf-769c-9016-9b96552b5e33","","710","
                <div class=""stimulus-container"">
                    <img src=""images/schematic_sequence/flight_scheme/flight_scheme_2.png"" class=""exp-image"">
                    <div class=""question-area"">
                        <p style=""font-size: 20px; font-weight: bold; margin: 0;"">Is there a person in this image?</p>
                    </div>
                </div>","1","main_experiment_trial","2","flight_scheme","schematic_sequence","","","","",""
"","","","","","html-keyboard-response","105","323830","0.0-105.0","E8454A56D9AC4EA0ABBBFB0320FBD547","019cf799-5a50-7527-bc38-c5463e9e10e4","019cf78c-cfcf-769c-9016-9b96552b5e33","","null","
                <div class=""stimulus-container"">
                    <img src=""images/schematic_sequence/flight_scheme/flight_scheme_3.png"" class=""exp-image"">
                    <div class=""question-area""></div> 
                </div>","null","","","","","","","","",""
"","","","","","html-button-response","106","324830","0.0-106.0","E8454A56D9AC4EA0ABBBFB0320FBD547","019cf799-5a50-7527-bc38-c5463e9e10e4","019cf78c-cfcf-769c-9016-9b96552b5e33","","997","
                <div class=""stimulus-container"">
                    <img src=""images/schematic_sequence/flight_scheme/flight_scheme_3.png"" class=""exp-image"">
                    <div class=""question-area"">
                        <p style=""font-size: 20px; font-weight: bold; margin: 0;"">Is there a person in this image?</p>
                    </div>
                </div>","0","main_experiment_trial","3","flight_scheme","schematic_sequence","","","","",""
"","","","","","html-keyboard-response","107","329838","0.0-107.0","E8454A56D9AC4EA0ABBBFB0320FBD547","019cf799-5a50-7527-bc38-c5463e9e10e4","019cf78c-cfcf-769c-9016-9b96552b5e33","","null","
                <div class=""stimulus-container"">
                    <img src=""images/schematic_sequence/flight_scheme/flight_scheme_4.png"" class=""exp-image"">
                    <div class=""question-area""></div> 
                </div>","null","","","","","","","","",""
"","","","","","html-button-response","108","330533","0.0-108.0","E8454A56D9AC4EA0ABBBFB0320FBD547","019cf799-5a50-7527-bc38-c5463e9e10e4","019cf78c-cfcf-769c-9016-9b96552b5e33","","692","
                <div class=""stimulus-container"">
                    <img src=""images/schematic_sequence/flight_scheme/flight_scheme_4.png"" class=""exp-image"">
                    <div class=""question-area"">
                        <p style=""font-size: 20px; font-weight: bold; margin: 0;"">Is there a person in this image?</p>
                    </div>
                </div>","0","main_experiment_trial","4","flight_scheme","schematic_sequence","","","","",""
"","","","","","html-keyboard-response","109","335542","0.0-109.0","E8454A56D9AC4EA0ABBBFB0320FBD547","019cf799-5a50-7527-bc38-c5463e9e10e4","019cf78c-cfcf-769c-9016-9b96552b5e33","","null","
                <div class=""stimulus-container"">
                    <img src=""images/schematic_sequence/flight_scheme/flight_scheme_5.png"" class=""exp-image"">
                    <div class=""question-area""></div> 
                </div>","null","","","","","","","","",""
"","","","","","html-button-response","110","336149","0.0-110.0","E8454A56D9AC4EA0ABBBFB0320FBD547","019cf799-5a50-7527-bc38-c5463e9e10e4","019cf78c-cfcf-769c-9016-9b96552b5e33","","605","
                <div class=""stimulus-container"">
                    <img src=""images/schematic_sequence/flight_scheme/flight_scheme_5.png"" class=""exp-image"">
                    <div class=""question-area"">
                        <p style=""font-size: 20px; font-weight: bold; margin: 0;"">Is there a person in this image?</p>
                    </div>
                </div>","0","main_experiment_trial","5","flight_scheme","schematic_sequence","","","","",""
"","","","","","html-keyboard-response","111","341161","0.0-111.0","E8454A56D9AC4EA0ABBBFB0320FBD547","019cf799-5a50-7527-bc38-c5463e9e10e4","019cf78c-cfcf-769c-9016-9b96552b5e33","","null","
                <div class=""stimulus-container"">
                    <img src=""images/schematic_sequence/flight_scheme/flight_scheme_6.png"" class=""exp-image"">
                    <div class=""question-area""></div> 
                </div>","null","","","","","","","","",""
"","","","","","html-button-response","112","342269","0.0-112.0","E8454A56D9AC4EA0ABBBFB0320FBD547","019cf799-5a50-7527-bc38-c5463e9e10e4","019cf78c-cfcf-769c-9016-9b96552b5e33","","1106","
                <div class=""stimulus-container"">
                    <img src=""images/schematic_sequence/flight_scheme/flight_scheme_6.png"" class=""exp-image"">
                    <div class=""question-area"">
                        <p style=""font-size: 20px; font-weight: bold; margin: 0;"">Is there a person in this image?</p>
                    </div>
                </div>","1","main_experiment_trial","6","flight_scheme","schematic_sequence","","","","",""
"","","","","","html-keyboard-response","113","347287","0.0-113.0","E8454A56D9AC4EA0ABBBFB0320FBD547","019cf799-5a50-7527-bc38-c5463e9e10e4","019cf78c-cfcf-769c-9016-9b96552b5e33","","null","
                <div class=""stimulus-container"">
                    <img src=""images/schematic_sequence/flight_scheme/flight_scheme_7.png"" class=""exp-image"">
                    <div class=""question-area""></div> 
                </div>","null","","","","","","","","",""
"","","","","","html-button-response","114","347925","0.0-114.0","E8454A56D9AC4EA0ABBBFB0320FBD547","019cf799-5a50-7527-bc38-c5463e9e10e4","019cf78c-cfcf-769c-9016-9b96552b5e33","","636","
                <div class=""stimulus-container"">
                    <img src=""images/schematic_sequence/flight_scheme/flight_scheme_7.png"" class=""exp-image"">
                    <div class=""question-area"">
                        <p style=""font-size: 20px; font-weight: bold; margin: 0;"">Is there a person in this image?</p>
                    </div>
                </div>","1","main_experiment_trial","7","flight_scheme","schematic_sequence","","","","",""
"","","","","","html-keyboard-response","115","352938","0.0-115.0","E8454A56D9AC4EA0ABBBFB0320FBD547","019cf799-5a50-7527-bc38-c5463e9e10e4","019cf78c-cfcf-769c-9016-9b96552b5e33","","null","
                <div class=""stimulus-container"">
                    <img src=""images/schematic_sequence/flight_scheme/flight_scheme_8.png"" class=""exp-image"">
                    <div class=""question-area""></div> 
                </div>","null","","","","","","","","",""
"","","","","","html-button-response","116","354213","0.0-116.0","E8454A56D9AC4EA0ABBBFB0320FBD547","019cf799-5a50-7527-bc38-c5463e9e10e4","019cf78c-cfcf-769c-9016-9b96552b5e33","","1273","
                <div class=""stimulus-container"">
                    <img src=""images/schematic_sequence/flight_scheme/flight_scheme_8.png"" class=""exp-image"">
                    <div class=""question-area"">
                        <p style=""font-size: 20px; font-weight: bold; margin: 0;"">Is there a person in this image?</p>
                    </div>
                </div>","1","main_experiment_trial","8","flight_scheme","schematic_sequence","","","","",""
"","","","","","html-keyboard-response","117","359221","0.0-117.0","E8454A56D9AC4EA0ABBBFB0320FBD547","019cf799-5a50-7527-bc38-c5463e9e10e4","019cf78c-cfcf-769c-9016-9b96552b5e33","","null","
                <div class=""stimulus-container"">
                    <img src=""images/schematic_sequence/flight_scheme/flight_scheme_9.png"" class=""exp-image"">
                    <div class=""question-area""></div> 
                </div>","null","","","","","","","","",""
"","","","","","html-button-response","118","360229","0.0-118.0","E8454A56D9AC4EA0ABBBFB0320FBD547","019cf799-5a50-7527-bc38-c5463e9e10e4","019cf78c-cfcf-769c-9016-9b96552b5e33","","1006","
                <div class=""stimulus-container"">
                    <img src=""images/schematic_sequence/flight_scheme/flight_scheme_9.png"" class=""exp-image"">
                    <div class=""question-area"">
                        <p style=""font-size: 20px; font-weight: bold; margin: 0;"">Is there a person in this image?</p>
                    </div>
                </div>","0","main_experiment_trial","9","flight_scheme","schematic_sequence","","","","",""
"","","","","","html-keyboard-response","119","365240","0.0-119.0","E8454A56D9AC4EA0ABBBFB0320FBD547","019cf799-5a50-7527-bc38-c5463e9e10e4","019cf78c-cfcf-769c-9016-9b96552b5e33","","null","
                <div class=""stimulus-container"">
                    <img src=""images/schematic_sequence/flight_scheme/flight_scheme_ten.png"" class=""exp-image"">
                    <div class=""question-area""></div> 
                </div>","null","","","","","","","","",""
"","","","","","html-button-response","120","365678","0.0-120.0","E8454A56D9AC4EA0ABBBFB0320FBD547","019cf799-5a50-7527-bc38-c5463e9e10e4","019cf78c-cfcf-769c-9016-9b96552b5e33","","436","
                <div class=""stimulus-container"">
                    <img src=""images/schematic_sequence/flight_scheme/flight_scheme_ten.png"" class=""exp-image"">
                    <div class=""question-area"">
                        <p style=""font-size: 20px; font-weight: bold; margin: 0;"">Is there a person in this image?</p>
                    </div>
                </div>","0","main_experiment_trial","ten","flight_scheme","schematic_sequence","","","","",""
"","","","","","html-keyboard-response","121","366685","0.0-121.0","E8454A56D9AC4EA0ABBBFB0320FBD547","019cf799-5a50-7527-bc38-c5463e9e10e4","019cf78c-cfcf-769c-9016-9b96552b5e33","","null","<div style=""background-color: white; width: 100vw; height: 100vh;""></div>","null","","","","","","","","",""
"","","","","","html-keyboard-response","122","371701","0.0-122.0","E8454A56D9AC4EA0ABBBFB0320FBD547","019cf799-5a50-7527-bc38-c5463e9e10e4","019cf78c-cfcf-769c-9016-9b96552b5e33","","null","
                <div class=""stimulus-container"">
                    <img src=""images/semantic_sequence/visiting_cities_semantic/visiting_cities_semantic_1.png"" class=""exp-image"">
                    <div class=""question-area""></div> 
                </div>","null","","","","","","","","",""
"","","","","","html-button-response","123","372583","0.0-123.0","E8454A56D9AC4EA0ABBBFB0320FBD547","019cf799-5a50-7527-bc38-c5463e9e10e4","019cf78c-cfcf-769c-9016-9b96552b5e33","","880","
                <div class=""stimulus-container"">
                    <img src=""images/semantic_sequence/visiting_cities_semantic/visiting_cities_semantic_1.png"" class=""exp-image"">
                    <div class=""question-area"">
                        <p style=""font-size: 20px; font-weight: bold; margin: 0;"">Is there a person in this image?</p>
                    </div>
                </div>","0","main_experiment_trial","1","visiting_cities_semantic","semantic_sequence","","","","",""
"","","","","","html-keyboard-response","124","377588","0.0-124.0","E8454A56D9AC4EA0ABBBFB0320FBD547","019cf799-5a50-7527-bc38-c5463e9e10e4","019cf78c-cfcf-769c-9016-9b96552b5e33","","null","
                <div class=""stimulus-container"">
                    <img src=""images/semantic_sequence/visiting_cities_semantic/visiting_cities_semantic_2.png"" class=""exp-image"">
                    <div class=""question-area""></div> 
                </div>","null","","","","","","","","",""
"","","","","","html-button-response","125","378887","0.0-125.0","E8454A56D9AC4EA0ABBBFB0320FBD547","019cf799-5a50-7527-bc38-c5463e9e10e4","019cf78c-cfcf-769c-9016-9b96552b5e33","","1296","
                <div class=""stimulus-container"">
                    <img src=""images/semantic_sequence/visiting_cities_semantic/visiting_cities_semantic_2.png"" class=""exp-image"">
                    <div class=""question-area"">
                        <p style=""font-size: 20px; font-weight: bold; margin: 0;"">Is there a person in this image?</p>
                    </div>
                </div>","1","main_experiment_trial","2","visiting_cities_semantic","semantic_sequence","","","","",""
"","","","","","html-keyboard-response","126","383889","0.0-126.0","E8454A56D9AC4EA0ABBBFB0320FBD547","019cf799-5a50-7527-bc38-c5463e9e10e4","019cf78c-cfcf-769c-9016-9b96552b5e33","","null","
                <div class=""stimulus-container"">
                    <img src=""images/semantic_sequence/visiting_cities_semantic/visiting_cities_semantic_3.png"" class=""exp-image"">
                    <div class=""question-area""></div> 
                </div>","null","","","","","","","","",""
"","","","","","html-button-response","127","384919","0.0-127.0","E8454A56D9AC4EA0ABBBFB0320FBD547","019cf799-5a50-7527-bc38-c5463e9e10e4","019cf78c-cfcf-769c-9016-9b96552b5e33","","1027","
                <div class=""stimulus-container"">
                    <img src=""images/semantic_sequence/visiting_cities_semantic/visiting_cities_semantic_3.png"" class=""exp-image"">
                    <div class=""question-area"">
                        <p style=""font-size: 20px; font-weight: bold; margin: 0;"">Is there a person in this image?</p>
                    </div>
                </div>","1","main_experiment_trial","3","visiting_cities_semantic","semantic_sequence","","","","",""
"","","","","","html-keyboard-response","128","389922","0.0-128.0","E8454A56D9AC4EA0ABBBFB0320FBD547","019cf799-5a50-7527-bc38-c5463e9e10e4","019cf78c-cfcf-769c-9016-9b96552b5e33","","null","
                <div class=""stimulus-container"">
                    <img src=""images/semantic_sequence/visiting_cities_semantic/visiting_cities_semantic_4.png"" class=""exp-image"">
                    <div class=""question-area""></div> 
                </div>","null","","","","","","","","",""
"","","","","","html-button-response","129","390477","0.0-129.0","E8454A56D9AC4EA0ABBBFB0320FBD547","019cf799-5a50-7527-bc38-c5463e9e10e4","019cf78c-cfcf-769c-9016-9b96552b5e33","","554","
                <div class=""stimulus-container"">
                    <img src=""images/semantic_sequence/visiting_cities_semantic/visiting_cities_semantic_4.png"" class=""exp-image"">
                    <div class=""question-area"">
                        <p style=""font-size: 20px; font-weight: bold; margin: 0;"">Is there a person in this image?</p>
                    </div>
                </div>","1","main_experiment_trial","4","visiting_cities_semantic","semantic_sequence","","","","",""
"","","","","","html-keyboard-response","130","395491","0.0-130.0","E8454A56D9AC4EA0ABBBFB0320FBD547","019cf799-5a50-7527-bc38-c5463e9e10e4","019cf78c-cfcf-769c-9016-9b96552b5e33","","null","
                <div class=""stimulus-container"">
                    <img src=""images/semantic_sequence/visiting_cities_semantic/visiting_cities_semantic_5.png"" class=""exp-image"">
                    <div class=""question-area""></div> 
                </div>","null","","","","","","","","",""
"","","","","","html-button-response","131","397071","0.0-131.0","E8454A56D9AC4EA0ABBBFB0320FBD547","019cf799-5a50-7527-bc38-c5463e9e10e4","019cf78c-cfcf-769c-9016-9b96552b5e33","","1579","
                <div class=""stimulus-container"">
                    <img src=""images/semantic_sequence/visiting_cities_semantic/visiting_cities_semantic_5.png"" class=""exp-image"">
                    <div class=""question-area"">
                        <p style=""font-size: 20px; font-weight: bold; margin: 0;"">Is there a person in this image?</p>
                    </div>
                </div>","1","main_experiment_trial","5","visiting_cities_semantic","semantic_sequence","","","","",""
"","","","","","html-keyboard-response","132","402081","0.0-132.0","E8454A56D9AC4EA0ABBBFB0320FBD547","019cf799-5a50-7527-bc38-c5463e9e10e4","019cf78c-cfcf-769c-9016-9b96552b5e33","","null","
                <div class=""stimulus-container"">
                    <img src=""images/semantic_sequence/visiting_cities_semantic/visiting_cities_semantic_6.png"" class=""exp-image"">
                    <div class=""question-area""></div> 
                </div>","null","","","","","","","","",""
"","","","","","html-button-response","133","403151","0.0-133.0","E8454A56D9AC4EA0ABBBFB0320FBD547","019cf799-5a50-7527-bc38-c5463e9e10e4","019cf78c-cfcf-769c-9016-9b96552b5e33","","1067","
                <div class=""stimulus-container"">
                    <img src=""images/semantic_sequence/visiting_cities_semantic/visiting_cities_semantic_6.png"" class=""exp-image"">
                    <div class=""question-area"">
                        <p style=""font-size: 20px; font-weight: bold; margin: 0;"">Is there a person in this image?</p>
                    </div>
                </div>","1","main_experiment_trial","6","visiting_cities_semantic","semantic_sequence","","","","",""
"","","","","","html-keyboard-response","134","408157","0.0-134.0","E8454A56D9AC4EA0ABBBFB0320FBD547","019cf799-5a50-7527-bc38-c5463e9e10e4","019cf78c-cfcf-769c-9016-9b96552b5e33","","null","
                <div class=""stimulus-container"">
                    <img src=""images/semantic_sequence/visiting_cities_semantic/visiting_cities_semantic_7.png"" class=""exp-image"">
                    <div class=""question-area""></div> 
                </div>","null","","","","","","","","",""
"","","","","","html-button-response","135","408815","0.0-135.0","E8454A56D9AC4EA0ABBBFB0320FBD547","019cf799-5a50-7527-bc38-c5463e9e10e4","019cf78c-cfcf-769c-9016-9b96552b5e33","","657","
                <div class=""stimulus-container"">
                    <img src=""images/semantic_sequence/visiting_cities_semantic/visiting_cities_semantic_7.png"" class=""exp-image"">
                    <div class=""question-area"">
                        <p style=""font-size: 20px; font-weight: bold; margin: 0;"">Is there a person in this image?</p>
                    </div>
                </div>","0","main_experiment_trial","7","visiting_cities_semantic","semantic_sequence","","","","",""
"","","","","","html-keyboard-response","136","413827","0.0-136.0","E8454A56D9AC4EA0ABBBFB0320FBD547","019cf799-5a50-7527-bc38-c5463e9e10e4","019cf78c-cfcf-769c-9016-9b96552b5e33","","null","
                <div class=""stimulus-container"">
                    <img src=""images/semantic_sequence/visiting_cities_semantic/visiting_cities_semantic_8.png"" class=""exp-image"">
                    <div class=""question-area""></div> 
                </div>","null","","","","","","","","",""
"","","","","","html-button-response","137","415231","0.0-137.0","E8454A56D9AC4EA0ABBBFB0320FBD547","019cf799-5a50-7527-bc38-c5463e9e10e4","019cf78c-cfcf-769c-9016-9b96552b5e33","","1402","
                <div class=""stimulus-container"">
                    <img src=""images/semantic_sequence/visiting_cities_semantic/visiting_cities_semantic_8.png"" class=""exp-image"">
                    <div class=""question-area"">
                        <p style=""font-size: 20px; font-weight: bold; margin: 0;"">Is there a person in this image?</p>
                    </div>
                </div>","0","main_experiment_trial","8","visiting_cities_semantic","semantic_sequence","","","","",""
"","","","","","html-keyboard-response","138","420238","0.0-138.0","E8454A56D9AC4EA0ABBBFB0320FBD547","019cf799-5a50-7527-bc38-c5463e9e10e4","019cf78c-cfcf-769c-9016-9b96552b5e33","","null","
                <div class=""stimulus-container"">
                    <img src=""images/semantic_sequence/visiting_cities_semantic/visiting_cities_semantic_9.png"" class=""exp-image"">
                    <div class=""question-area""></div> 
                </div>","null","","","","","","","","",""
"","","","","","html-button-response","139","421053","0.0-139.0","E8454A56D9AC4EA0ABBBFB0320FBD547","019cf799-5a50-7527-bc38-c5463e9e10e4","019cf78c-cfcf-769c-9016-9b96552b5e33","","814","
                <div class=""stimulus-container"">
                    <img src=""images/semantic_sequence/visiting_cities_semantic/visiting_cities_semantic_9.png"" class=""exp-image"">
                    <div class=""question-area"">
                        <p style=""font-size: 20px; font-weight: bold; margin: 0;"">Is there a person in this image?</p>
                    </div>
                </div>","0","main_experiment_trial","9","visiting_cities_semantic","semantic_sequence","","","","",""
"","","","","","html-keyboard-response","140","426064","0.0-140.0","E8454A56D9AC4EA0ABBBFB0320FBD547","019cf799-5a50-7527-bc38-c5463e9e10e4","019cf78c-cfcf-769c-9016-9b96552b5e33","","null","
                <div class=""stimulus-container"">
                    <img src=""images/semantic_sequence/visiting_cities_semantic/visiting_cities_semantic_ten.png"" class=""exp-image"">
                    <div class=""question-area""></div> 
                </div>","null","","","","","","","","",""
"","","","","","html-button-response","141","427055","0.0-141.0","E8454A56D9AC4EA0ABBBFB0320FBD547","019cf799-5a50-7527-bc38-c5463e9e10e4","019cf78c-cfcf-769c-9016-9b96552b5e33","","988","
                <div class=""stimulus-container"">
                    <img src=""images/semantic_sequence/visiting_cities_semantic/visiting_cities_semantic_ten.png"" class=""exp-image"">
                    <div class=""question-area"">
                        <p style=""font-size: 20px; font-weight: bold; margin: 0;"">Is there a person in this image?</p>
                    </div>
                </div>","0","main_experiment_trial","ten","visiting_cities_semantic","semantic_sequence","","","","",""
"","","","","","html-keyboard-response","142","428068","0.0-142.0","E8454A56D9AC4EA0ABBBFB0320FBD547","019cf799-5a50-7527-bc38-c5463e9e10e4","019cf78c-cfcf-769c-9016-9b96552b5e33","","null","<div style=""background-color: white; width: 100vw; height: 100vh;""></div>","null","","","","","","","","",""
"","","","","","html-keyboard-response","143","433076","0.0-143.0","E8454A56D9AC4EA0ABBBFB0320FBD547","019cf799-5a50-7527-bc38-c5463e9e10e4","019cf78c-cfcf-769c-9016-9b96552b5e33","","null","
                <div class=""stimulus-container"">
                    <img src=""images/schematic_sequence/supermarket_scheme/supermarket_scheme_1.png"" class=""exp-image"">
                    <div class=""question-area""></div> 
                </div>","null","","","","","","","","",""
"","","","","","html-button-response","144","433863","0.0-144.0","E8454A56D9AC4EA0ABBBFB0320FBD547","019cf799-5a50-7527-bc38-c5463e9e10e4","019cf78c-cfcf-769c-9016-9b96552b5e33","","786","
                <div class=""stimulus-container"">
                    <img src=""images/schematic_sequence/supermarket_scheme/supermarket_scheme_1.png"" class=""exp-image"">
                    <div class=""question-area"">
                        <p style=""font-size: 20px; font-weight: bold; margin: 0;"">Is there a person in this image?</p>
                    </div>
                </div>","1","main_experiment_trial","1","supermarket_scheme","schematic_sequence","","","","",""
"","","","","","html-keyboard-response","145","438874","0.0-145.0","E8454A56D9AC4EA0ABBBFB0320FBD547","019cf799-5a50-7527-bc38-c5463e9e10e4","019cf78c-cfcf-769c-9016-9b96552b5e33","","null","
                <div class=""stimulus-container"">
                    <img src=""images/schematic_sequence/supermarket_scheme/supermarket_scheme_2.png"" class=""exp-image"">
                    <div class=""question-area""></div> 
                </div>","null","","","","","","","","",""
"","","","","","html-button-response","146","439442","0.0-146.0","E8454A56D9AC4EA0ABBBFB0320FBD547","019cf799-5a50-7527-bc38-c5463e9e10e4","019cf78c-cfcf-769c-9016-9b96552b5e33","","566","
                <div class=""stimulus-container"">
                    <img src=""images/schematic_sequence/supermarket_scheme/supermarket_scheme_2.png"" class=""exp-image"">
                    <div class=""question-area"">
                        <p style=""font-size: 20px; font-weight: bold; margin: 0;"">Is there a person in this image?</p>
                    </div>
                </div>","1","main_experiment_trial","2","supermarket_scheme","schematic_sequence","","","","",""
"","","","","","html-keyboard-response","147","444454","0.0-147.0","E8454A56D9AC4EA0ABBBFB0320FBD547","019cf799-5a50-7527-bc38-c5463e9e10e4","019cf78c-cfcf-769c-9016-9b96552b5e33","","null","
                <div class=""stimulus-container"">
                    <img src=""images/schematic_sequence/supermarket_scheme/supermarket_scheme_3.png"" class=""exp-image"">
                    <div class=""question-area""></div> 
                </div>","null","","","","","","","","",""
"","","","","","html-button-response","148","444977","0.0-148.0","E8454A56D9AC4EA0ABBBFB0320FBD547","019cf799-5a50-7527-bc38-c5463e9e10e4","019cf78c-cfcf-769c-9016-9b96552b5e33","","521","
                <div class=""stimulus-container"">
                    <img src=""images/schematic_sequence/supermarket_scheme/supermarket_scheme_3.png"" class=""exp-image"">
                    <div class=""question-area"">
                        <p style=""font-size: 20px; font-weight: bold; margin: 0;"">Is there a person in this image?</p>
                    </div>
                </div>","1","main_experiment_trial","3","supermarket_scheme","schematic_sequence","","","","",""
"","","","","","html-keyboard-response","149","449984","0.0-149.0","E8454A56D9AC4EA0ABBBFB0320FBD547","019cf799-5a50-7527-bc38-c5463e9e10e4","019cf78c-cfcf-769c-9016-9b96552b5e33","","null","
                <div class=""stimulus-container"">
                    <img src=""images/schematic_sequence/supermarket_scheme/supermarket_scheme_4.png"" class=""exp-image"">
                    <div class=""question-area""></div> 
                </div>","null","","","","","","","","",""
"","","","","","html-button-response","150","450560","0.0-150.0","E8454A56D9AC4EA0ABBBFB0320FBD547","019cf799-5a50-7527-bc38-c5463e9e10e4","019cf78c-cfcf-769c-9016-9b96552b5e33","","574","
                <div class=""stimulus-container"">
                    <img src=""images/schematic_sequence/supermarket_scheme/supermarket_scheme_4.png"" class=""exp-image"">
                    <div class=""question-area"">
                        <p style=""font-size: 20px; font-weight: bold; margin: 0;"">Is there a person in this image?</p>
                    </div>
                </div>","0","main_experiment_trial","4","supermarket_scheme","schematic_sequence","","","","",""
"","","","","","html-keyboard-response","151","455569","0.0-151.0","E8454A56D9AC4EA0ABBBFB0320FBD547","019cf799-5a50-7527-bc38-c5463e9e10e4","019cf78c-cfcf-769c-9016-9b96552b5e33","","null","
                <div class=""stimulus-container"">
                    <img src=""images/schematic_sequence/supermarket_scheme/supermarket_scheme_5.png"" class=""exp-image"">
                    <div class=""question-area""></div> 
                </div>","null","","","","","","","","",""
"","","","","","html-button-response","152","456887","0.0-152.0","E8454A56D9AC4EA0ABBBFB0320FBD547","019cf799-5a50-7527-bc38-c5463e9e10e4","019cf78c-cfcf-769c-9016-9b96552b5e33","","1316","
                <div class=""stimulus-container"">
                    <img src=""images/schematic_sequence/supermarket_scheme/supermarket_scheme_5.png"" class=""exp-image"">
                    <div class=""question-area"">
                        <p style=""font-size: 20px; font-weight: bold; margin: 0;"">Is there a person in this image?</p>
                    </div>
                </div>","1","main_experiment_trial","5","supermarket_scheme","schematic_sequence","","","","",""
"","","","","","html-keyboard-response","153","461889","0.0-153.0","E8454A56D9AC4EA0ABBBFB0320FBD547","019cf799-5a50-7527-bc38-c5463e9e10e4","019cf78c-cfcf-769c-9016-9b96552b5e33","","null","
                <div class=""stimulus-container"">
                    <img src=""images/schematic_sequence/supermarket_scheme/supermarket_scheme_6.png"" class=""exp-image"">
                    <div class=""question-area""></div> 
                </div>","null","","","","","","","","",""
"","","","","","html-button-response","154","462489","0.0-154.0","E8454A56D9AC4EA0ABBBFB0320FBD547","019cf799-5a50-7527-bc38-c5463e9e10e4","019cf78c-cfcf-769c-9016-9b96552b5e33","","597","
                <div class=""stimulus-container"">
                    <img src=""images/schematic_sequence/supermarket_scheme/supermarket_scheme_6.png"" class=""exp-image"">
                    <div class=""question-area"">
                        <p style=""font-size: 20px; font-weight: bold; margin: 0;"">Is there a person in this image?</p>
                    </div>
                </div>","0","main_experiment_trial","6","supermarket_scheme","schematic_sequence","","","","",""
"","","","","","html-keyboard-response","155","467505","0.0-155.0","E8454A56D9AC4EA0ABBBFB0320FBD547","019cf799-5a50-7527-bc38-c5463e9e10e4","019cf78c-cfcf-769c-9016-9b96552b5e33","","null","
                <div class=""stimulus-container"">
                    <img src=""images/schematic_sequence/supermarket_scheme/supermarket_scheme_7.png"" class=""exp-image"">
                    <div class=""question-area""></div> 
                </div>","null","","","","","","","","",""
"","","","","","html-button-response","156","468241","0.0-156.0","E8454A56D9AC4EA0ABBBFB0320FBD547","019cf799-5a50-7527-bc38-c5463e9e10e4","019cf78c-cfcf-769c-9016-9b96552b5e33","","734","
                <div class=""stimulus-container"">
                    <img src=""images/schematic_sequence/supermarket_scheme/supermarket_scheme_7.png"" class=""exp-image"">
                    <div class=""question-area"">
                        <p style=""font-size: 20px; font-weight: bold; margin: 0;"">Is there a person in this image?</p>
                    </div>
                </div>","0","main_experiment_trial","7","supermarket_scheme","schematic_sequence","","","","",""
"","","","","","html-keyboard-response","157","473248","0.0-157.0","E8454A56D9AC4EA0ABBBFB0320FBD547","019cf799-5a50-7527-bc38-c5463e9e10e4","019cf78c-cfcf-769c-9016-9b96552b5e33","","null","
                <div class=""stimulus-container"">
                    <img src=""images/schematic_sequence/supermarket_scheme/supermarket_scheme_8.png"" class=""exp-image"">
                    <div class=""question-area""></div> 
                </div>","null","","","","","","","","",""
"","","","","","html-button-response","158","473960","0.0-158.0","E8454A56D9AC4EA0ABBBFB0320FBD547","019cf799-5a50-7527-bc38-c5463e9e10e4","019cf78c-cfcf-769c-9016-9b96552b5e33","","709","
                <div class=""stimulus-container"">
                    <img src=""images/schematic_sequence/supermarket_scheme/supermarket_scheme_8.png"" class=""exp-image"">
                    <div class=""question-area"">
                        <p style=""font-size: 20px; font-weight: bold; margin: 0;"">Is there a person in this image?</p>
                    </div>
                </div>","0","main_experiment_trial","8","supermarket_scheme","schematic_sequence","","","","",""
"","","","","","html-keyboard-response","159","478978","0.0-159.0","E8454A56D9AC4EA0ABBBFB0320FBD547","019cf799-5a50-7527-bc38-c5463e9e10e4","019cf78c-cfcf-769c-9016-9b96552b5e33","","null","
                <div class=""stimulus-container"">
                    <img src=""images/schematic_sequence/supermarket_scheme/supermarket_scheme_9.png"" class=""exp-image"">
                    <div class=""question-area""></div> 
                </div>","null","","","","","","","","",""
"","","","","","html-button-response","160","479792","0.0-160.0","E8454A56D9AC4EA0ABBBFB0320FBD547","019cf799-5a50-7527-bc38-c5463e9e10e4","019cf78c-cfcf-769c-9016-9b96552b5e33","","812","
                <div class=""stimulus-container"">
                    <img src=""images/schematic_sequence/supermarket_scheme/supermarket_scheme_9.png"" class=""exp-image"">
                    <div class=""question-area"">
                        <p style=""font-size: 20px; font-weight: bold; margin: 0;"">Is there a person in this image?</p>
                    </div>
                </div>","0","main_experiment_trial","9","supermarket_scheme","schematic_sequence","","","","",""
"","","","","","html-keyboard-response","161","484803","0.0-161.0","E8454A56D9AC4EA0ABBBFB0320FBD547","019cf799-5a50-7527-bc38-c5463e9e10e4","019cf78c-cfcf-769c-9016-9b96552b5e33","","null","
                <div class=""stimulus-container"">
                    <img src=""images/schematic_sequence/supermarket_scheme/supermarket_scheme_ten.png"" class=""exp-image"">
                    <div class=""question-area""></div> 
                </div>","null","","","","","","","","",""
"","","","","","html-button-response","162","486232","0.0-162.0","E8454A56D9AC4EA0ABBBFB0320FBD547","019cf799-5a50-7527-bc38-c5463e9e10e4","019cf78c-cfcf-769c-9016-9b96552b5e33","","1427","
                <div class=""stimulus-container"">
                    <img src=""images/schematic_sequence/supermarket_scheme/supermarket_scheme_ten.png"" class=""exp-image"">
                    <div class=""question-area"">
                        <p style=""font-size: 20px; font-weight: bold; margin: 0;"">Is there a person in this image?</p>
                    </div>
                </div>","1","main_experiment_trial","ten","supermarket_scheme","schematic_sequence","","","","",""
"","","","","","html-keyboard-response","163","487235","0.0-163.0","E8454A56D9AC4EA0ABBBFB0320FBD547","019cf799-5a50-7527-bc38-c5463e9e10e4","019cf78c-cfcf-769c-9016-9b96552b5e33","","null","<div style=""background-color: white; width: 100vw; height: 100vh;""></div>","null","","","","","","","","",""
"","","","","","html-keyboard-response","164","492238","0.0-164.0","E8454A56D9AC4EA0ABBBFB0320FBD547","019cf799-5a50-7527-bc38-c5463e9e10e4","019cf78c-cfcf-769c-9016-9b96552b5e33","","null","
                <div class=""stimulus-container"">
                    <img src=""images/semantic_sequence/using_technology_semantic/using_technology_semantic_1.png"" class=""exp-image"">
                    <div class=""question-area""></div> 
                </div>","null","","","","","","","","",""
"","","","","","html-button-response","165","493017","0.0-165.0","E8454A56D9AC4EA0ABBBFB0320FBD547","019cf799-5a50-7527-bc38-c5463e9e10e4","019cf78c-cfcf-769c-9016-9b96552b5e33","","775","
                <div class=""stimulus-container"">
                    <img src=""images/semantic_sequence/using_technology_semantic/using_technology_semantic_1.png"" class=""exp-image"">
                    <div class=""question-area"">
                        <p style=""font-size: 20px; font-weight: bold; margin: 0;"">Is there a person in this image?</p>
                    </div>
                </div>","0","main_experiment_trial","1","using_technology_semantic","semantic_sequence","","","","",""
"","","","","","html-keyboard-response","166","498031","0.0-166.0","E8454A56D9AC4EA0ABBBFB0320FBD547","019cf799-5a50-7527-bc38-c5463e9e10e4","019cf78c-cfcf-769c-9016-9b96552b5e33","","null","
                <div class=""stimulus-container"">
                    <img src=""images/semantic_sequence/using_technology_semantic/using_technology_semantic_2.png"" class=""exp-image"">
                    <div class=""question-area""></div> 
                </div>","null","","","","","","","","",""
"","","","","","html-button-response","167","498721","0.0-167.0","E8454A56D9AC4EA0ABBBFB0320FBD547","019cf799-5a50-7527-bc38-c5463e9e10e4","019cf78c-cfcf-769c-9016-9b96552b5e33","","688","
                <div class=""stimulus-container"">
                    <img src=""images/semantic_sequence/using_technology_semantic/using_technology_semantic_2.png"" class=""exp-image"">
                    <div class=""question-area"">
                        <p style=""font-size: 20px; font-weight: bold; margin: 0;"">Is there a person in this image?</p>
                    </div>
                </div>","0","main_experiment_trial","2","using_technology_semantic","semantic_sequence","","","","",""
"","","","","","html-keyboard-response","168","503728","0.0-168.0","E8454A56D9AC4EA0ABBBFB0320FBD547","019cf799-5a50-7527-bc38-c5463e9e10e4","019cf78c-cfcf-769c-9016-9b96552b5e33","","null","
                <div class=""stimulus-container"">
                    <img src=""images/semantic_sequence/using_technology_semantic/using_technology_semantic_3.png"" class=""exp-image"">
                    <div class=""question-area""></div> 
                </div>","null","","","","","","","","",""
"","","","","","html-button-response","169","504209","0.0-169.0","E8454A56D9AC4EA0ABBBFB0320FBD547","019cf799-5a50-7527-bc38-c5463e9e10e4","019cf78c-cfcf-769c-9016-9b96552b5e33","","478","
                <div class=""stimulus-container"">
                    <img src=""images/semantic_sequence/using_technology_semantic/using_technology_semantic_3.png"" class=""exp-image"">
                    <div class=""question-area"">
                        <p style=""font-size: 20px; font-weight: bold; margin: 0;"">Is there a person in this image?</p>
                    </div>
                </div>","0","main_experiment_trial","3","using_technology_semantic","semantic_sequence","","","","",""
"","","","","","html-keyboard-response","170","509215","0.0-170.0","E8454A56D9AC4EA0ABBBFB0320FBD547","019cf799-5a50-7527-bc38-c5463e9e10e4","019cf78c-cfcf-769c-9016-9b96552b5e33","","null","
                <div class=""stimulus-container"">
                    <img src=""images/semantic_sequence/using_technology_semantic/using_technology_semantic_4.png"" class=""exp-image"">
                    <div class=""question-area""></div> 
                </div>","null","","","","","","","","",""
"","","","","","html-button-response","171","509647","0.0-171.0","E8454A56D9AC4EA0ABBBFB0320FBD547","019cf799-5a50-7527-bc38-c5463e9e10e4","019cf78c-cfcf-769c-9016-9b96552b5e33","","431","
                <div class=""stimulus-container"">
                    <img src=""images/semantic_sequence/using_technology_semantic/using_technology_semantic_4.png"" class=""exp-image"">
                    <div class=""question-area"">
                        <p style=""font-size: 20px; font-weight: bold; margin: 0;"">Is there a person in this image?</p>
                    </div>
                </div>","0","main_experiment_trial","4","using_technology_semantic","semantic_sequence","","","","",""
"","","","","","html-keyboard-response","172","514650","0.0-172.0","E8454A56D9AC4EA0ABBBFB0320FBD547","019cf799-5a50-7527-bc38-c5463e9e10e4","019cf78c-cfcf-769c-9016-9b96552b5e33","","null","
                <div class=""stimulus-container"">
                    <img src=""images/semantic_sequence/using_technology_semantic/using_technology_semantic_5.png"" class=""exp-image"">
                    <div class=""question-area""></div> 
                </div>","null","","","","","","","","",""
"","","","","","html-button-response","173","515129","0.0-173.0","E8454A56D9AC4EA0ABBBFB0320FBD547","019cf799-5a50-7527-bc38-c5463e9e10e4","019cf78c-cfcf-769c-9016-9b96552b5e33","","477","
                <div class=""stimulus-container"">
                    <img src=""images/semantic_sequence/using_technology_semantic/using_technology_semantic_5.png"" class=""exp-image"">
                    <div class=""question-area"">
                        <p style=""font-size: 20px; font-weight: bold; margin: 0;"">Is there a person in this image?</p>
                    </div>
                </div>","0","main_experiment_trial","5","using_technology_semantic","semantic_sequence","","","","",""
"","","","","","html-keyboard-response","174","520140","0.0-174.0","E8454A56D9AC4EA0ABBBFB0320FBD547","019cf799-5a50-7527-bc38-c5463e9e10e4","019cf78c-cfcf-769c-9016-9b96552b5e33","","null","
                <div class=""stimulus-container"">
                    <img src=""images/semantic_sequence/using_technology_semantic/using_technology_semantic_6.png"" class=""exp-image"">
                    <div class=""question-area""></div> 
                </div>","null","","","","","","","","",""
"","","","","","html-button-response","175","520906","0.0-175.0","E8454A56D9AC4EA0ABBBFB0320FBD547","019cf799-5a50-7527-bc38-c5463e9e10e4","019cf78c-cfcf-769c-9016-9b96552b5e33","","763","
                <div class=""stimulus-container"">
                    <img src=""images/semantic_sequence/using_technology_semantic/using_technology_semantic_6.png"" class=""exp-image"">
                    <div class=""question-area"">
                        <p style=""font-size: 20px; font-weight: bold; margin: 0;"">Is there a person in this image?</p>
                    </div>
                </div>","0","main_experiment_trial","6","using_technology_semantic","semantic_sequence","","","","",""
"","","","","","html-keyboard-response","176","525917","0.0-176.0","E8454A56D9AC4EA0ABBBFB0320FBD547","019cf799-5a50-7527-bc38-c5463e9e10e4","019cf78c-cfcf-769c-9016-9b96552b5e33","","null","
                <div class=""stimulus-container"">
                    <img src=""images/semantic_sequence/using_technology_semantic/using_technology_semantic_7.png"" class=""exp-image"">
                    <div class=""question-area""></div> 
                </div>","null","","","","","","","","",""
"","","","","","html-button-response","177","526417","0.0-177.0","E8454A56D9AC4EA0ABBBFB0320FBD547","019cf799-5a50-7527-bc38-c5463e9e10e4","019cf78c-cfcf-769c-9016-9b96552b5e33","","498","
                <div class=""stimulus-container"">
                    <img src=""images/semantic_sequence/using_technology_semantic/using_technology_semantic_7.png"" class=""exp-image"">
                    <div class=""question-area"">
                        <p style=""font-size: 20px; font-weight: bold; margin: 0;"">Is there a person in this image?</p>
                    </div>
                </div>","0","main_experiment_trial","7","using_technology_semantic","semantic_sequence","","","","",""
"","","","","","html-keyboard-response","178","531422","0.0-178.0","E8454A56D9AC4EA0ABBBFB0320FBD547","019cf799-5a50-7527-bc38-c5463e9e10e4","019cf78c-cfcf-769c-9016-9b96552b5e33","","null","
                <div class=""stimulus-container"">
                    <img src=""images/semantic_sequence/using_technology_semantic/using_technology_semantic_8.png"" class=""exp-image"">
                    <div class=""question-area""></div> 
                </div>","null","","","","","","","","",""
"","","","","","html-button-response","179","531945","0.0-179.0","E8454A56D9AC4EA0ABBBFB0320FBD547","019cf799-5a50-7527-bc38-c5463e9e10e4","019cf78c-cfcf-769c-9016-9b96552b5e33","","521","
                <div class=""stimulus-container"">
                    <img src=""images/semantic_sequence/using_technology_semantic/using_technology_semantic_8.png"" class=""exp-image"">
                    <div class=""question-area"">
                        <p style=""font-size: 20px; font-weight: bold; margin: 0;"">Is there a person in this image?</p>
                    </div>
                </div>","0","main_experiment_trial","8","using_technology_semantic","semantic_sequence","","","","",""
"","","","","","html-keyboard-response","180","536959","0.0-180.0","E8454A56D9AC4EA0ABBBFB0320FBD547","019cf799-5a50-7527-bc38-c5463e9e10e4","019cf78c-cfcf-769c-9016-9b96552b5e33","","null","
                <div class=""stimulus-container"">
                    <img src=""images/semantic_sequence/using_technology_semantic/using_technology_semantic_9.png"" class=""exp-image"">
                    <div class=""question-area""></div> 
                </div>","null","","","","","","","","",""
"","","","","","html-button-response","181","537593","0.0-181.0","E8454A56D9AC4EA0ABBBFB0320FBD547","019cf799-5a50-7527-bc38-c5463e9e10e4","019cf78c-cfcf-769c-9016-9b96552b5e33","","631","
