"success","timeout","failed_images","failed_audio","failed_video","trial_type","trial_index","time_elapsed","internal_node_id","subject_id","study_id","session_id","view_history","rt","stimulus","response","task","image_index","folder","sequence_type","presentation_order","valuable_image_index","reward_type","distance_from_x","target_X","chosen_image_index","is_x_plus_dist","correct_choice"
"true","false","[]","[]","[]","preload","0","5888","0.0-0.0","08E26F80E9DE41E68AE4C92993632286","019cfc98-e57e-7bdf-919c-1acef53bf9b6","019cfc7b-6c7b-7b1b-afe7-acad8efc6711","","","","","","","","","","","","","","","",""
"","","","","","instructions","1","23417","0.0-1.0","08E26F80E9DE41E68AE4C92993632286","019cfc98-e57e-7bdf-919c-1acef53bf9b6","019cfc7b-6c7b-7b1b-afe7-acad8efc6711","[{""page_index"":0,""viewing_time"":17527}]","17527","","","","","","","","","","","","","",""
"","","","","","instructions","2","27490","0.0-2.0","08E26F80E9DE41E68AE4C92993632286","019cfc98-e57e-7bdf-919c-1acef53bf9b6","019cfc7b-6c7b-7b1b-afe7-acad8efc6711","[{""page_index"":0,""viewing_time"":4073}]","4073","","","","","","","","","","","","","",""
"true","","","","","fullscreen","3","31947","0.0-3.0","08E26F80E9DE41E68AE4C92993632286","019cfc98-e57e-7bdf-919c-1acef53bf9b6","019cfc7b-6c7b-7b1b-afe7-acad8efc6711","","3447","","","","","","","","","","","","","",""
"","","","","","instructions","4","51720","0.0-4.0","08E26F80E9DE41E68AE4C92993632286","019cfc98-e57e-7bdf-919c-1acef53bf9b6","019cfc7b-6c7b-7b1b-afe7-acad8efc6711","[{""page_index"":0,""viewing_time"":19771}]","19771","","","","","","","","","","","","","",""
"","","","","","instructions","5","59163","0.0-5.0","08E26F80E9DE41E68AE4C92993632286","019cfc98-e57e-7bdf-919c-1acef53bf9b6","019cfc7b-6c7b-7b1b-afe7-acad8efc6711","[{""page_index"":0,""viewing_time"":7443}]","7443","","","","","","","","","","","","","",""
"","","","","","html-keyboard-response","6","63173","0.0-6.0","08E26F80E9DE41E68AE4C92993632286","019cfc98-e57e-7bdf-919c-1acef53bf9b6","019cfc7b-6c7b-7b1b-afe7-acad8efc6711","","null","
                <div class=""stimulus-container"">
                    <img src=""images/instructions/movie_1.png"" class=""exp-image"">
                    <div class=""question-area""></div> 
                </div>","null","","","","","","","","","","","",""
"","","","","","html-button-response","7","66181","0.0-7.0","08E26F80E9DE41E68AE4C92993632286","019cfc98-e57e-7bdf-919c-1acef53bf9b6","019cfc7b-6c7b-7b1b-afe7-acad8efc6711","","null","
                <div class=""stimulus-container"">
                    <img src=""images/instructions/movie_1.png"" class=""exp-image"">
                    <div class=""question-area"">
                        <p style=""font-size: 20px; font-weight: bold; margin: 0;"">Was there a person in this image?</p>
                    </div>
                </div>","null","example_question","1","","","","","","","","","",""
"","","","","","html-keyboard-response","8","70183","0.0-8.0","08E26F80E9DE41E68AE4C92993632286","019cfc98-e57e-7bdf-919c-1acef53bf9b6","019cfc7b-6c7b-7b1b-afe7-acad8efc6711","","null","
                <div class=""stimulus-container"">
                    <img src=""images/instructions/movie_2.png"" class=""exp-image"">
                    <div class=""question-area""></div> 
                </div>","null","","","","","","","","","","","",""
"","","","","","html-button-response","9","71124","0.0-9.0","08E26F80E9DE41E68AE4C92993632286","019cfc98-e57e-7bdf-919c-1acef53bf9b6","019cfc7b-6c7b-7b1b-afe7-acad8efc6711","","940","
                <div class=""stimulus-container"">
                    <img src=""images/instructions/movie_2.png"" class=""exp-image"">
                    <div class=""question-area"">
                        <p style=""font-size: 20px; font-weight: bold; margin: 0;"">Was there a person in this image?</p>
                    </div>
                </div>","1","example_question","2","","","","","","","","","",""
"","","","","","html-keyboard-response","10","75140","0.0-10.0","08E26F80E9DE41E68AE4C92993632286","019cfc98-e57e-7bdf-919c-1acef53bf9b6","019cfc7b-6c7b-7b1b-afe7-acad8efc6711","","null","
                <div class=""stimulus-container"">
                    <img src=""images/instructions/movie_3.png"" class=""exp-image"">
                    <div class=""question-area""></div> 
                </div>","null","","","","","","","","","","","",""
"","","","","","html-button-response","11","76321","0.0-11.0","08E26F80E9DE41E68AE4C92993632286","019cfc98-e57e-7bdf-919c-1acef53bf9b6","019cfc7b-6c7b-7b1b-afe7-acad8efc6711","","1180","
                <div class=""stimulus-container"">
                    <img src=""images/instructions/movie_3.png"" class=""exp-image"">
                    <div class=""question-area"">
                        <p style=""font-size: 20px; font-weight: bold; margin: 0;"">Was there a person in this image?</p>
                    </div>
                </div>","0","example_question","3","","","","","","","","","",""
"","","","","","html-keyboard-response","12","80322","0.0-12.0","08E26F80E9DE41E68AE4C92993632286","019cfc98-e57e-7bdf-919c-1acef53bf9b6","019cfc7b-6c7b-7b1b-afe7-acad8efc6711","","null","
                <div class=""stimulus-container"">
                    <img src=""images/instructions/movie_4.png"" class=""exp-image"">
                    <div class=""question-area""></div> 
                </div>","null","","","","","","","","","","","",""
"","","","","","html-button-response","13","81544","0.0-13.0","08E26F80E9DE41E68AE4C92993632286","019cfc98-e57e-7bdf-919c-1acef53bf9b6","019cfc7b-6c7b-7b1b-afe7-acad8efc6711","","1221","
                <div class=""stimulus-container"">
                    <img src=""images/instructions/movie_4.png"" class=""exp-image"">
                    <div class=""question-area"">
                        <p style=""font-size: 20px; font-weight: bold; margin: 0;"">Was there a person in this image?</p>
                    </div>
                </div>","0","example_question","4","","","","","","","","","",""
"","","","","","instructions","14","83537","0.0-14.0","08E26F80E9DE41E68AE4C92993632286","019cfc98-e57e-7bdf-919c-1acef53bf9b6","019cfc7b-6c7b-7b1b-afe7-acad8efc6711","[{""page_index"":0,""viewing_time"":1992}]","1992","","","","","","","","","","","","","",""
"","","","","","instructions","15","95881","0.0-15.0","08E26F80E9DE41E68AE4C92993632286","019cfc98-e57e-7bdf-919c-1acef53bf9b6","019cfc7b-6c7b-7b1b-afe7-acad8efc6711","[{""page_index"":0,""viewing_time"":12344}]","12344","","","","","","","","","","","","","",""
"","","","","","html-keyboard-response","16","100892","0.0-16.0","08E26F80E9DE41E68AE4C92993632286","019cfc98-e57e-7bdf-919c-1acef53bf9b6","019cfc7b-6c7b-7b1b-afe7-acad8efc6711","","null","<div style=""background-color: white; width: 100vw; height: 100vh;""></div>","null","","","","","","","","","","","",""
"","","","","","html-keyboard-response","17","105896","0.0-17.0","08E26F80E9DE41E68AE4C92993632286","019cfc98-e57e-7bdf-919c-1acef53bf9b6","019cfc7b-6c7b-7b1b-afe7-acad8efc6711","","null","
                <div class=""stimulus-container"">
                    <img src=""images/schematic_sequence/hotel_scheme/hotel_scheme_1.png"" class=""exp-image"">
                    <div class=""question-area""></div> 
                </div>","null","","","","","","","","","","","",""
"","","","","","html-button-response","18","107668","0.0-18.0","08E26F80E9DE41E68AE4C92993632286","019cfc98-e57e-7bdf-919c-1acef53bf9b6","019cfc7b-6c7b-7b1b-afe7-acad8efc6711","","1771","
                <div class=""stimulus-container"">
                    <img src=""images/schematic_sequence/hotel_scheme/hotel_scheme_1.png"" class=""exp-image"">
                    <div class=""question-area"">
                        <p style=""font-size: 20px; font-weight: bold; margin: 0;"">Is there a person in this image?</p>
                    </div>
                </div>","1","main_experiment_trial","1","hotel_scheme","schematic_sequence","chronological","","","","","","",""
"","","","","","html-keyboard-response","19","112669","0.0-19.0","08E26F80E9DE41E68AE4C92993632286","019cfc98-e57e-7bdf-919c-1acef53bf9b6","019cfc7b-6c7b-7b1b-afe7-acad8efc6711","","null","
                <div class=""stimulus-container"">
                    <img src=""images/schematic_sequence/hotel_scheme/hotel_scheme_2.png"" class=""exp-image"">
                    <div class=""question-area""></div> 
                </div>","null","","","","","","","","","","","",""
"","","","","","html-button-response","20","113465","0.0-20.0","08E26F80E9DE41E68AE4C92993632286","019cfc98-e57e-7bdf-919c-1acef53bf9b6","019cfc7b-6c7b-7b1b-afe7-acad8efc6711","","795","
                <div class=""stimulus-container"">
                    <img src=""images/schematic_sequence/hotel_scheme/hotel_scheme_2.png"" class=""exp-image"">
                    <div class=""question-area"">
                        <p style=""font-size: 20px; font-weight: bold; margin: 0;"">Is there a person in this image?</p>
                    </div>
                </div>","0","main_experiment_trial","2","hotel_scheme","schematic_sequence","chronological","","","","","","",""
"","","","","","html-keyboard-response","21","118478","0.0-21.0","08E26F80E9DE41E68AE4C92993632286","019cfc98-e57e-7bdf-919c-1acef53bf9b6","019cfc7b-6c7b-7b1b-afe7-acad8efc6711","","null","
                <div class=""stimulus-container"">
                    <img src=""images/schematic_sequence/hotel_scheme/hotel_scheme_3.png"" class=""exp-image"">
                    <div class=""question-area""></div> 
                </div>","null","","","","","","","","","","","",""
"","","","","","html-button-response","22","119716","0.0-22.0","08E26F80E9DE41E68AE4C92993632286","019cfc98-e57e-7bdf-919c-1acef53bf9b6","019cfc7b-6c7b-7b1b-afe7-acad8efc6711","","1237","
                <div class=""stimulus-container"">
                    <img src=""images/schematic_sequence/hotel_scheme/hotel_scheme_3.png"" class=""exp-image"">
                    <div class=""question-area"">
                        <p style=""font-size: 20px; font-weight: bold; margin: 0;"">Is there a person in this image?</p>
                    </div>
                </div>","0","main_experiment_trial","3","hotel_scheme","schematic_sequence","chronological","","","","","","",""
"","","","","","html-keyboard-response","23","124729","0.0-23.0","08E26F80E9DE41E68AE4C92993632286","019cfc98-e57e-7bdf-919c-1acef53bf9b6","019cfc7b-6c7b-7b1b-afe7-acad8efc6711","","null","
                <div class=""stimulus-container"">
                    <img src=""images/schematic_sequence/hotel_scheme/hotel_scheme_4.png"" class=""exp-image"">
                    <div class=""question-area""></div> 
                </div>","null","","","","","","","","","","","",""
"","","","","","html-button-response","24","125750","0.0-24.0","08E26F80E9DE41E68AE4C92993632286","019cfc98-e57e-7bdf-919c-1acef53bf9b6","019cfc7b-6c7b-7b1b-afe7-acad8efc6711","","1021","
                <div class=""stimulus-container"">
                    <img src=""images/schematic_sequence/hotel_scheme/hotel_scheme_4.png"" class=""exp-image"">
                    <div class=""question-area"">
                        <p style=""font-size: 20px; font-weight: bold; margin: 0;"">Is there a person in this image?</p>
                    </div>
                </div>","1","main_experiment_trial","4","hotel_scheme","schematic_sequence","chronological","","","","","","",""
"","","","","","html-keyboard-response","25","130752","0.0-25.0","08E26F80E9DE41E68AE4C92993632286","019cfc98-e57e-7bdf-919c-1acef53bf9b6","019cfc7b-6c7b-7b1b-afe7-acad8efc6711","","null","
                <div class=""stimulus-container"">
                    <img src=""images/schematic_sequence/hotel_scheme/hotel_scheme_5.png"" class=""exp-image"">
                    <div class=""question-area""></div> 
                </div>","null","","","","","","","","","","","",""
"","","","","","html-button-response","26","132355","0.0-26.0","08E26F80E9DE41E68AE4C92993632286","019cfc98-e57e-7bdf-919c-1acef53bf9b6","019cfc7b-6c7b-7b1b-afe7-acad8efc6711","","1602","
                <div class=""stimulus-container"">
                    <img src=""images/schematic_sequence/hotel_scheme/hotel_scheme_5.png"" class=""exp-image"">
                    <div class=""question-area"">
                        <p style=""font-size: 20px; font-weight: bold; margin: 0;"">Is there a person in this image?</p>
                    </div>
                </div>","0","main_experiment_trial","5","hotel_scheme","schematic_sequence","chronological","","","","","","",""
"","","","","","html-keyboard-response","27","137357","0.0-27.0","08E26F80E9DE41E68AE4C92993632286","019cfc98-e57e-7bdf-919c-1acef53bf9b6","019cfc7b-6c7b-7b1b-afe7-acad8efc6711","","null","
                <div class=""stimulus-container"">
                    <img src=""images/schematic_sequence/hotel_scheme/hotel_scheme_6.png"" class=""exp-image"">
                    <div class=""question-area""></div> 
                </div>","null","","","","","","","","","","","",""
"","","","","","html-button-response","28","138007","0.0-28.0","08E26F80E9DE41E68AE4C92993632286","019cfc98-e57e-7bdf-919c-1acef53bf9b6","019cfc7b-6c7b-7b1b-afe7-acad8efc6711","","649","
                <div class=""stimulus-container"">
                    <img src=""images/schematic_sequence/hotel_scheme/hotel_scheme_6.png"" class=""exp-image"">
                    <div class=""question-area"">
                        <p style=""font-size: 20px; font-weight: bold; margin: 0;"">Is there a person in this image?</p>
                    </div>
                </div>","0","main_experiment_trial","6","hotel_scheme","schematic_sequence","chronological","","","","","","",""
"","","","","","html-keyboard-response","29","143009","0.0-29.0","08E26F80E9DE41E68AE4C92993632286","019cfc98-e57e-7bdf-919c-1acef53bf9b6","019cfc7b-6c7b-7b1b-afe7-acad8efc6711","","null","
                <div class=""stimulus-container"">
                    <img src=""images/schematic_sequence/hotel_scheme/hotel_scheme_7.png"" class=""exp-image"">
                    <div class=""question-area""></div> 
                </div>","null","","","","","","","","","","","",""
"","","","","","html-button-response","30","143993","0.0-30.0","08E26F80E9DE41E68AE4C92993632286","019cfc98-e57e-7bdf-919c-1acef53bf9b6","019cfc7b-6c7b-7b1b-afe7-acad8efc6711","","983","
                <div class=""stimulus-container"">
                    <img src=""images/schematic_sequence/hotel_scheme/hotel_scheme_7.png"" class=""exp-image"">
                    <div class=""question-area"">
                        <p style=""font-size: 20px; font-weight: bold; margin: 0;"">Is there a person in this image?</p>
                    </div>
                </div>","0","main_experiment_trial","7","hotel_scheme","schematic_sequence","chronological","","","","","","",""
"","","","","","html-keyboard-response","31","148995","0.0-31.0","08E26F80E9DE41E68AE4C92993632286","019cfc98-e57e-7bdf-919c-1acef53bf9b6","019cfc7b-6c7b-7b1b-afe7-acad8efc6711","","null","
                <div class=""stimulus-container"">
                    <img src=""images/schematic_sequence/hotel_scheme/hotel_scheme_8.png"" class=""exp-image"">
                    <div class=""question-area""></div> 
                </div>","null","","","","","","","","","","","",""
"","","","","","html-button-response","32","149664","0.0-32.0","08E26F80E9DE41E68AE4C92993632286","019cfc98-e57e-7bdf-919c-1acef53bf9b6","019cfc7b-6c7b-7b1b-afe7-acad8efc6711","","668","
                <div class=""stimulus-container"">
                    <img src=""images/schematic_sequence/hotel_scheme/hotel_scheme_8.png"" class=""exp-image"">
                    <div class=""question-area"">
                        <p style=""font-size: 20px; font-weight: bold; margin: 0;"">Is there a person in this image?</p>
                    </div>
                </div>","0","main_experiment_trial","8","hotel_scheme","schematic_sequence","chronological","","","","","","",""
"","","","","","html-keyboard-response","33","154667","0.0-33.0","08E26F80E9DE41E68AE4C92993632286","019cfc98-e57e-7bdf-919c-1acef53bf9b6","019cfc7b-6c7b-7b1b-afe7-acad8efc6711","","null","
                <div class=""stimulus-container"">
                    <img src=""images/schematic_sequence/hotel_scheme/hotel_scheme_9.png"" class=""exp-image"">
                    <div class=""question-area""></div> 
                </div>","null","","","","","","","","","","","",""
"","","","","","html-button-response","34","155630","0.0-34.0","08E26F80E9DE41E68AE4C92993632286","019cfc98-e57e-7bdf-919c-1acef53bf9b6","019cfc7b-6c7b-7b1b-afe7-acad8efc6711","","962","
                <div class=""stimulus-container"">
                    <img src=""images/schematic_sequence/hotel_scheme/hotel_scheme_9.png"" class=""exp-image"">
                    <div class=""question-area"">
                        <p style=""font-size: 20px; font-weight: bold; margin: 0;"">Is there a person in this image?</p>
                    </div>
                </div>","0","main_experiment_trial","9","hotel_scheme","schematic_sequence","chronological","","","","","","",""
"","","","","","html-keyboard-response","35","160633","0.0-35.0","08E26F80E9DE41E68AE4C92993632286","019cfc98-e57e-7bdf-919c-1acef53bf9b6","019cfc7b-6c7b-7b1b-afe7-acad8efc6711","","null","
                <div class=""stimulus-container"">
                    <img src=""images/schematic_sequence/hotel_scheme/hotel_scheme_ten.png"" class=""exp-image"">
                    <div class=""question-area""></div> 
                </div>","null","","","","","","","","","","","",""
"","","","","","html-button-response","36","161182","0.0-36.0","08E26F80E9DE41E68AE4C92993632286","019cfc98-e57e-7bdf-919c-1acef53bf9b6","019cfc7b-6c7b-7b1b-afe7-acad8efc6711","","548","
                <div class=""stimulus-container"">
                    <img src=""images/schematic_sequence/hotel_scheme/hotel_scheme_ten.png"" class=""exp-image"">
                    <div class=""question-area"">
                        <p style=""font-size: 20px; font-weight: bold; margin: 0;"">Is there a person in this image?</p>
                    </div>
                </div>","0","main_experiment_trial","ten","hotel_scheme","schematic_sequence","chronological","","","","","","",""
"","","","","","html-keyboard-response","37","166197","0.0-37.0","08E26F80E9DE41E68AE4C92993632286","019cfc98-e57e-7bdf-919c-1acef53bf9b6","019cfc7b-6c7b-7b1b-afe7-acad8efc6711","","null","<div style=""background-color: white; width: 100vw; height: 100vh;""></div>","null","","","","","","","","","","","",""
"","","","","","html-keyboard-response","38","171200","0.0-38.0","08E26F80E9DE41E68AE4C92993632286","019cfc98-e57e-7bdf-919c-1acef53bf9b6","019cfc7b-6c7b-7b1b-afe7-acad8efc6711","","null","
                <div class=""stimulus-container"">
                    <img src=""images/schematic_sequence/supermarket_scheme/supermarket_scheme_1.png"" class=""exp-image"">
                    <div class=""question-area""></div> 
                </div>","null","","","","","","","","","","","",""
"","","","","","html-button-response","39","172599","0.0-39.0","08E26F80E9DE41E68AE4C92993632286","019cfc98-e57e-7bdf-919c-1acef53bf9b6","019cfc7b-6c7b-7b1b-afe7-acad8efc6711","","1397","
                <div class=""stimulus-container"">
                    <img src=""images/schematic_sequence/supermarket_scheme/supermarket_scheme_1.png"" class=""exp-image"">
                    <div class=""question-area"">
                        <p style=""font-size: 20px; font-weight: bold; margin: 0;"">Is there a person in this image?</p>
                    </div>
                </div>","1","main_experiment_trial","1","supermarket_scheme","schematic_sequence","chronological","","","","","","",""
"","","","","","html-keyboard-response","40","177612","0.0-40.0","08E26F80E9DE41E68AE4C92993632286","019cfc98-e57e-7bdf-919c-1acef53bf9b6","019cfc7b-6c7b-7b1b-afe7-acad8efc6711","","null","
                <div class=""stimulus-container"">
                    <img src=""images/schematic_sequence/supermarket_scheme/supermarket_scheme_2.png"" class=""exp-image"">
                    <div class=""question-area""></div> 
                </div>","null","","","","","","","","","","","",""
"","","","","","html-button-response","41","178559","0.0-41.0","08E26F80E9DE41E68AE4C92993632286","019cfc98-e57e-7bdf-919c-1acef53bf9b6","019cfc7b-6c7b-7b1b-afe7-acad8efc6711","","946","
                <div class=""stimulus-container"">
                    <img src=""images/schematic_sequence/supermarket_scheme/supermarket_scheme_2.png"" class=""exp-image"">
                    <div class=""question-area"">
                        <p style=""font-size: 20px; font-weight: bold; margin: 0;"">Is there a person in this image?</p>
                    </div>
                </div>","1","main_experiment_trial","2","supermarket_scheme","schematic_sequence","chronological","","","","","","",""
"","","","","","html-keyboard-response","42","183562","0.0-42.0","08E26F80E9DE41E68AE4C92993632286","019cfc98-e57e-7bdf-919c-1acef53bf9b6","019cfc7b-6c7b-7b1b-afe7-acad8efc6711","","null","
                <div class=""stimulus-container"">
                    <img src=""images/schematic_sequence/supermarket_scheme/supermarket_scheme_3.png"" class=""exp-image"">
                    <div class=""question-area""></div> 
                </div>","null","","","","","","","","","","","",""
"","","","","","html-button-response","43","184354","0.0-43.0","08E26F80E9DE41E68AE4C92993632286","019cfc98-e57e-7bdf-919c-1acef53bf9b6","019cfc7b-6c7b-7b1b-afe7-acad8efc6711","","791","
                <div class=""stimulus-container"">
                    <img src=""images/schematic_sequence/supermarket_scheme/supermarket_scheme_3.png"" class=""exp-image"">
                    <div class=""question-area"">
                        <p style=""font-size: 20px; font-weight: bold; margin: 0;"">Is there a person in this image?</p>
                    </div>
                </div>","1","main_experiment_trial","3","supermarket_scheme","schematic_sequence","chronological","","","","","","",""
"","","","","","html-keyboard-response","44","189356","0.0-44.0","08E26F80E9DE41E68AE4C92993632286","019cfc98-e57e-7bdf-919c-1acef53bf9b6","019cfc7b-6c7b-7b1b-afe7-acad8efc6711","","null","
                <div class=""stimulus-container"">
                    <img src=""images/schematic_sequence/supermarket_scheme/supermarket_scheme_4.png"" class=""exp-image"">
                    <div class=""question-area""></div> 
                </div>","null","","","","","","","","","","","",""
"","","","","","html-button-response","45","190866","0.0-45.0","08E26F80E9DE41E68AE4C92993632286","019cfc98-e57e-7bdf-919c-1acef53bf9b6","019cfc7b-6c7b-7b1b-afe7-acad8efc6711","","1509","
                <div class=""stimulus-container"">
                    <img src=""images/schematic_sequence/supermarket_scheme/supermarket_scheme_4.png"" class=""exp-image"">
                    <div class=""question-area"">
                        <p style=""font-size: 20px; font-weight: bold; margin: 0;"">Is there a person in this image?</p>
                    </div>
                </div>","0","main_experiment_trial","4","supermarket_scheme","schematic_sequence","chronological","","","","","","",""
"","","","","","html-keyboard-response","46","195883","0.0-46.0","08E26F80E9DE41E68AE4C92993632286","019cfc98-e57e-7bdf-919c-1acef53bf9b6","019cfc7b-6c7b-7b1b-afe7-acad8efc6711","","null","
                <div class=""stimulus-container"">
                    <img src=""images/schematic_sequence/supermarket_scheme/supermarket_scheme_5.png"" class=""exp-image"">
                    <div class=""question-area""></div> 
                </div>","null","","","","","","","","","","","",""
"","","","","","html-button-response","47","196843","0.0-47.0","08E26F80E9DE41E68AE4C92993632286","019cfc98-e57e-7bdf-919c-1acef53bf9b6","019cfc7b-6c7b-7b1b-afe7-acad8efc6711","","959","
                <div class=""stimulus-container"">
                    <img src=""images/schematic_sequence/supermarket_scheme/supermarket_scheme_5.png"" class=""exp-image"">
                    <div class=""question-area"">
                        <p style=""font-size: 20px; font-weight: bold; margin: 0;"">Is there a person in this image?</p>
                    </div>
                </div>","1","main_experiment_trial","5","supermarket_scheme","schematic_sequence","chronological","","","","","","",""
"","","","","","html-keyboard-response","48","201853","0.0-48.0","08E26F80E9DE41E68AE4C92993632286","019cfc98-e57e-7bdf-919c-1acef53bf9b6","019cfc7b-6c7b-7b1b-afe7-acad8efc6711","","null","
                <div class=""stimulus-container"">
                    <img src=""images/schematic_sequence/supermarket_scheme/supermarket_scheme_6.png"" class=""exp-image"">
                    <div class=""question-area""></div> 
                </div>","null","","","","","","","","","","","",""
"","","","","","html-button-response","49","202682","0.0-49.0","08E26F80E9DE41E68AE4C92993632286","019cfc98-e57e-7bdf-919c-1acef53bf9b6","019cfc7b-6c7b-7b1b-afe7-acad8efc6711","","829","
                <div class=""stimulus-container"">
                    <img src=""images/schematic_sequence/supermarket_scheme/supermarket_scheme_6.png"" class=""exp-image"">
                    <div class=""question-area"">
                        <p style=""font-size: 20px; font-weight: bold; margin: 0;"">Is there a person in this image?</p>
                    </div>
                </div>","0","main_experiment_trial","6","supermarket_scheme","schematic_sequence","chronological","","","","","","",""
"","","","","","html-keyboard-response","50","207690","0.0-50.0","08E26F80E9DE41E68AE4C92993632286","019cfc98-e57e-7bdf-919c-1acef53bf9b6","019cfc7b-6c7b-7b1b-afe7-acad8efc6711","","null","
                <div class=""stimulus-container"">
                    <img src=""images/schematic_sequence/supermarket_scheme/supermarket_scheme_7.png"" class=""exp-image"">
                    <div class=""question-area""></div> 
                </div>","null","","","","","","","","","","","",""
"","","","","","html-button-response","51","208326","0.0-51.0","08E26F80E9DE41E68AE4C92993632286","019cfc98-e57e-7bdf-919c-1acef53bf9b6","019cfc7b-6c7b-7b1b-afe7-acad8efc6711","","636","
                <div class=""stimulus-container"">
                    <img src=""images/schematic_sequence/supermarket_scheme/supermarket_scheme_7.png"" class=""exp-image"">
                    <div class=""question-area"">
                        <p style=""font-size: 20px; font-weight: bold; margin: 0;"">Is there a person in this image?</p>
                    </div>
                </div>","0","main_experiment_trial","7","supermarket_scheme","schematic_sequence","chronological","","","","","","",""
"","","","","","html-keyboard-response","52","213338","0.0-52.0","08E26F80E9DE41E68AE4C92993632286","019cfc98-e57e-7bdf-919c-1acef53bf9b6","019cfc7b-6c7b-7b1b-afe7-acad8efc6711","","null","
                <div class=""stimulus-container"">
                    <img src=""images/schematic_sequence/supermarket_scheme/supermarket_scheme_8.png"" class=""exp-image"">
                    <div class=""question-area""></div> 
                </div>","null","","","","","","","","","","","",""
"","","","","","html-button-response","53","213972","0.0-53.0","08E26F80E9DE41E68AE4C92993632286","019cfc98-e57e-7bdf-919c-1acef53bf9b6","019cfc7b-6c7b-7b1b-afe7-acad8efc6711","","633","
                <div class=""stimulus-container"">
                    <img src=""images/schematic_sequence/supermarket_scheme/supermarket_scheme_8.png"" class=""exp-image"">
                    <div class=""question-area"">
                        <p style=""font-size: 20px; font-weight: bold; margin: 0;"">Is there a person in this image?</p>
                    </div>
                </div>","0","main_experiment_trial","8","supermarket_scheme","schematic_sequence","chronological","","","","","","",""
"","","","","","html-keyboard-response","54","218979","0.0-54.0","08E26F80E9DE41E68AE4C92993632286","019cfc98-e57e-7bdf-919c-1acef53bf9b6","019cfc7b-6c7b-7b1b-afe7-acad8efc6711","","null","
                <div class=""stimulus-container"">
                    <img src=""images/schematic_sequence/supermarket_scheme/supermarket_scheme_9.png"" class=""exp-image"">
                    <div class=""question-area""></div> 
                </div>","null","","","","","","","","","","","",""
"","","","","","html-button-response","55","219641","0.0-55.0","08E26F80E9DE41E68AE4C92993632286","019cfc98-e57e-7bdf-919c-1acef53bf9b6","019cfc7b-6c7b-7b1b-afe7-acad8efc6711","","661","
                <div class=""stimulus-container"">
                    <img src=""images/schematic_sequence/supermarket_scheme/supermarket_scheme_9.png"" class=""exp-image"">
                    <div class=""question-area"">
                        <p style=""font-size: 20px; font-weight: bold; margin: 0;"">Is there a person in this image?</p>
                    </div>
                </div>","0","main_experiment_trial","9","supermarket_scheme","schematic_sequence","chronological","","","","","","",""
"","","","","","html-keyboard-response","56","224650","0.0-56.0","08E26F80E9DE41E68AE4C92993632286","019cfc98-e57e-7bdf-919c-1acef53bf9b6","019cfc7b-6c7b-7b1b-afe7-acad8efc6711","","null","
                <div class=""stimulus-container"">
                    <img src=""images/schematic_sequence/supermarket_scheme/supermarket_scheme_ten.png"" class=""exp-image"">
                    <div class=""question-area""></div> 
                </div>","null","","","","","","","","","","","",""
"","","","","","html-button-response","57","225278","0.0-57.0","08E26F80E9DE41E68AE4C92993632286","019cfc98-e57e-7bdf-919c-1acef53bf9b6","019cfc7b-6c7b-7b1b-afe7-acad8efc6711","","627","
                <div class=""stimulus-container"">
                    <img src=""images/schematic_sequence/supermarket_scheme/supermarket_scheme_ten.png"" class=""exp-image"">
                    <div class=""question-area"">
                        <p style=""font-size: 20px; font-weight: bold; margin: 0;"">Is there a person in this image?</p>
                    </div>
                </div>","1","main_experiment_trial","ten","supermarket_scheme","schematic_sequence","chronological","","","","","","",""
"","","","","","html-keyboard-response","58","230287","0.0-58.0","08E26F80E9DE41E68AE4C92993632286","019cfc98-e57e-7bdf-919c-1acef53bf9b6","019cfc7b-6c7b-7b1b-afe7-acad8efc6711","","null","<div style=""background-color: white; width: 100vw; height: 100vh;""></div>","null","","","","","","","","","","","",""
"","","","","","html-keyboard-response","59","235297","0.0-59.0","08E26F80E9DE41E68AE4C92993632286","019cfc98-e57e-7bdf-919c-1acef53bf9b6","019cfc7b-6c7b-7b1b-afe7-acad8efc6711","","null","
                <div class=""stimulus-container"">
                    <img src=""images/semantic_sequence/physical_activity_semantic/physical_activity_semantic_1.png"" class=""exp-image"">
                    <div class=""question-area""></div> 
                </div>","null","","","","","","","","","","","",""
"","","","","","html-button-response","60","236424","0.0-60.0","08E26F80E9DE41E68AE4C92993632286","019cfc98-e57e-7bdf-919c-1acef53bf9b6","019cfc7b-6c7b-7b1b-afe7-acad8efc6711","","1125","
                <div class=""stimulus-container"">
                    <img src=""images/semantic_sequence/physical_activity_semantic/physical_activity_semantic_1.png"" class=""exp-image"">
                    <div class=""question-area"">
                        <p style=""font-size: 20px; font-weight: bold; margin: 0;"">Is there a person in this image?</p>
                    </div>
                </div>","0","main_experiment_trial","1","physical_activity_semantic","semantic_sequence","chronological","","","","","","",""
"","","","","","html-keyboard-response","61","241427","0.0-61.0","08E26F80E9DE41E68AE4C92993632286","019cfc98-e57e-7bdf-919c-1acef53bf9b6","019cfc7b-6c7b-7b1b-afe7-acad8efc6711","","null","
                <div class=""stimulus-container"">
                    <img src=""images/semantic_sequence/physical_activity_semantic/physical_activity_semantic_2.png"" class=""exp-image"">
                    <div class=""question-area""></div> 
                </div>","null","","","","","","","","","","","",""
"","","","","","html-button-response","62","242075","0.0-62.0","08E26F80E9DE41E68AE4C92993632286","019cfc98-e57e-7bdf-919c-1acef53bf9b6","019cfc7b-6c7b-7b1b-afe7-acad8efc6711","","647","
                <div class=""stimulus-container"">
                    <img src=""images/semantic_sequence/physical_activity_semantic/physical_activity_semantic_2.png"" class=""exp-image"">
                    <div class=""question-area"">
                        <p style=""font-size: 20px; font-weight: bold; margin: 0;"">Is there a person in this image?</p>
                    </div>
                </div>","0","main_experiment_trial","2","physical_activity_semantic","semantic_sequence","chronological","","","","","","",""
"","","","","","html-keyboard-response","63","247083","0.0-63.0","08E26F80E9DE41E68AE4C92993632286","019cfc98-e57e-7bdf-919c-1acef53bf9b6","019cfc7b-6c7b-7b1b-afe7-acad8efc6711","","null","
                <div class=""stimulus-container"">
                    <img src=""images/semantic_sequence/physical_activity_semantic/physical_activity_semantic_3.png"" class=""exp-image"">
                    <div class=""question-area""></div> 
                </div>","null","","","","","","","","","","","",""
"","","","","","html-button-response","64","247769","0.0-64.0","08E26F80E9DE41E68AE4C92993632286","019cfc98-e57e-7bdf-919c-1acef53bf9b6","019cfc7b-6c7b-7b1b-afe7-acad8efc6711","","685","
                <div class=""stimulus-container"">
                    <img src=""images/semantic_sequence/physical_activity_semantic/physical_activity_semantic_3.png"" class=""exp-image"">
                    <div class=""question-area"">
                        <p style=""font-size: 20px; font-weight: bold; margin: 0;"">Is there a person in this image?</p>
                    </div>
                </div>","0","main_experiment_trial","3","physical_activity_semantic","semantic_sequence","chronological","","","","","","",""
"","","","","","html-keyboard-response","65","252771","0.0-65.0","08E26F80E9DE41E68AE4C92993632286","019cfc98-e57e-7bdf-919c-1acef53bf9b6","019cfc7b-6c7b-7b1b-afe7-acad8efc6711","","null","
                <div class=""stimulus-container"">
                    <img src=""images/semantic_sequence/physical_activity_semantic/physical_activity_semantic_4.png"" class=""exp-image"">
                    <div class=""question-area""></div> 
                </div>","null","","","","","","","","","","","",""
"","","","","","html-button-response","66","253265","0.0-66.0","08E26F80E9DE41E68AE4C92993632286","019cfc98-e57e-7bdf-919c-1acef53bf9b6","019cfc7b-6c7b-7b1b-afe7-acad8efc6711","","492","
                <div class=""stimulus-container"">
                    <img src=""images/semantic_sequence/physical_activity_semantic/physical_activity_semantic_4.png"" class=""exp-image"">
                    <div class=""question-area"">
                        <p style=""font-size: 20px; font-weight: bold; margin: 0;"">Is there a person in this image?</p>
                    </div>
                </div>","0","main_experiment_trial","4","physical_activity_semantic","semantic_sequence","chronological","","","","","","",""
"","","","","","html-keyboard-response","67","258269","0.0-67.0","08E26F80E9DE41E68AE4C92993632286","019cfc98-e57e-7bdf-919c-1acef53bf9b6","019cfc7b-6c7b-7b1b-afe7-acad8efc6711","","null","
                <div class=""stimulus-container"">
                    <img src=""images/semantic_sequence/physical_activity_semantic/physical_activity_semantic_5.png"" class=""exp-image"">
                    <div class=""question-area""></div> 
                </div>","null","","","","","","","","","","","",""
"","","","","","html-button-response","68","258913","0.0-68.0","08E26F80E9DE41E68AE4C92993632286","019cfc98-e57e-7bdf-919c-1acef53bf9b6","019cfc7b-6c7b-7b1b-afe7-acad8efc6711","","643","
                <div class=""stimulus-container"">
                    <img src=""images/semantic_sequence/physical_activity_semantic/physical_activity_semantic_5.png"" class=""exp-image"">
                    <div class=""question-area"">
                        <p style=""font-size: 20px; font-weight: bold; margin: 0;"">Is there a person in this image?</p>
                    </div>
                </div>","0","main_experiment_trial","5","physical_activity_semantic","semantic_sequence","chronological","","","","","","",""
"","","","","","html-keyboard-response","69","263926","0.0-69.0","08E26F80E9DE41E68AE4C92993632286","019cfc98-e57e-7bdf-919c-1acef53bf9b6","019cfc7b-6c7b-7b1b-afe7-acad8efc6711","","null","
                <div class=""stimulus-container"">
                    <img src=""images/semantic_sequence/physical_activity_semantic/physical_activity_semantic_6.png"" class=""exp-image"">
                    <div class=""question-area""></div> 
                </div>","null","","","","","","","","","","","",""
"","","","","","html-button-response","70","264615","0.0-70.0","08E26F80E9DE41E68AE4C92993632286","019cfc98-e57e-7bdf-919c-1acef53bf9b6","019cfc7b-6c7b-7b1b-afe7-acad8efc6711","","687","
                <div class=""stimulus-container"">
                    <img src=""images/semantic_sequence/physical_activity_semantic/physical_activity_semantic_6.png"" class=""exp-image"">
                    <div class=""question-area"">
                        <p style=""font-size: 20px; font-weight: bold; margin: 0;"">Is there a person in this image?</p>
                    </div>
                </div>","0","main_experiment_trial","6","physical_activity_semantic","semantic_sequence","chronological","","","","","","",""
"","","","","","html-keyboard-response","71","269629","0.0-71.0","08E26F80E9DE41E68AE4C92993632286","019cfc98-e57e-7bdf-919c-1acef53bf9b6","019cfc7b-6c7b-7b1b-afe7-acad8efc6711","","null","
                <div class=""stimulus-container"">
                    <img src=""images/semantic_sequence/physical_activity_semantic/physical_activity_semantic_7.png"" class=""exp-image"">
                    <div class=""question-area""></div> 
                </div>","null","","","","","","","","","","","",""
"","","","","","html-button-response","72","270340","0.0-72.0","08E26F80E9DE41E68AE4C92993632286","019cfc98-e57e-7bdf-919c-1acef53bf9b6","019cfc7b-6c7b-7b1b-afe7-acad8efc6711","","709","
                <div class=""stimulus-container"">
                    <img src=""images/semantic_sequence/physical_activity_semantic/physical_activity_semantic_7.png"" class=""exp-image"">
                    <div class=""question-area"">
                        <p style=""font-size: 20px; font-weight: bold; margin: 0;"">Is there a person in this image?</p>
                    </div>
                </div>","0","main_experiment_trial","7","physical_activity_semantic","semantic_sequence","chronological","","","","","","",""
"","","","","","html-keyboard-response","73","275349","0.0-73.0","08E26F80E9DE41E68AE4C92993632286","019cfc98-e57e-7bdf-919c-1acef53bf9b6","019cfc7b-6c7b-7b1b-afe7-acad8efc6711","","null","
                <div class=""stimulus-container"">
                    <img src=""images/semantic_sequence/physical_activity_semantic/physical_activity_semantic_8.png"" class=""exp-image"">
                    <div class=""question-area""></div> 
                </div>","null","","","","","","","","","","","",""
"","","","","","html-button-response","74","276218","0.0-74.0","08E26F80E9DE41E68AE4C92993632286","019cfc98-e57e-7bdf-919c-1acef53bf9b6","019cfc7b-6c7b-7b1b-afe7-acad8efc6711","","868","
                <div class=""stimulus-container"">
                    <img src=""images/semantic_sequence/physical_activity_semantic/physical_activity_semantic_8.png"" class=""exp-image"">
                    <div class=""question-area"">
                        <p style=""font-size: 20px; font-weight: bold; margin: 0;"">Is there a person in this image?</p>
                    </div>
                </div>","0","main_experiment_trial","8","physical_activity_semantic","semantic_sequence","chronological","","","","","","",""
"","","","","","html-keyboard-response","75","281225","0.0-75.0","08E26F80E9DE41E68AE4C92993632286","019cfc98-e57e-7bdf-919c-1acef53bf9b6","019cfc7b-6c7b-7b1b-afe7-acad8efc6711","","null","
                <div class=""stimulus-container"">
                    <img src=""images/semantic_sequence/physical_activity_semantic/physical_activity_semantic_9.png"" class=""exp-image"">
                    <div class=""question-area""></div> 
                </div>","null","","","","","","","","","","","",""
"","","","","","html-button-response","76","281811","0.0-76.0","08E26F80E9DE41E68AE4C92993632286","019cfc98-e57e-7bdf-919c-1acef53bf9b6","019cfc7b-6c7b-7b1b-afe7-acad8efc6711","","585","
                <div class=""stimulus-container"">
                    <img src=""images/semantic_sequence/physical_activity_semantic/physical_activity_semantic_9.png"" class=""exp-image"">
                    <div class=""question-area"">
                        <p style=""font-size: 20px; font-weight: bold; margin: 0;"">Is there a person in this image?</p>
                    </div>
                </div>","0","main_experiment_trial","9","physical_activity_semantic","semantic_sequence","chronological","","","","","","",""
"","","","","","html-keyboard-response","77","286817","0.0-77.0","08E26F80E9DE41E68AE4C92993632286","019cfc98-e57e-7bdf-919c-1acef53bf9b6","019cfc7b-6c7b-7b1b-afe7-acad8efc6711","","null","
                <div class=""stimulus-container"">
                    <img src=""images/semantic_sequence/physical_activity_semantic/physical_activity_semantic_ten.png"" class=""exp-image"">
                    <div class=""question-area""></div> 
                </div>","null","","","","","","","","","","","",""
"","","","","","html-button-response","78","287952","0.0-78.0","08E26F80E9DE41E68AE4C92993632286","019cfc98-e57e-7bdf-919c-1acef53bf9b6","019cfc7b-6c7b-7b1b-afe7-acad8efc6711","","1134","
                <div class=""stimulus-container"">
                    <img src=""images/semantic_sequence/physical_activity_semantic/physical_activity_semantic_ten.png"" class=""exp-image"">
                    <div class=""question-area"">
                        <p style=""font-size: 20px; font-weight: bold; margin: 0;"">Is there a person in this image?</p>
                    </div>
                </div>","0","main_experiment_trial","ten","physical_activity_semantic","semantic_sequence","chronological","","","","","","",""
"","","","","","html-keyboard-response","79","292952","0.0-79.0","08E26F80E9DE41E68AE4C92993632286","019cfc98-e57e-7bdf-919c-1acef53bf9b6","019cfc7b-6c7b-7b1b-afe7-acad8efc6711","","null","<div style=""background-color: white; width: 100vw; height: 100vh;""></div>","null","","","","","","","","","","","",""
"","","","","","html-keyboard-response","80","297966","0.0-80.0","08E26F80E9DE41E68AE4C92993632286","019cfc98-e57e-7bdf-919c-1acef53bf9b6","019cfc7b-6c7b-7b1b-afe7-acad8efc6711","","null","
                <div class=""stimulus-container"">
                    <img src=""images/semantic_sequence/housework_semantic/housework_semantic_1.png"" class=""exp-image"">
                    <div class=""question-area""></div> 
                </div>","null","","","","","","","","","","","",""
"","","","","","html-button-response","81","299306","0.0-81.0","08E26F80E9DE41E68AE4C92993632286","019cfc98-e57e-7bdf-919c-1acef53bf9b6","019cfc7b-6c7b-7b1b-afe7-acad8efc6711","","1340","
                <div class=""stimulus-container"">
                    <img src=""images/semantic_sequence/housework_semantic/housework_semantic_1.png"" class=""exp-image"">
                    <div class=""question-area"">
                        <p style=""font-size: 20px; font-weight: bold; margin: 0;"">Is there a person in this image?</p>
                    </div>
                </div>","1","main_experiment_trial","1","housework_semantic","semantic_sequence","chronological","","","","","","",""
"","","","","","html-keyboard-response","82","304310","0.0-82.0","08E26F80E9DE41E68AE4C92993632286","019cfc98-e57e-7bdf-919c-1acef53bf9b6","019cfc7b-6c7b-7b1b-afe7-acad8efc6711","","null","
                <div class=""stimulus-container"">
                    <img src=""images/semantic_sequence/housework_semantic/housework_semantic_2.png"" class=""exp-image"">
                    <div class=""question-area""></div> 
                </div>","null","","","","","","","","","","","",""
"","","","","","html-button-response","83","305232","0.0-83.0","08E26F80E9DE41E68AE4C92993632286","019cfc98-e57e-7bdf-919c-1acef53bf9b6","019cfc7b-6c7b-7b1b-afe7-acad8efc6711","","920","
                <div class=""stimulus-container"">
                    <img src=""images/semantic_sequence/housework_semantic/housework_semantic_2.png"" class=""exp-image"">
                    <div class=""question-area"">
                        <p style=""font-size: 20px; font-weight: bold; margin: 0;"">Is there a person in this image?</p>
                    </div>
                </div>","0","main_experiment_trial","2","housework_semantic","semantic_sequence","chronological","","","","","","",""
"","","","","","html-keyboard-response","84","310240","0.0-84.0","08E26F80E9DE41E68AE4C92993632286","019cfc98-e57e-7bdf-919c-1acef53bf9b6","019cfc7b-6c7b-7b1b-afe7-acad8efc6711","","null","
                <div class=""stimulus-container"">
                    <img src=""images/semantic_sequence/housework_semantic/housework_semantic_3.png"" class=""exp-image"">
                    <div class=""question-area""></div> 
                </div>","null","","","","","","","","","","","",""
"","","","","","html-button-response","85","310844","0.0-85.0","08E26F80E9DE41E68AE4C92993632286","019cfc98-e57e-7bdf-919c-1acef53bf9b6","019cfc7b-6c7b-7b1b-afe7-acad8efc6711","","603","
                <div class=""stimulus-container"">
                    <img src=""images/semantic_sequence/housework_semantic/housework_semantic_3.png"" class=""exp-image"">
                    <div class=""question-area"">
                        <p style=""font-size: 20px; font-weight: bold; margin: 0;"">Is there a person in this image?</p>
                    </div>
                </div>","0","main_experiment_trial","3","housework_semantic","semantic_sequence","chronological","","","","","","",""
"","","","","","html-keyboard-response","86","315854","0.0-86.0","08E26F80E9DE41E68AE4C92993632286","019cfc98-e57e-7bdf-919c-1acef53bf9b6","019cfc7b-6c7b-7b1b-afe7-acad8efc6711","","null","
                <div class=""stimulus-container"">
                    <img src=""images/semantic_sequence/housework_semantic/housework_semantic_4.png"" class=""exp-image"">
                    <div class=""question-area""></div> 
                </div>","null","","","","","","","","","","","",""
"","","","","","html-button-response","87","316316","0.0-87.0","08E26F80E9DE41E68AE4C92993632286","019cfc98-e57e-7bdf-919c-1acef53bf9b6","019cfc7b-6c7b-7b1b-afe7-acad8efc6711","","462","
                <div class=""stimulus-container"">
                    <img src=""images/semantic_sequence/housework_semantic/housework_semantic_4.png"" class=""exp-image"">
                    <div class=""question-area"">
                        <p style=""font-size: 20px; font-weight: bold; margin: 0;"">Is there a person in this image?</p>
                    </div>
                </div>","0","main_experiment_trial","4","housework_semantic","semantic_sequence","chronological","","","","","","",""
"","","","","","html-keyboard-response","88","321318","0.0-88.0","08E26F80E9DE41E68AE4C92993632286","019cfc98-e57e-7bdf-919c-1acef53bf9b6","019cfc7b-6c7b-7b1b-afe7-acad8efc6711","","null","
                <div class=""stimulus-container"">
                    <img src=""images/semantic_sequence/housework_semantic/housework_semantic_5.png"" class=""exp-image"">
                    <div class=""question-area""></div> 
                </div>","null","","","","","","","","","","","",""
"","","","","","html-button-response","89","323267","0.0-89.0","08E26F80E9DE41E68AE4C92993632286","019cfc98-e57e-7bdf-919c-1acef53bf9b6","019cfc7b-6c7b-7b1b-afe7-acad8efc6711","","1948","
                <div class=""stimulus-container"">
                    <img src=""images/semantic_sequence/housework_semantic/housework_semantic_5.png"" class=""exp-image"">
                    <div class=""question-area"">
                        <p style=""font-size: 20px; font-weight: bold; margin: 0;"">Is there a person in this image?</p>
                    </div>
                </div>","0","main_experiment_trial","5","housework_semantic","semantic_sequence","chronological","","","","","","",""
"","","","","","html-keyboard-response","90","328280","0.0-90.0","08E26F80E9DE41E68AE4C92993632286","019cfc98-e57e-7bdf-919c-1acef53bf9b6","019cfc7b-6c7b-7b1b-afe7-acad8efc6711","","null","
                <div class=""stimulus-container"">
                    <img src=""images/semantic_sequence/housework_semantic/housework_semantic_6.png"" class=""exp-image"">
                    <div class=""question-area""></div> 
                </div>","null","","","","","","","","","","","",""
"","","","","","html-button-response","91","331296","0.0-91.0","08E26F80E9DE41E68AE4C92993632286","019cfc98-e57e-7bdf-919c-1acef53bf9b6","019cfc7b-6c7b-7b1b-afe7-acad8efc6711","","null","
                <div class=""stimulus-container"">
                    <img src=""images/semantic_sequence/housework_semantic/housework_semantic_6.png"" class=""exp-image"">
                    <div class=""question-area"">
                        <p style=""font-size: 20px; font-weight: bold; margin: 0;"">Is there a person in this image?</p>
                    </div>
                </div>","null","main_experiment_trial","6","housework_semantic","semantic_sequence","chronological","","","","","","",""
"","","","","","html-keyboard-response","92","336301","0.0-92.0","08E26F80E9DE41E68AE4C92993632286","019cfc98-e57e-7bdf-919c-1acef53bf9b6","019cfc7b-6c7b-7b1b-afe7-acad8efc6711","","null","
                <div class=""stimulus-container"">
                    <img src=""images/semantic_sequence/housework_semantic/housework_semantic_7.png"" class=""exp-image"">
                    <div class=""question-area""></div> 
                </div>","null","","","","","","","","","","","",""
"","","","","","html-button-response","93","338004","0.0-93.0","08E26F80E9DE41E68AE4C92993632286","019cfc98-e57e-7bdf-919c-1acef53bf9b6","019cfc7b-6c7b-7b1b-afe7-acad8efc6711","","1702","
                <div class=""stimulus-container"">
                    <img src=""images/semantic_sequence/housework_semantic/housework_semantic_7.png"" class=""exp-image"">
                    <div class=""question-area"">
                        <p style=""font-size: 20px; font-weight: bold; margin: 0;"">Is there a person in this image?</p>
                    </div>
                </div>","1","main_experiment_trial","7","housework_semantic","semantic_sequence","chronological","","","","","","",""
"","","","","","html-keyboard-response","94","343014","0.0-94.0","08E26F80E9DE41E68AE4C92993632286","019cfc98-e57e-7bdf-919c-1acef53bf9b6","019cfc7b-6c7b-7b1b-afe7-acad8efc6711","","null","
                <div class=""stimulus-container"">
                    <img src=""images/semantic_sequence/housework_semantic/housework_semantic_8.png"" class=""exp-image"">
                    <div class=""question-area""></div> 
                </div>","null","","","","","","","","","","","",""
"","","","","","html-button-response","95","344392","0.0-95.0","08E26F80E9DE41E68AE4C92993632286","019cfc98-e57e-7bdf-919c-1acef53bf9b6","019cfc7b-6c7b-7b1b-afe7-acad8efc6711","","1377","
                <div class=""stimulus-container"">
                    <img src=""images/semantic_sequence/housework_semantic/housework_semantic_8.png"" class=""exp-image"">
                    <div class=""question-area"">
                        <p style=""font-size: 20px; font-weight: bold; margin: 0;"">Is there a person in this image?</p>
                    </div>
                </div>","0","main_experiment_trial","8","housework_semantic","semantic_sequence","chronological","","","","","","",""
"","","","","","html-keyboard-response","96","349407","0.0-96.0","08E26F80E9DE41E68AE4C92993632286","019cfc98-e57e-7bdf-919c-1acef53bf9b6","019cfc7b-6c7b-7b1b-afe7-acad8efc6711","","null","
                <div class=""stimulus-container"">
                    <img src=""images/semantic_sequence/housework_semantic/housework_semantic_9.png"" class=""exp-image"">
                    <div class=""question-area""></div> 
                </div>","null","","","","","","","","","","","",""
"","","","","","html-button-response","97","350276","0.0-97.0","08E26F80E9DE41E68AE4C92993632286","019cfc98-e57e-7bdf-919c-1acef53bf9b6","019cfc7b-6c7b-7b1b-afe7-acad8efc6711","","868","
                <div class=""stimulus-container"">
                    <img src=""images/semantic_sequence/housework_semantic/housework_semantic_9.png"" class=""exp-image"">
                    <div class=""question-area"">
                        <p style=""font-size: 20px; font-weight: bold; margin: 0;"">Is there a person in this image?</p>
                    </div>
                </div>","0","main_experiment_trial","9","housework_semantic","semantic_sequence","chronological","","","","","","",""
"","","","","","html-keyboard-response","98","355272","0.0-98.0","08E26F80E9DE41E68AE4C92993632286","019cfc98-e57e-7bdf-919c-1acef53bf9b6","019cfc7b-6c7b-7b1b-afe7-acad8efc6711","","null","
                <div class=""stimulus-container"">
                    <img src=""images/semantic_sequence/housework_semantic/housework_semantic_ten.png"" class=""exp-image"">
                    <div class=""question-area""></div> 
                </div>","null","","","","","","","","","","","",""
"","","","","","html-button-response","99","355772","0.0-99.0","08E26F80E9DE41E68AE4C92993632286","019cfc98-e57e-7bdf-919c-1acef53bf9b6","019cfc7b-6c7b-7b1b-afe7-acad8efc6711","","498","
                <div class=""stimulus-container"">
                    <img src=""images/semantic_sequence/housework_semantic/housework_semantic_ten.png"" class=""exp-image"">
                    <div class=""question-area"">
                        <p style=""font-size: 20px; font-weight: bold; margin: 0;"">Is there a person in this image?</p>
                    </div>
                </div>","0","main_experiment_trial","ten","housework_semantic","semantic_sequence","chronological","","","","","","",""
"","","","","","html-keyboard-response","100","360773","0.0-100.0","08E26F80E9DE41E68AE4C92993632286","019cfc98-e57e-7bdf-919c-1acef53bf9b6","019cfc7b-6c7b-7b1b-afe7-acad8efc6711","","null","<div style=""background-color: white; width: 100vw; height: 100vh;""></div>","null","","","","","","","","","","","",""
"","","","","","html-keyboard-response","101","365788","0.0-101.0","08E26F80E9DE41E68AE4C92993632286","019cfc98-e57e-7bdf-919c-1acef53bf9b6","019cfc7b-6c7b-7b1b-afe7-acad8efc6711","","null","
                <div class=""stimulus-container"">
                    <img src=""images/causal_sequence/dog_causal/dog_causal_1.png"" class=""exp-image"">
                    <div class=""question-area""></div> 
                </div>","null","","","","","","","","","","","",""
"","","","","","html-button-response","102","366839","0.0-102.0","08E26F80E9DE41E68AE4C92993632286","019cfc98-e57e-7bdf-919c-1acef53bf9b6","019cfc7b-6c7b-7b1b-afe7-acad8efc6711","","1049","
                <div class=""stimulus-container"">
                    <img src=""images/causal_sequence/dog_causal/dog_causal_1.png"" class=""exp-image"">
                    <div class=""question-area"">
                        <p style=""font-size: 20px; font-weight: bold; margin: 0;"">Is there a person in this image?</p>
                    </div>
                </div>","0","main_experiment_trial","1","dog_causal","causal_sequence","chronological","","","","","","",""
"","","","","","html-keyboard-response","103","371839","0.0-103.0","08E26F80E9DE41E68AE4C92993632286","019cfc98-e57e-7bdf-919c-1acef53bf9b6","019cfc7b-6c7b-7b1b-afe7-acad8efc6711","","null","
                <div class=""stimulus-container"">
                    <img src=""images/causal_sequence/dog_causal/dog_causal_2.png"" class=""exp-image"">
                    <div class=""question-area""></div> 
                </div>","null","","","","","","","","","","","",""
"","","","","","html-button-response","104","372646","0.0-104.0","08E26F80E9DE41E68AE4C92993632286","019cfc98-e57e-7bdf-919c-1acef53bf9b6","019cfc7b-6c7b-7b1b-afe7-acad8efc6711","","806","
                <div class=""stimulus-container"">
                    <img src=""images/causal_sequence/dog_causal/dog_causal_2.png"" class=""exp-image"">
                    <div class=""question-area"">
                        <p style=""font-size: 20px; font-weight: bold; margin: 0;"">Is there a person in this image?</p>
                    </div>
                </div>","0","main_experiment_trial","2","dog_causal","causal_sequence","chronological","","","","","","",""
"","","","","","html-keyboard-response","105","377649","0.0-105.0","08E26F80E9DE41E68AE4C92993632286","019cfc98-e57e-7bdf-919c-1acef53bf9b6","019cfc7b-6c7b-7b1b-afe7-acad8efc6711","","null","
                <div class=""stimulus-container"">
                    <img src=""images/causal_sequence/dog_causal/dog_causal_3.png"" class=""exp-image"">
                    <div class=""question-area""></div> 
                </div>","null","","","","","","","","","","","",""
"","","","","","html-button-response","106","378374","0.0-106.0","08E26F80E9DE41E68AE4C92993632286","019cfc98-e57e-7bdf-919c-1acef53bf9b6","019cfc7b-6c7b-7b1b-afe7-acad8efc6711","","724","
                <div class=""stimulus-container"">
                    <img src=""images/causal_sequence/dog_causal/dog_causal_3.png"" class=""exp-image"">
                    <div class=""question-area"">
                        <p style=""font-size: 20px; font-weight: bold; margin: 0;"">Is there a person in this image?</p>
                    </div>
                </div>","0","main_experiment_trial","3","dog_causal","causal_sequence","chronological","","","","","","",""
"","","","","","html-keyboard-response","107","383384","0.0-107.0","08E26F80E9DE41E68AE4C92993632286","019cfc98-e57e-7bdf-919c-1acef53bf9b6","019cfc7b-6c7b-7b1b-afe7-acad8efc6711","","null","
                <div class=""stimulus-container"">
                    <img src=""images/causal_sequence/dog_causal/dog_causal_4.png"" class=""exp-image"">
                    <div class=""question-area""></div> 
                </div>","null","","","","","","","","","","","",""
"","","","","","html-button-response","108","383878","0.0-108.0","08E26F80E9DE41E68AE4C92993632286","019cfc98-e57e-7bdf-919c-1acef53bf9b6","019cfc7b-6c7b-7b1b-afe7-acad8efc6711","","493","
                <div class=""stimulus-container"">
                    <img src=""images/causal_sequence/dog_causal/dog_causal_4.png"" class=""exp-image"">
                    <div class=""question-area"">
                        <p style=""font-size: 20px; font-weight: bold; margin: 0;"">Is there a person in this image?</p>
                    </div>
                </div>","0","main_experiment_trial","4","dog_causal","causal_sequence","chronological","","","","","","",""
"","","","","","html-keyboard-response","109","388884","0.0-109.0","08E26F80E9DE41E68AE4C92993632286","019cfc98-e57e-7bdf-919c-1acef53bf9b6","019cfc7b-6c7b-7b1b-afe7-acad8efc6711","","null","
                <div class=""stimulus-container"">
                    <img src=""images/causal_sequence/dog_causal/dog_causal_5.png"" class=""exp-image"">
                    <div class=""question-area""></div> 
                </div>","null","","","","","","","","","","","",""
"","","","","","html-button-response","110","389315","0.0-110.0","08E26F80E9DE41E68AE4C92993632286","019cfc98-e57e-7bdf-919c-1acef53bf9b6","019cfc7b-6c7b-7b1b-afe7-acad8efc6711","","431","
                <div class=""stimulus-container"">
                    <img src=""images/causal_sequence/dog_causal/dog_causal_5.png"" class=""exp-image"">
                    <div class=""question-area"">
                        <p style=""font-size: 20px; font-weight: bold; margin: 0;"">Is there a person in this image?</p>
                    </div>
                </div>","0","main_experiment_trial","5","dog_causal","causal_sequence","chronological","","","","","","",""
"","","","","","html-keyboard-response","111","394318","0.0-111.0","08E26F80E9DE41E68AE4C92993632286","019cfc98-e57e-7bdf-919c-1acef53bf9b6","019cfc7b-6c7b-7b1b-afe7-acad8efc6711","","null","
                <div class=""stimulus-container"">
                    <img src=""images/causal_sequence/dog_causal/dog_causal_6.png"" class=""exp-image"">
                    <div class=""question-area""></div> 
                </div>","null","","","","","","","","","","","",""
"","","","","","html-button-response","112","394761","0.0-112.0","08E26F80E9DE41E68AE4C92993632286","019cfc98-e57e-7bdf-919c-1acef53bf9b6","019cfc7b-6c7b-7b1b-afe7-acad8efc6711","","442","
                <div class=""stimulus-container"">
                    <img src=""images/causal_sequence/dog_causal/dog_causal_6.png"" class=""exp-image"">
                    <div class=""question-area"">
                        <p style=""font-size: 20px; font-weight: bold; margin: 0;"">Is there a person in this image?</p>
                    </div>
                </div>","0","main_experiment_trial","6","dog_causal","causal_sequence","chronological","","","","","","",""
"","","","","","html-keyboard-response","113","399776","0.0-113.0","08E26F80E9DE41E68AE4C92993632286","019cfc98-e57e-7bdf-919c-1acef53bf9b6","019cfc7b-6c7b-7b1b-afe7-acad8efc6711","","null","
                <div class=""stimulus-container"">
                    <img src=""images/causal_sequence/dog_causal/dog_causal_7.png"" class=""exp-image"">
                    <div class=""question-area""></div> 
                </div>","null","","","","","","","","","","","",""
"","","","","","html-button-response","114","400334","0.0-114.0","08E26F80E9DE41E68AE4C92993632286","019cfc98-e57e-7bdf-919c-1acef53bf9b6","019cfc7b-6c7b-7b1b-afe7-acad8efc6711","","556","
                <div class=""stimulus-container"">
                    <img src=""images/causal_sequence/dog_causal/dog_causal_7.png"" class=""exp-image"">
                    <div class=""question-area"">
                        <p style=""font-size: 20px; font-weight: bold; margin: 0;"">Is there a person in this image?</p>
                    </div>
                </div>","0","main_experiment_trial","7","dog_causal","causal_sequence","chronological","","","","","","",""
"","","","","","html-keyboard-response","115","405351","0.0-115.0","08E26F80E9DE41E68AE4C92993632286","019cfc98-e57e-7bdf-919c-1acef53bf9b6","019cfc7b-6c7b-7b1b-afe7-acad8efc6711","","null","
                <div class=""stimulus-container"">
                    <img src=""images/causal_sequence/dog_causal/dog_causal_8.png"" class=""exp-image"">
                    <div class=""question-area""></div> 
                </div>","null","","","","","","","","","","","",""
"","","","","","html-button-response","116","405876","0.0-116.0","08E26F80E9DE41E68AE4C92993632286","019cfc98-e57e-7bdf-919c-1acef53bf9b6","019cfc7b-6c7b-7b1b-afe7-acad8efc6711","","524","
                <div class=""stimulus-container"">
                    <img src=""images/causal_sequence/dog_causal/dog_causal_8.png"" class=""exp-image"">
                    <div class=""question-area"">
                        <p style=""font-size: 20px; font-weight: bold; margin: 0;"">Is there a person in this image?</p>
                    </div>
                </div>","0","main_experiment_trial","8","dog_causal","causal_sequence","chronological","","","","","","",""
"","","","","","html-keyboard-response","117","410883","0.0-117.0","08E26F80E9DE41E68AE4C92993632286","019cfc98-e57e-7bdf-919c-1acef53bf9b6","019cfc7b-6c7b-7b1b-afe7-acad8efc6711","","null","
                <div class=""stimulus-container"">
                    <img src=""images/causal_sequence/dog_causal/dog_causal_9.png"" class=""exp-image"">
                    <div class=""question-area""></div> 
                </div>","null","","","","","","","","","","","",""
"","","","","","html-button-response","118","411637","0.0-118.0","08E26F80E9DE41E68AE4C92993632286","019cfc98-e57e-7bdf-919c-1acef53bf9b6","019cfc7b-6c7b-7b1b-afe7-acad8efc6711","","753","
                <div class=""stimulus-container"">
                    <img src=""images/causal_sequence/dog_causal/dog_causal_9.png"" class=""exp-image"">
                    <div class=""question-area"">
                        <p style=""font-size: 20px; font-weight: bold; margin: 0;"">Is there a person in this image?</p>
                    </div>
                </div>","0","main_experiment_trial","9","dog_causal","causal_sequence","chronological","","","","","","",""
"","","","","","html-keyboard-response","119","416641","0.0-119.0","08E26F80E9DE41E68AE4C92993632286","019cfc98-e57e-7bdf-919c-1acef53bf9b6","019cfc7b-6c7b-7b1b-afe7-acad8efc6711","","null","
                <div class=""stimulus-container"">
                    <img src=""images/causal_sequence/dog_causal/dog_causal_ten.png"" class=""exp-image"">
                    <div class=""question-area""></div> 
                </div>","null","","","","","","","","","","","",""
"","","","","","html-button-response","120","417028","0.0-120.0","08E26F80E9DE41E68AE4C92993632286","019cfc98-e57e-7bdf-919c-1acef53bf9b6","019cfc7b-6c7b-7b1b-afe7-acad8efc6711","","386","
                <div class=""stimulus-container"">
                    <img src=""images/causal_sequence/dog_causal/dog_causal_ten.png"" class=""exp-image"">
                    <div class=""question-area"">
                        <p style=""font-size: 20px; font-weight: bold; margin: 0;"">Is there a person in this image?</p>
                    </div>
                </div>","0","main_experiment_trial","ten","dog_causal","causal_sequence","chronological","","","","","","",""
"","","","","","html-keyboard-response","121","422032","0.0-121.0","08E26F80E9DE41E68AE4C92993632286","019cfc98-e57e-7bdf-919c-1acef53bf9b6","019cfc7b-6c7b-7b1b-afe7-acad8efc6711","","null","<div style=""background-color: white; width: 100vw; height: 100vh;""></div>","null","","","","","","","","","","","",""
"","","","","","html-keyboard-response","122","427047","0.0-122.0","08E26F80E9DE41E68AE4C92993632286","019cfc98-e57e-7bdf-919c-1acef53bf9b6","019cfc7b-6c7b-7b1b-afe7-acad8efc6711","","null","
                <div class=""stimulus-container"">
                    <img src=""images/causal_sequence/saving_a_cat_causal/saving_a_cat_causal_1.png"" class=""exp-image"">
                    <div class=""question-area""></div> 
                </div>","null","","","","","","","","","","","",""
"","","","","","html-button-response","123","427523","0.0-123.0","08E26F80E9DE41E68AE4C92993632286","019cfc98-e57e-7bdf-919c-1acef53bf9b6","019cfc7b-6c7b-7b1b-afe7-acad8efc6711","","474","
                <div class=""stimulus-container"">
                    <img src=""images/causal_sequence/saving_a_cat_causal/saving_a_cat_causal_1.png"" class=""exp-image"">
                    <div class=""question-area"">
                        <p style=""font-size: 20px; font-weight: bold; margin: 0;"">Is there a person in this image?</p>
                    </div>
                </div>","0","main_experiment_trial","1","saving_a_cat_causal","causal_sequence","chronological","","","","","","",""
"","","","","","html-keyboard-response","124","432533","0.0-124.0","08E26F80E9DE41E68AE4C92993632286","019cfc98-e57e-7bdf-919c-1acef53bf9b6","019cfc7b-6c7b-7b1b-afe7-acad8efc6711","","null","
                <div class=""stimulus-container"">
                    <img src=""images/causal_sequence/saving_a_cat_causal/saving_a_cat_causal_2.png"" class=""exp-image"">
                    <div class=""question-area""></div> 
                </div>","null","","","","","","","","","","","",""
"","","","","","html-button-response","125","433430","0.0-125.0","08E26F80E9DE41E68AE4C92993632286","019cfc98-e57e-7bdf-919c-1acef53bf9b6","019cfc7b-6c7b-7b1b-afe7-acad8efc6711","","897","
                <div class=""stimulus-container"">
                    <img src=""images/causal_sequence/saving_a_cat_causal/saving_a_cat_causal_2.png"" class=""exp-image"">
                    <div class=""question-area"">
                        <p style=""font-size: 20px; font-weight: bold; margin: 0;"">Is there a person in this image?</p>
                    </div>
                </div>","1","main_experiment_trial","2","saving_a_cat_causal","causal_sequence","chronological","","","","","","",""
"","","","","","html-keyboard-response","126","438439","0.0-126.0","08E26F80E9DE41E68AE4C92993632286","019cfc98-e57e-7bdf-919c-1acef53bf9b6","019cfc7b-6c7b-7b1b-afe7-acad8efc6711","","null","
                <div class=""stimulus-container"">
                    <img src=""images/causal_sequence/saving_a_cat_causal/saving_a_cat_causal_3.png"" class=""exp-image"">
                    <div class=""question-area""></div> 
                </div>","null","","","","","","","","","","","",""
"","","","","","html-button-response","127","439103","0.0-127.0","08E26F80E9DE41E68AE4C92993632286","019cfc98-e57e-7bdf-919c-1acef53bf9b6","019cfc7b-6c7b-7b1b-afe7-acad8efc6711","","663","
                <div class=""stimulus-container"">
                    <img src=""images/causal_sequence/saving_a_cat_causal/saving_a_cat_causal_3.png"" class=""exp-image"">
                    <div class=""question-area"">
                        <p style=""font-size: 20px; font-weight: bold; margin: 0;"">Is there a person in this image?</p>
                    </div>
                </div>","1","main_experiment_trial","3","saving_a_cat_causal","causal_sequence","chronological","","","","","","",""
"","","","","","html-keyboard-response","128","444111","0.0-128.0","08E26F80E9DE41E68AE4C92993632286","019cfc98-e57e-7bdf-919c-1acef53bf9b6","019cfc7b-6c7b-7b1b-afe7-acad8efc6711","","null","
                <div class=""stimulus-container"">
                    <img src=""images/causal_sequence/saving_a_cat_causal/saving_a_cat_causal_4.png"" class=""exp-image"">
                    <div class=""question-area""></div> 
                </div>","null","","","","","","","","","","","",""
"","","","","","html-button-response","129","444772","0.0-129.0","08E26F80E9DE41E68AE4C92993632286","019cfc98-e57e-7bdf-919c-1acef53bf9b6","019cfc7b-6c7b-7b1b-afe7-acad8efc6711","","661","
                <div class=""stimulus-container"">
                    <img src=""images/causal_sequence/saving_a_cat_causal/saving_a_cat_causal_4.png"" class=""exp-image"">
                    <div class=""question-area"">
                        <p style=""font-size: 20px; font-weight: bold; margin: 0;"">Is there a person in this image?</p>
                    </div>
                </div>","0","main_experiment_trial","4","saving_a_cat_causal","causal_sequence","chronological","","","","","","",""
"","","","","","html-keyboard-response","130","449783","0.0-130.0","08E26F80E9DE41E68AE4C92993632286","019cfc98-e57e-7bdf-919c-1acef53bf9b6","019cfc7b-6c7b-7b1b-afe7-acad8efc6711","","null","
                <div class=""stimulus-container"">
                    <img src=""images/causal_sequence/saving_a_cat_causal/saving_a_cat_causal_5.png"" class=""exp-image"">
                    <div class=""question-area""></div> 
                </div>","null","","","","","","","","","","","",""
"","","","","","html-button-response","131","450527","0.0-131.0","08E26F80E9DE41E68AE4C92993632286","019cfc98-e57e-7bdf-919c-1acef53bf9b6","019cfc7b-6c7b-7b1b-afe7-acad8efc6711","","743","
                <div class=""stimulus-container"">
                    <img src=""images/causal_sequence/saving_a_cat_causal/saving_a_cat_causal_5.png"" class=""exp-image"">
                    <div class=""question-area"">
                        <p style=""font-size: 20px; font-weight: bold; margin: 0;"">Is there a person in this image?</p>
                    </div>
                </div>","0","main_experiment_trial","5","saving_a_cat_causal","causal_sequence","chronological","","","","","","",""
"","","","","","html-keyboard-response","132","455532","0.0-132.0","08E26F80E9DE41E68AE4C92993632286","019cfc98-e57e-7bdf-919c-1acef53bf9b6","019cfc7b-6c7b-7b1b-afe7-acad8efc6711","","null","
                <div class=""stimulus-container"">
                    <img src=""images/causal_sequence/saving_a_cat_causal/saving_a_cat_causal_6.png"" class=""exp-image"">
                    <div class=""question-area""></div> 
                </div>","null","","","","","","","","","","","",""
"","","","","","html-button-response","133","456982","0.0-133.0","08E26F80E9DE41E68AE4C92993632286","019cfc98-e57e-7bdf-919c-1acef53bf9b6","019cfc7b-6c7b-7b1b-afe7-acad8efc6711","","1449","
                <div class=""stimulus-container"">
                    <img src=""images/causal_sequence/saving_a_cat_causal/saving_a_cat_causal_6.png"" class=""exp-image"">
                    <div class=""question-area"">
                        <p style=""font-size: 20px; font-weight: bold; margin: 0;"">Is there a person in this image?</p>
                    </div>
                </div>","0","main_experiment_trial","6","saving_a_cat_causal","causal_sequence","chronological","","","","","","",""
"","","","","","html-keyboard-response","134","461991","0.0-134.0","08E26F80E9DE41E68AE4C92993632286","019cfc98-e57e-7bdf-919c-1acef53bf9b6","019cfc7b-6c7b-7b1b-afe7-acad8efc6711","","null","
                <div class=""stimulus-container"">
                    <img src=""images/causal_sequence/saving_a_cat_causal/saving_a_cat_causal_7.png"" class=""exp-image"">
                    <div class=""question-area""></div> 
                </div>","null","","","","","","","","","","","",""
"","","","","","html-button-response","135","463344","0.0-135.0","08E26F80E9DE41E68AE4C92993632286","019cfc98-e57e-7bdf-919c-1acef53bf9b6","019cfc7b-6c7b-7b1b-afe7-acad8efc6711","","1352","
                <div class=""stimulus-container"">
                    <img src=""images/causal_sequence/saving_a_cat_causal/saving_a_cat_causal_7.png"" class=""exp-image"">
                    <div class=""question-area"">
                        <p style=""font-size: 20px; font-weight: bold; margin: 0;"">Is there a person in this image?</p>
                    </div>
                </div>","0","main_experiment_trial","7","saving_a_cat_causal","causal_sequence","chronological","","","","","","",""
"","","","","","html-keyboard-response","136","468348","0.0-136.0","08E26F80E9DE41E68AE4C92993632286","019cfc98-e57e-7bdf-919c-1acef53bf9b6","019cfc7b-6c7b-7b1b-afe7-acad8efc6711","","null","
                <div class=""stimulus-container"">
                    <img src=""images/causal_sequence/saving_a_cat_causal/saving_a_cat_causal_8.png"" class=""exp-image"">
                    <div class=""question-area""></div> 
                </div>","null","","","","","","","","","","","",""
"","","","","","html-button-response","137","469291","0.0-137.0","08E26F80E9DE41E68AE4C92993632286","019cfc98-e57e-7bdf-919c-1acef53bf9b6","019cfc7b-6c7b-7b1b-afe7-acad8efc6711","","942","
                <div class=""stimulus-container"">
                    <img src=""images/causal_sequence/saving_a_cat_causal/saving_a_cat_causal_8.png"" class=""exp-image"">
                    <div class=""question-area"">
                        <p style=""font-size: 20px; font-weight: bold; margin: 0;"">Is there a person in this image?</p>
                    </div>
                </div>","0","main_experiment_trial","8","saving_a_cat_causal","causal_sequence","chronological","","","","","","",""
"","","","","","html-keyboard-response","138","474297","0.0-138.0","08E26F80E9DE41E68AE4C92993632286","019cfc98-e57e-7bdf-919c-1acef53bf9b6","019cfc7b-6c7b-7b1b-afe7-acad8efc6711","","null","
                <div class=""stimulus-container"">
                    <img src=""images/causal_sequence/saving_a_cat_causal/saving_a_cat_causal_9.png"" class=""exp-image"">
                    <div class=""question-area""></div> 
                </div>","null","","","","","","","","","","","",""
"","","","","","html-button-response","139","475912","0.0-139.0","08E26F80E9DE41E68AE4C92993632286","019cfc98-e57e-7bdf-919c-1acef53bf9b6","019cfc7b-6c7b-7b1b-afe7-acad8efc6711","","1614","
                <div class=""stimulus-container"">
                    <img src=""images/causal_sequence/saving_a_cat_causal/saving_a_cat_causal_9.png"" class=""exp-image"">
                    <div class=""question-area"">
                        <p style=""font-size: 20px; font-weight: bold; margin: 0;"">Is there a person in this image?</p>
                    </div>
                </div>","0","main_experiment_trial","9","saving_a_cat_causal","causal_sequence","chronological","","","","","","",""
"","","","","","html-keyboard-response","140","480915","0.0-140.0","08E26F80E9DE41E68AE4C92993632286","019cfc98-e57e-7bdf-919c-1acef53bf9b6","019cfc7b-6c7b-7b1b-afe7-acad8efc6711","","null","
                <div class=""stimulus-container"">
                    <img src=""images/causal_sequence/saving_a_cat_causal/saving_a_cat_causal_ten.png"" class=""exp-image"">
                    <div class=""question-area""></div> 
                </div>","null","","","","","","","","","","","",""
"","","","","","html-button-response","141","481490","0.0-141.0","08E26F80E9DE41E68AE4C92993632286","019cfc98-e57e-7bdf-919c-1acef53bf9b6","019cfc7b-6c7b-7b1b-afe7-acad8efc6711","","574","
                <div class=""stimulus-container"">
                    <img src=""images/causal_sequence/saving_a_cat_causal/saving_a_cat_causal_ten.png"" class=""exp-image"">
                    <div class=""question-area"">
                        <p style=""font-size: 20px; font-weight: bold; margin: 0;"">Is there a person in this image?</p>
                    </div>
                </div>","0","main_experiment_trial","ten","saving_a_cat_causal","causal_sequence","chronological","","","","","","",""
"","","","","","html-keyboard-response","142","486510","0.0-142.0","08E26F80E9DE41E68AE4C92993632286","019cfc98-e57e-7bdf-919c-1acef53bf9b6","019cfc7b-6c7b-7b1b-afe7-acad8efc6711","","null","<div style=""background-color: white; width: 100vw; height: 100vh;""></div>","null","","","","","","","","","","","",""
"","","","","","html-keyboard-response","143","491521","0.0-143.0","08E26F80E9DE41E68AE4C92993632286","019cfc98-e57e-7bdf-919c-1acef53bf9b6","019cfc7b-6c7b-7b1b-afe7-acad8efc6711","","null","
                <div class=""stimulus-container"">
                    <img src=""images/semantic_sequence/kitchen_operations_semantic/kitchen_operations_semantic_1.png"" class=""exp-image"">
                    <div class=""question-area""></div> 
                </div>","null","","","","","","","","","","","",""
"","","","","","html-button-response","144","492279","0.0-144.0","08E26F80E9DE41E68AE4C92993632286","019cfc98-e57e-7bdf-919c-1acef53bf9b6","019cfc7b-6c7b-7b1b-afe7-acad8efc6711","","757","
                <div class=""stimulus-container"">
                    <img src=""images/semantic_sequence/kitchen_operations_semantic/kitchen_operations_semantic_1.png"" class=""exp-image"">
                    <div class=""question-area"">
                        <p style=""font-size: 20px; font-weight: bold; margin: 0;"">Is there a person in this image?</p>
                    </div>
                </div>","0","main_experiment_trial","1","kitchen_operations_semantic","semantic_sequence","chronological","","","","","","",""
"","","","","","html-keyboard-response","145","497291","0.0-145.0","08E26F80E9DE41E68AE4C92993632286","019cfc98-e57e-7bdf-919c-1acef53bf9b6","019cfc7b-6c7b-7b1b-afe7-acad8efc6711","","null","
                <div class=""stimulus-container"">
                    <img src=""images/semantic_sequence/kitchen_operations_semantic/kitchen_operations_semantic_2.png"" class=""exp-image"">
                    <div class=""question-area""></div> 
                </div>","null","","","","","","","","","","","",""
"","","","","","html-button-response","146","497940","0.0-146.0","08E26F80E9DE41E68AE4C92993632286","019cfc98-e57e-7bdf-919c-1acef53bf9b6","019cfc7b-6c7b-7b1b-afe7-acad8efc6711","","648","
                <div class=""stimulus-container"">
                    <img src=""images/semantic_sequence/kitchen_operations_semantic/kitchen_operations_semantic_2.png"" class=""exp-image"">
                    <div class=""question-area"">
                        <p style=""font-size: 20px; font-weight: bold; margin: 0;"">Is there a person in this image?</p>
                    </div>
                </div>","0","main_experiment_trial","2","kitchen_operations_semantic","semantic_sequence","chronological","","","","","","",""
"","","","","","html-keyboard-response","147","502948","0.0-147.0","08E26F80E9DE41E68AE4C92993632286","019cfc98-e57e-7bdf-919c-1acef53bf9b6","019cfc7b-6c7b-7b1b-afe7-acad8efc6711","","null","
                <div class=""stimulus-container"">
                    <img src=""images/semantic_sequence/kitchen_operations_semantic/kitchen_operations_semantic_3.png"" class=""exp-image"">
                    <div class=""question-area""></div> 
                </div>","null","","","","","","","","","","","",""
"","","","","","html-button-response","148","503855","0.0-148.0","08E26F80E9DE41E68AE4C92993632286","019cfc98-e57e-7bdf-919c-1acef53bf9b6","019cfc7b-6c7b-7b1b-afe7-acad8efc6711","","905","
                <div class=""stimulus-container"">
                    <img src=""images/semantic_sequence/kitchen_operations_semantic/kitchen_operations_semantic_3.png"" class=""exp-image"">
                    <div class=""question-area"">
                        <p style=""font-size: 20px; font-weight: bold; margin: 0;"">Is there a person in this image?</p>
                    </div>
                </div>","0","main_experiment_trial","3","kitchen_operations_semantic","semantic_sequence","chronological","","","","","","",""
"","","","","","html-keyboard-response","149","508864","0.0-149.0","08E26F80E9DE41E68AE4C92993632286","019cfc98-e57e-7bdf-919c-1acef53bf9b6","019cfc7b-6c7b-7b1b-afe7-acad8efc6711","","null","
                <div class=""stimulus-container"">
                    <img src=""images/semantic_sequence/kitchen_operations_semantic/kitchen_operations_semantic_4.png"" class=""exp-image"">
                    <div class=""question-area""></div> 
                </div>","null","","","","","","","","","","","",""
"","","","","","html-button-response","150","510077","0.0-150.0","08E26F80E9DE41E68AE4C92993632286","019cfc98-e57e-7bdf-919c-1acef53bf9b6","019cfc7b-6c7b-7b1b-afe7-acad8efc6711","","1212","
                <div class=""stimulus-container"">
                    <img src=""images/semantic_sequence/kitchen_operations_semantic/kitchen_operations_semantic_4.png"" class=""exp-image"">
                    <div class=""question-area"">
                        <p style=""font-size: 20px; font-weight: bold; margin: 0;"">Is there a person in this image?</p>
                    </div>
                </div>","0","main_experiment_trial","4","kitchen_operations_semantic","semantic_sequence","chronological","","","","","","",""
"","","","","","html-keyboard-response","151","515088","0.0-151.0","08E26F80E9DE41E68AE4C92993632286","019cfc98-e57e-7bdf-919c-1acef53bf9b6","019cfc7b-6c7b-7b1b-afe7-acad8efc6711","","null","
                <div class=""stimulus-container"">
                    <img src=""images/semantic_sequence/kitchen_operations_semantic/kitchen_operations_semantic_5.png"" class=""exp-image"">
                    <div class=""question-area""></div> 
                </div>","null","","","","","","","","","","","",""
"","","","","","html-button-response","152","516012","0.0-152.0","08E26F80E9DE41E68AE4C92993632286","019cfc98-e57e-7bdf-919c-1acef53bf9b6","019cfc7b-6c7b-7b1b-afe7-acad8efc6711","","923","
                <div class=""stimulus-container"">
                    <img src=""images/semantic_sequence/kitchen_operations_semantic/kitchen_operations_semantic_5.png"" class=""exp-image"">
                    <div class=""question-area"">
                        <p style=""font-size: 20px; font-weight: bold; margin: 0;"">Is there a person in this image?</p>
                    </div>
                </div>","0","main_experiment_trial","5","kitchen_operations_semantic","semantic_sequence","chronological","","","","","","",""
"","","","","","html-keyboard-response","153","521026","0.0-153.0","08E26F80E9DE41E68AE4C92993632286","019cfc98-e57e-7bdf-919c-1acef53bf9b6","019cfc7b-6c7b-7b1b-afe7-acad8efc6711","","null","
                <div class=""stimulus-container"">
                    <img src=""images/semantic_sequence/kitchen_operations_semantic/kitchen_operations_semantic_6.png"" class=""exp-image"">
                    <div class=""question-area""></div> 
                </div>","null","","","","","","","","","","","",""
"","","","","","html-button-response","154","521527","0.0-154.0","08E26F80E9DE41E68AE4C92993632286","019cfc98-e57e-7bdf-919c-1acef53bf9b6","019cfc7b-6c7b-7b1b-afe7-acad8efc6711","","499","
                <div class=""stimulus-container"">
                    <img src=""images/semantic_sequence/kitchen_operations_semantic/kitchen_operations_semantic_6.png"" class=""exp-image"">
                    <div class=""question-area"">
                        <p style=""font-size: 20px; font-weight: bold; margin: 0;"">Is there a person in this image?</p>
                    </div>
                </div>","0","main_experiment_trial","6","kitchen_operations_semantic","semantic_sequence","chronological","","","","","","",""
"","","","","","html-keyboard-response","155","526541","0.0-155.0","08E26F80E9DE41E68AE4C92993632286","019cfc98-e57e-7bdf-919c-1acef53bf9b6","019cfc7b-6c7b-7b1b-afe7-acad8efc6711","","null","
                <div class=""stimulus-container"">
                    <img src=""images/semantic_sequence/kitchen_operations_semantic/kitchen_operations_semantic_7.png"" class=""exp-image"">
                    <div class=""question-area""></div> 
                </div>","null","","","","","","","","","","","",""
"","","","","","html-button-response","156","527391","0.0-156.0","08E26F80E9DE41E68AE4C92993632286","019cfc98-e57e-7bdf-919c-1acef53bf9b6","019cfc7b-6c7b-7b1b-afe7-acad8efc6711","","849","
                <div class=""stimulus-container"">
                    <img src=""images/semantic_sequence/kitchen_operations_semantic/kitchen_operations_semantic_7.png"" class=""exp-image"">
                    <div class=""question-area"">
                        <p style=""font-size: 20px; font-weight: bold; margin: 0;"">Is there a person in this image?</p>
                    </div>
                </div>","0","main_experiment_trial","7","kitchen_operations_semantic","semantic_sequence","chronological","","","","","","",""
"","","","","","html-keyboard-response","157","532401","0.0-157.0","08E26F80E9DE41E68AE4C92993632286","019cfc98-e57e-7bdf-919c-1acef53bf9b6","019cfc7b-6c7b-7b1b-afe7-acad8efc6711","","null","
                <div class=""stimulus-container"">
                    <img src=""images/semantic_sequence/kitchen_operations_semantic/kitchen_operations_semantic_8.png"" class=""exp-image"">
                    <div class=""question-area""></div> 
                </div>","null","","","","","","","","","","","",""
"","","","","","html-button-response","158","534487","0.0-158.0","08E26F80E9DE41E68AE4C92993632286","019cfc98-e57e-7bdf-919c-1acef53bf9b6","019cfc7b-6c7b-7b1b-afe7-acad8efc6711","","2084","
                <div class=""stimulus-container"">
                    <img src=""images/semantic_sequence/kitchen_operations_semantic/kitchen_operations_semantic_8.png"" class=""exp-image"">
                    <div class=""question-area"">
                        <p style=""font-size: 20px; font-weight: bold; margin: 0;"">Is there a person in this image?</p>
                    </div>
                </div>","0","main_experiment_trial","8","kitchen_operations_semantic","semantic_sequence","chronological","","","","","","",""
"","","","","","html-keyboard-response","159","539501","0.0-159.0","08E26F80E9DE41E68AE4C92993632286","019cfc98-e57e-7bdf-919c-1acef53bf9b6","019cfc7b-6c7b-7b1b-afe7-acad8efc6711","","null","
                <div class=""stimulus-container"">
                    <img src=""images/semantic_sequence/kitchen_operations_semantic/kitchen_operations_semantic_9.png"" class=""exp-image"">
                    <div class=""question-area""></div> 
                </div>","null","","","","","","","","","","","",""
"","","","","","html-button-response","160","541970","0.0-160.0","08E26F80E9DE41E68AE4C92993632286","019cfc98-e57e-7bdf-919c-1acef53bf9b6","019cfc7b-6c7b-7b1b-afe7-acad8efc6711","","2467","
                <div class=""stimulus-container"">
                    <img src=""images/semantic_sequence/kitchen_operations_semantic/kitchen_operations_semantic_9.png"" class=""exp-image"">
                    <div class=""question-area"">
                        <p style=""font-size: 20px; font-weight: bold; margin: 0;"">Is there a person in this image?</p>
                    </div>
                </div>","0","main_experiment_trial","9","kitchen_operations_semantic","semantic_sequence","chronological","","","","","","",""
"","","","","","html-keyboard-response","161","546972","0.0-161.0","08E26F80E9DE41E68AE4C92993632286","019cfc98-e57e-7bdf-919c-1acef53bf9b6","019cfc7b-6c7b-7b1b-afe7-acad8efc6711","","null","
                <div class=""stimulus-container"">
                    <img src=""images/semantic_sequence/kitchen_operations_semantic/kitchen_operations_semantic_ten.png"" class=""exp-image"">
                    <div class=""question-area""></div> 
                </div>","null","","","","","","","","","","","",""
"","","","","","html-button-response","162","547694","0.0-162.0","08E26F80E9DE41E68AE4C92993632286","019cfc98-e57e-7bdf-919c-1acef53bf9b6","019cfc7b-6c7b-7b1b-afe7-acad8efc6711","","721","
                <div class=""stimulus-container"">
                    <img src=""images/semantic_sequence/kitchen_operations_semantic/kitchen_operations_semantic_ten.png"" class=""exp-image"">
                    <div class=""question-area"">
                        <p style=""font-size: 20px; font-weight: bold; margin: 0;"">Is there a person in this image?</p>
                    </div>
                </div>","0","main_experiment_trial","ten","kitchen_operations_semantic","semantic_sequence","chronological","","","","","","",""
"","","","","","html-keyboard-response","163","552696","0.0-163.0","08E26F80E9DE41E68AE4C92993632286","019cfc98-e57e-7bdf-919c-1acef53bf9b6","019cfc7b-6c7b-7b1b-afe7-acad8efc6711","","null","<div style=""background-color: white; width: 100vw; height: 100vh;""></div>","null","","","","","","","","","","","",""
"","","","","","html-keyboard-response","164","557699","0.0-164.0","08E26F80E9DE41E68AE4C92993632286","019cfc98-e57e-7bdf-919c-1acef53bf9b6","019cfc7b-6c7b-7b1b-afe7-acad8efc6711","","null","
                <div class=""stimulus-container"">
                    <img src=""images/schematic_sequence/interview_scheme/interview_scheme_1.png"" class=""exp-image"">
                    <div class=""question-area""></div> 
                </div>","null","","","","","","","","","","","",""
"","","","","","html-button-response","165","558770","0.0-165.0","08E26F80E9DE41E68AE4C92993632286","019cfc98-e57e-7bdf-919c-1acef53bf9b6","019cfc7b-6c7b-7b1b-afe7-acad8efc6711","","1070","
                <div class=""stimulus-container"">
                    <img src=""images/schematic_sequence/interview_scheme/interview_scheme_1.png"" class=""exp-image"">
                    <div class=""question-area"">
                        <p style=""font-size: 20px; font-weight: bold; margin: 0;"">Is there a person in this image?</p>
                    </div>
                </div>","1","main_experiment_trial","1","interview_scheme","schematic_sequence","chronological","","","","","","",""
"","","","","","html-keyboard-response","166","563775","0.0-166.0","08E26F80E9DE41E68AE4C92993632286","019cfc98-e57e-7bdf-919c-1acef53bf9b6","019cfc7b-6c7b-7b1b-afe7-acad8efc6711","","null","
                <div class=""stimulus-container"">
                    <img src=""images/schematic_sequence/interview_scheme/interview_scheme_2.png"" class=""exp-image"">
                    <div class=""question-area""></div> 
                </div>","null","","","","","","","","","","","",""
"","","","","","html-button-response","167","564688","0.0-167.0","08E26F80E9DE41E68AE4C92993632286","019cfc98-e57e-7bdf-919c-1acef53bf9b6","019cfc7b-6c7b-7b1b-afe7-acad8efc6711","","913","
                <div class=""stimulus-container"">
                    <img src=""images/schematic_sequence/interview_scheme/interview_scheme_2.png"" class=""exp-image"">
                    <div class=""question-area"">
                        <p style=""font-size: 20px; font-weight: bold; margin: 0;"">Is there a person in this image?</p>
                    </div>
                </div>","1","main_experiment_trial","2","interview_scheme","schematic_sequence","chronological","","","","","","",""
"","","","","","html-keyboard-response","168","569699","0.0-168.0","08E26F80E9DE41E68AE4C92993632286","019cfc98-e57e-7bdf-919c-1acef53bf9b6","019cfc7b-6c7b-7b1b-afe7-acad8efc6711","","null","
                <div class=""stimulus-container"">
                    <img src=""images/schematic_sequence/interview_scheme/interview_scheme_3.png"" class=""exp-image"">
                    <div class=""question-area""></div> 
                </div>","null","","","","","","","","","","","",""
"","","","","","html-button-response","169","570224","0.0-169.0","08E26F80E9DE41E68AE4C92993632286","019cfc98-e57e-7bdf-919c-1acef53bf9b6","019cfc7b-6c7b-7b1b-afe7-acad8efc6711","","525","
                <div class=""stimulus-container"">
                    <img src=""images/schematic_sequence/interview_scheme/interview_scheme_3.png"" class=""exp-image"">
                    <div class=""question-area"">
                        <p style=""font-size: 20px; font-weight: bold; margin: 0;"">Is there a person in this image?</p>
                    </div>
                </div>","1","main_experiment_trial","3","interview_scheme","schematic_sequence","chronological","","","","","","",""
"","","","","","html-keyboard-response","170","575228","0.0-170.0","08E26F80E9DE41E68AE4C92993632286","019cfc98-e57e-7bdf-919c-1acef53bf9b6","019cfc7b-6c7b-7b1b-afe7-acad8efc6711","","null","
                <div class=""stimulus-container"">
                    <img src=""images/schematic_sequence/interview_scheme/interview_scheme_4.png"" class=""exp-image"">
                    <div class=""question-area""></div> 
                </div>","null","","","","","","","","","","","",""
"","","","","","html-button-response","171","575768","0.0-171.0","08E26F80E9DE41E68AE4C92993632286","019cfc98-e57e-7bdf-919c-1acef53bf9b6","019cfc7b-6c7b-7b1b-afe7-acad8efc6711","","539","
                <div class=""stimulus-container"">
                    <img src=""images/schematic_sequence/interview_scheme/interview_scheme_4.png"" class=""exp-image"">
                    <div class=""question-area"">
                        <p style=""font-size: 20px; font-weight: bold; margin: 0;"">Is there a person in this image?</p>
                    </div>
                </div>","1","main_experiment_trial","4","interview_scheme","schematic_sequence","chronological","","","","","","",""
"","","","","","html-keyboard-response","172","580771","0.0-172.0","08E26F80E9DE41E68AE4C92993632286","019cfc98-e57e-7bdf-919c-1acef53bf9b6","019cfc7b-6c7b-7b1b-afe7-acad8efc6711","","null","
                <div class=""stimulus-container"">
                    <img src=""images/schematic_sequence/interview_scheme/interview_scheme_5.png"" class=""exp-image"">
                    <div class=""question-area""></div> 
                </div>","null","","","","","","","","","","","",""
"","","","","","html-button-response","173","581661","0.0-173.0","08E26F80E9DE41E68AE4C92993632286","019cfc98-e57e-7bdf-919c-1acef53bf9b6","019cfc7b-6c7b-7b1b-afe7-acad8efc6711","","889","
                <div class=""stimulus-container"">
                    <img src=""images/schematic_sequence/interview_scheme/interview_scheme_5.png"" class=""exp-image"">
                    <div class=""question-area"">
                        <p style=""font-size: 20px; font-weight: bold; margin: 0;"">Is there a person in this image?</p>
                    </div>
                </div>","0","main_experiment_trial","5","interview_scheme","schematic_sequence","chronological","","","","","","",""
"","","","","","html-keyboard-response","174","586663","0.0-174.0","08E26F80E9DE41E68AE4C92993632286","019cfc98-e57e-7bdf-919c-1acef53bf9b6","019cfc7b-6c7b-7b1b-afe7-acad8efc6711","","null","
                <div class=""stimulus-container"">
                    <img src=""images/schematic_sequence/interview_scheme/interview_scheme_6.png"" class=""exp-image"">
                    <div class=""question-area""></div> 
                </div>","null","","","","","","","","","","","",""
"","","","","","html-button-response","175","587764","0.0-175.0","08E26F80E9DE41E68AE4C92993632286","019cfc98-e57e-7bdf-919c-1acef53bf9b6","019cfc7b-6c7b-7b1b-afe7-acad8efc6711","","1101","
                <div class=""stimulus-container"">
                    <img src=""images/schematic_sequence/interview_scheme/interview_scheme_6.png"" class=""exp-image"">
                    <div class=""question-area"">
                        <p style=""font-size: 20px; font-weight: bold; margin: 0;"">Is there a person in this image?</p>
                    </div>
                </div>","0","main_experiment_trial","6","interview_scheme","schematic_sequence","chronological","","","","","","",""
"","","","","","html-keyboard-response","176","592769","0.0-176.0","08E26F80E9DE41E68AE4C92993632286","019cfc98-e57e-7bdf-919c-1acef53bf9b6","019cfc7b-6c7b-7b1b-afe7-acad8efc6711","","null","
                <div class=""stimulus-container"">
                    <img src=""images/schematic_sequence/interview_scheme/interview_scheme_7.png"" class=""exp-image"">
                    <div class=""question-area""></div> 
                </div>","null","","","","","","","","","","","",""
