"success","timeout","failed_images","failed_audio","failed_video","trial_type","trial_index","time_elapsed","internal_node_id","subject_id","study_id","session_id","view_history","rt","stimulus","response","task","image_index","folder","sequence_type","presentation_order","valuable_image_index","reward_type","distance_from_x","target_X","chosen_image_index","is_x_plus_dist","correct_choice"
"true","false","[]","[]","[]","preload","0","5970","0.0-0.0","D144BD2F3DF94E78AF4EBF1AD60F65C6","019d6bab-4d90-769f-acef-b824bd67c964","019d6b6d-d11f-7233-9b95-7a424dbf389f","","","","","","","","","","","","","","","",""
"","","","","","instructions","1","8154","0.0-1.0","D144BD2F3DF94E78AF4EBF1AD60F65C6","019d6bab-4d90-769f-acef-b824bd67c964","019d6b6d-d11f-7233-9b95-7a424dbf389f","[{""page_index"":0,""viewing_time"":2182}]","2182","","","","","","","","","","","","","",""
"","","","","","instructions","2","11112","0.0-2.0","D144BD2F3DF94E78AF4EBF1AD60F65C6","019d6bab-4d90-769f-acef-b824bd67c964","019d6b6d-d11f-7233-9b95-7a424dbf389f","[{""page_index"":0,""viewing_time"":2958}]","2958","","","","","","","","","","","","","",""
"true","","","","","fullscreen","3","17673","0.0-3.0","D144BD2F3DF94E78AF4EBF1AD60F65C6","019d6bab-4d90-769f-acef-b824bd67c964","019d6b6d-d11f-7233-9b95-7a424dbf389f","","5558","","","","","","","","","","","","","",""
"","","","","","instructions","4","31070","0.0-4.0","D144BD2F3DF94E78AF4EBF1AD60F65C6","019d6bab-4d90-769f-acef-b824bd67c964","019d6b6d-d11f-7233-9b95-7a424dbf389f","[{""page_index"":0,""viewing_time"":13394}]","13394","","","","","","","","","","","","","",""
"","","","","","instructions","5","40705","0.0-5.0","D144BD2F3DF94E78AF4EBF1AD60F65C6","019d6bab-4d90-769f-acef-b824bd67c964","019d6b6d-d11f-7233-9b95-7a424dbf389f","[{""page_index"":0,""viewing_time"":9635}]","9635","","","","","","","","","","","","","",""
"","","","","","html-keyboard-response","6","44707","0.0-6.0","D144BD2F3DF94E78AF4EBF1AD60F65C6","019d6bab-4d90-769f-acef-b824bd67c964","019d6b6d-d11f-7233-9b95-7a424dbf389f","","null","
            <div class=""stimulus-container"">
                <img src=""images/instructions/movie_1.png"" class=""exp-image"">
                <div class=""question-area""></div> 
            </div>","null","","","","","","","","","","","",""
"","","","","","html-button-response","7","46418","0.0-7.0","D144BD2F3DF94E78AF4EBF1AD60F65C6","019d6bab-4d90-769f-acef-b824bd67c964","019d6b6d-d11f-7233-9b95-7a424dbf389f","","1710","
            <div class=""stimulus-container"">
                <img src=""images/instructions/movie_1.png"" class=""exp-image"">
                <div class=""question-area"">
                    <p style=""font-size: 20px; font-weight: bold; margin: 0;"">Was there a person in this image?</p>
                </div>
            </div>","0","example_question","1","","","","","","","","","",""
"","","","","","html-keyboard-response","8","50431","0.0-8.0","D144BD2F3DF94E78AF4EBF1AD60F65C6","019d6bab-4d90-769f-acef-b824bd67c964","019d6b6d-d11f-7233-9b95-7a424dbf389f","","null","
            <div class=""stimulus-container"">
                <img src=""images/instructions/movie_2.png"" class=""exp-image"">
                <div class=""question-area""></div> 
            </div>","null","","","","","","","","","","","",""
"","","","","","html-button-response","9","52372","0.0-9.0","D144BD2F3DF94E78AF4EBF1AD60F65C6","019d6bab-4d90-769f-acef-b824bd67c964","019d6b6d-d11f-7233-9b95-7a424dbf389f","","1941","
            <div class=""stimulus-container"">
                <img src=""images/instructions/movie_2.png"" class=""exp-image"">
                <div class=""question-area"">
                    <p style=""font-size: 20px; font-weight: bold; margin: 0;"">Was there a person in this image?</p>
                </div>
            </div>","0","example_question","2","","","","","","","","","",""
"","","","","","html-keyboard-response","10","56378","0.0-10.0","D144BD2F3DF94E78AF4EBF1AD60F65C6","019d6bab-4d90-769f-acef-b824bd67c964","019d6b6d-d11f-7233-9b95-7a424dbf389f","","null","
            <div class=""stimulus-container"">
                <img src=""images/instructions/movie_3.png"" class=""exp-image"">
                <div class=""question-area""></div> 
            </div>","null","","","","","","","","","","","",""
"","","","","","html-button-response","11","57123","0.0-11.0","D144BD2F3DF94E78AF4EBF1AD60F65C6","019d6bab-4d90-769f-acef-b824bd67c964","019d6b6d-d11f-7233-9b95-7a424dbf389f","","743","
            <div class=""stimulus-container"">
                <img src=""images/instructions/movie_3.png"" class=""exp-image"">
                <div class=""question-area"">
                    <p style=""font-size: 20px; font-weight: bold; margin: 0;"">Was there a person in this image?</p>
                </div>
            </div>","0","example_question","3","","","","","","","","","",""
"","","","","","html-keyboard-response","12","61136","0.0-12.0","D144BD2F3DF94E78AF4EBF1AD60F65C6","019d6bab-4d90-769f-acef-b824bd67c964","019d6b6d-d11f-7233-9b95-7a424dbf389f","","null","
            <div class=""stimulus-container"">
                <img src=""images/instructions/movie_4.png"" class=""exp-image"">
                <div class=""question-area""></div> 
            </div>","null","","","","","","","","","","","",""
"","","","","","html-button-response","13","61731","0.0-13.0","D144BD2F3DF94E78AF4EBF1AD60F65C6","019d6bab-4d90-769f-acef-b824bd67c964","019d6b6d-d11f-7233-9b95-7a424dbf389f","","594","
            <div class=""stimulus-container"">
                <img src=""images/instructions/movie_4.png"" class=""exp-image"">
                <div class=""question-area"">
                    <p style=""font-size: 20px; font-weight: bold; margin: 0;"">Was there a person in this image?</p>
                </div>
            </div>","0","example_question","4","","","","","","","","","",""
"","","","","","instructions","14","64359","0.0-14.0","D144BD2F3DF94E78AF4EBF1AD60F65C6","019d6bab-4d90-769f-acef-b824bd67c964","019d6b6d-d11f-7233-9b95-7a424dbf389f","[{""page_index"":0,""viewing_time"":2628}]","2629","","","","","","","","","","","","","",""
"","","","","","instructions","15","73712","0.0-15.0","D144BD2F3DF94E78AF4EBF1AD60F65C6","019d6bab-4d90-769f-acef-b824bd67c964","019d6b6d-d11f-7233-9b95-7a424dbf389f","[{""page_index"":0,""viewing_time"":9352}]","9352","","","","","","","","","","","","","",""
"","","","","","html-keyboard-response","16","78719","0.0-16.0","D144BD2F3DF94E78AF4EBF1AD60F65C6","019d6bab-4d90-769f-acef-b824bd67c964","019d6b6d-d11f-7233-9b95-7a424dbf389f","","null","<div style=""background-color: white; width: 100vw; height: 100vh;""></div>","null","","","","","","","","","","","",""
"","","","","","html-keyboard-response","17","83725","0.0-17.0","D144BD2F3DF94E78AF4EBF1AD60F65C6","019d6bab-4d90-769f-acef-b824bd67c964","019d6b6d-d11f-7233-9b95-7a424dbf389f","","null","
                <div class=""stimulus-container"">
                    <img src=""images/causal_sequence/museum_causal/museum_causal_1.png"" class=""exp-image"">
                    <div class=""question-area""></div> 
                </div>","null","","","","","","","","","","","",""
"","","","","","html-button-response","18","84707","0.0-18.0","D144BD2F3DF94E78AF4EBF1AD60F65C6","019d6bab-4d90-769f-acef-b824bd67c964","019d6b6d-d11f-7233-9b95-7a424dbf389f","","981","
                <div class=""stimulus-container"">
                    <img src=""images/causal_sequence/museum_causal/museum_causal_1.png"" class=""exp-image"">
                    <div class=""question-area"">
                        <p style=""font-size: 20px; font-weight: bold; margin: 0;"">Is there a person in this image?</p>
                    </div>
                </div>","0","main_experiment_trial","1","museum_causal","causal_sequence","chronological","","","","","","",""
"","","","","","html-keyboard-response","19","89718","0.0-19.0","D144BD2F3DF94E78AF4EBF1AD60F65C6","019d6bab-4d90-769f-acef-b824bd67c964","019d6b6d-d11f-7233-9b95-7a424dbf389f","","null","
                <div class=""stimulus-container"">
                    <img src=""images/causal_sequence/museum_causal/museum_causal_2.png"" class=""exp-image"">
                    <div class=""question-area""></div> 
                </div>","null","","","","","","","","","","","",""
"","","","","","html-button-response","20","90510","0.0-20.0","D144BD2F3DF94E78AF4EBF1AD60F65C6","019d6bab-4d90-769f-acef-b824bd67c964","019d6b6d-d11f-7233-9b95-7a424dbf389f","","792","
                <div class=""stimulus-container"">
                    <img src=""images/causal_sequence/museum_causal/museum_causal_2.png"" class=""exp-image"">
                    <div class=""question-area"">
                        <p style=""font-size: 20px; font-weight: bold; margin: 0;"">Is there a person in this image?</p>
                    </div>
                </div>","0","main_experiment_trial","2","museum_causal","causal_sequence","chronological","","","","","","",""
"","","","","","html-keyboard-response","21","95521","0.0-21.0","D144BD2F3DF94E78AF4EBF1AD60F65C6","019d6bab-4d90-769f-acef-b824bd67c964","019d6b6d-d11f-7233-9b95-7a424dbf389f","","null","
                <div class=""stimulus-container"">
                    <img src=""images/causal_sequence/museum_causal/museum_causal_3.png"" class=""exp-image"">
                    <div class=""question-area""></div> 
                </div>","null","","","","","","","","","","","",""
"","","","","","html-button-response","22","97020","0.0-22.0","D144BD2F3DF94E78AF4EBF1AD60F65C6","019d6bab-4d90-769f-acef-b824bd67c964","019d6b6d-d11f-7233-9b95-7a424dbf389f","","1497","
                <div class=""stimulus-container"">
                    <img src=""images/causal_sequence/museum_causal/museum_causal_3.png"" class=""exp-image"">
                    <div class=""question-area"">
                        <p style=""font-size: 20px; font-weight: bold; margin: 0;"">Is there a person in this image?</p>
                    </div>
                </div>","0","main_experiment_trial","3","museum_causal","causal_sequence","chronological","","","","","","",""
"","","","","","html-keyboard-response","23","102035","0.0-23.0","D144BD2F3DF94E78AF4EBF1AD60F65C6","019d6bab-4d90-769f-acef-b824bd67c964","019d6b6d-d11f-7233-9b95-7a424dbf389f","","null","
                <div class=""stimulus-container"">
                    <img src=""images/causal_sequence/museum_causal/museum_causal_4.png"" class=""exp-image"">
                    <div class=""question-area""></div> 
                </div>","null","","","","","","","","","","","",""
"","","","","","html-button-response","24","102447","0.0-24.0","D144BD2F3DF94E78AF4EBF1AD60F65C6","019d6bab-4d90-769f-acef-b824bd67c964","019d6b6d-d11f-7233-9b95-7a424dbf389f","","413","
                <div class=""stimulus-container"">
                    <img src=""images/causal_sequence/museum_causal/museum_causal_4.png"" class=""exp-image"">
                    <div class=""question-area"">
                        <p style=""font-size: 20px; font-weight: bold; margin: 0;"">Is there a person in this image?</p>
                    </div>
                </div>","1","main_experiment_trial","4","museum_causal","causal_sequence","chronological","","","","","","",""
"","","","","","html-keyboard-response","25","107454","0.0-25.0","D144BD2F3DF94E78AF4EBF1AD60F65C6","019d6bab-4d90-769f-acef-b824bd67c964","019d6b6d-d11f-7233-9b95-7a424dbf389f","","null","
                <div class=""stimulus-container"">
                    <img src=""images/causal_sequence/museum_causal/museum_causal_5.png"" class=""exp-image"">
                    <div class=""question-area""></div> 
                </div>","null","","","","","","","","","","","",""
"","","","","","html-button-response","26","107839","0.0-26.0","D144BD2F3DF94E78AF4EBF1AD60F65C6","019d6bab-4d90-769f-acef-b824bd67c964","019d6b6d-d11f-7233-9b95-7a424dbf389f","","384","
                <div class=""stimulus-container"">
                    <img src=""images/causal_sequence/museum_causal/museum_causal_5.png"" class=""exp-image"">
                    <div class=""question-area"">
                        <p style=""font-size: 20px; font-weight: bold; margin: 0;"">Is there a person in this image?</p>
                    </div>
                </div>","0","main_experiment_trial","5","museum_causal","causal_sequence","chronological","","","","","","",""
"","","","","","html-keyboard-response","27","112849","0.0-27.0","D144BD2F3DF94E78AF4EBF1AD60F65C6","019d6bab-4d90-769f-acef-b824bd67c964","019d6b6d-d11f-7233-9b95-7a424dbf389f","","null","
                <div class=""stimulus-container"">
                    <img src=""images/causal_sequence/museum_causal/museum_causal_6.png"" class=""exp-image"">
                    <div class=""question-area""></div> 
                </div>","null","","","","","","","","","","","",""
"","","","","","html-button-response","28","113387","0.0-28.0","D144BD2F3DF94E78AF4EBF1AD60F65C6","019d6bab-4d90-769f-acef-b824bd67c964","019d6b6d-d11f-7233-9b95-7a424dbf389f","","539","
                <div class=""stimulus-container"">
                    <img src=""images/causal_sequence/museum_causal/museum_causal_6.png"" class=""exp-image"">
                    <div class=""question-area"">
                        <p style=""font-size: 20px; font-weight: bold; margin: 0;"">Is there a person in this image?</p>
                    </div>
                </div>","0","main_experiment_trial","6","museum_causal","causal_sequence","chronological","","","","","","",""
"","","","","","html-keyboard-response","29","118403","0.0-29.0","D144BD2F3DF94E78AF4EBF1AD60F65C6","019d6bab-4d90-769f-acef-b824bd67c964","019d6b6d-d11f-7233-9b95-7a424dbf389f","","null","
                <div class=""stimulus-container"">
                    <img src=""images/causal_sequence/museum_causal/museum_causal_7.png"" class=""exp-image"">
                    <div class=""question-area""></div> 
                </div>","null","","","","","","","","","","","",""
"","","","","","html-button-response","30","119200","0.0-30.0","D144BD2F3DF94E78AF4EBF1AD60F65C6","019d6bab-4d90-769f-acef-b824bd67c964","019d6b6d-d11f-7233-9b95-7a424dbf389f","","797","
                <div class=""stimulus-container"">
                    <img src=""images/causal_sequence/museum_causal/museum_causal_7.png"" class=""exp-image"">
                    <div class=""question-area"">
                        <p style=""font-size: 20px; font-weight: bold; margin: 0;"">Is there a person in this image?</p>
                    </div>
                </div>","1","main_experiment_trial","7","museum_causal","causal_sequence","chronological","","","","","","",""
"","","","","","html-keyboard-response","31","124203","0.0-31.0","D144BD2F3DF94E78AF4EBF1AD60F65C6","019d6bab-4d90-769f-acef-b824bd67c964","019d6b6d-d11f-7233-9b95-7a424dbf389f","","null","
                <div class=""stimulus-container"">
                    <img src=""images/causal_sequence/museum_causal/museum_causal_8.png"" class=""exp-image"">
                    <div class=""question-area""></div> 
                </div>","null","","","","","","","","","","","",""
"","","","","","html-button-response","32","124886","0.0-32.0","D144BD2F3DF94E78AF4EBF1AD60F65C6","019d6bab-4d90-769f-acef-b824bd67c964","019d6b6d-d11f-7233-9b95-7a424dbf389f","","682","
                <div class=""stimulus-container"">
                    <img src=""images/causal_sequence/museum_causal/museum_causal_8.png"" class=""exp-image"">
                    <div class=""question-area"">
                        <p style=""font-size: 20px; font-weight: bold; margin: 0;"">Is there a person in this image?</p>
                    </div>
                </div>","0","main_experiment_trial","8","museum_causal","causal_sequence","chronological","","","","","","",""
"","","","","","html-keyboard-response","33","129887","0.0-33.0","D144BD2F3DF94E78AF4EBF1AD60F65C6","019d6bab-4d90-769f-acef-b824bd67c964","019d6b6d-d11f-7233-9b95-7a424dbf389f","","null","
                <div class=""stimulus-container"">
                    <img src=""images/causal_sequence/museum_causal/museum_causal_9.png"" class=""exp-image"">
                    <div class=""question-area""></div> 
                </div>","null","","","","","","","","","","","",""
"","","","","","html-button-response","34","131038","0.0-34.0","D144BD2F3DF94E78AF4EBF1AD60F65C6","019d6bab-4d90-769f-acef-b824bd67c964","019d6b6d-d11f-7233-9b95-7a424dbf389f","","1151","
                <div class=""stimulus-container"">
                    <img src=""images/causal_sequence/museum_causal/museum_causal_9.png"" class=""exp-image"">
                    <div class=""question-area"">
                        <p style=""font-size: 20px; font-weight: bold; margin: 0;"">Is there a person in this image?</p>
                    </div>
                </div>","1","main_experiment_trial","9","museum_causal","causal_sequence","chronological","","","","","","",""
"","","","","","html-keyboard-response","35","136050","0.0-35.0","D144BD2F3DF94E78AF4EBF1AD60F65C6","019d6bab-4d90-769f-acef-b824bd67c964","019d6b6d-d11f-7233-9b95-7a424dbf389f","","null","
                <div class=""stimulus-container"">
                    <img src=""images/causal_sequence/museum_causal/museum_causal_ten.png"" class=""exp-image"">
                    <div class=""question-area""></div> 
                </div>","null","","","","","","","","","","","",""
"","","","","","html-button-response","36","136455","0.0-36.0","D144BD2F3DF94E78AF4EBF1AD60F65C6","019d6bab-4d90-769f-acef-b824bd67c964","019d6b6d-d11f-7233-9b95-7a424dbf389f","","405","
                <div class=""stimulus-container"">
                    <img src=""images/causal_sequence/museum_causal/museum_causal_ten.png"" class=""exp-image"">
                    <div class=""question-area"">
                        <p style=""font-size: 20px; font-weight: bold; margin: 0;"">Is there a person in this image?</p>
                    </div>
                </div>","0","main_experiment_trial","ten","museum_causal","causal_sequence","chronological","","","","","","",""
"","","","","","html-keyboard-response","37","141460","0.0-37.0","D144BD2F3DF94E78AF4EBF1AD60F65C6","019d6bab-4d90-769f-acef-b824bd67c964","019d6b6d-d11f-7233-9b95-7a424dbf389f","","null","<div style=""background-color: white; width: 100vw; height: 100vh;""></div>","null","","","","","","","","","","","",""
"","","","","","html-keyboard-response","38","146464","0.0-38.0","D144BD2F3DF94E78AF4EBF1AD60F65C6","019d6bab-4d90-769f-acef-b824bd67c964","019d6b6d-d11f-7233-9b95-7a424dbf389f","","null","
                <div class=""stimulus-container"">
                    <img src=""images/causal_sequence/saving_a_cat_causal/saving_a_cat_causal_1.png"" class=""exp-image"">
                    <div class=""question-area""></div> 
                </div>","null","","","","","","","","","","","",""
"","","","","","html-button-response","39","146886","0.0-39.0","D144BD2F3DF94E78AF4EBF1AD60F65C6","019d6bab-4d90-769f-acef-b824bd67c964","019d6b6d-d11f-7233-9b95-7a424dbf389f","","420","
                <div class=""stimulus-container"">
                    <img src=""images/causal_sequence/saving_a_cat_causal/saving_a_cat_causal_1.png"" class=""exp-image"">
                    <div class=""question-area"">
                        <p style=""font-size: 20px; font-weight: bold; margin: 0;"">Is there a person in this image?</p>
                    </div>
                </div>","0","main_experiment_trial","1","saving_a_cat_causal","causal_sequence","chronological","","","","","","",""
"","","","","","html-keyboard-response","40","151893","0.0-40.0","D144BD2F3DF94E78AF4EBF1AD60F65C6","019d6bab-4d90-769f-acef-b824bd67c964","019d6b6d-d11f-7233-9b95-7a424dbf389f","","null","
                <div class=""stimulus-container"">
                    <img src=""images/causal_sequence/saving_a_cat_causal/saving_a_cat_causal_2.png"" class=""exp-image"">
                    <div class=""question-area""></div> 
                </div>","null","","","","","","","","","","","",""
"","","","","","html-button-response","41","152697","0.0-41.0","D144BD2F3DF94E78AF4EBF1AD60F65C6","019d6bab-4d90-769f-acef-b824bd67c964","019d6b6d-d11f-7233-9b95-7a424dbf389f","","803","
                <div class=""stimulus-container"">
                    <img src=""images/causal_sequence/saving_a_cat_causal/saving_a_cat_causal_2.png"" class=""exp-image"">
                    <div class=""question-area"">
                        <p style=""font-size: 20px; font-weight: bold; margin: 0;"">Is there a person in this image?</p>
                    </div>
                </div>","1","main_experiment_trial","2","saving_a_cat_causal","causal_sequence","chronological","","","","","","",""
"","","","","","html-keyboard-response","42","157709","0.0-42.0","D144BD2F3DF94E78AF4EBF1AD60F65C6","019d6bab-4d90-769f-acef-b824bd67c964","019d6b6d-d11f-7233-9b95-7a424dbf389f","","null","
                <div class=""stimulus-container"">
                    <img src=""images/causal_sequence/saving_a_cat_causal/saving_a_cat_causal_3.png"" class=""exp-image"">
                    <div class=""question-area""></div> 
                </div>","null","","","","","","","","","","","",""
"","","","","","html-button-response","43","158401","0.0-43.0","D144BD2F3DF94E78AF4EBF1AD60F65C6","019d6bab-4d90-769f-acef-b824bd67c964","019d6b6d-d11f-7233-9b95-7a424dbf389f","","692","
                <div class=""stimulus-container"">
                    <img src=""images/causal_sequence/saving_a_cat_causal/saving_a_cat_causal_3.png"" class=""exp-image"">
                    <div class=""question-area"">
                        <p style=""font-size: 20px; font-weight: bold; margin: 0;"">Is there a person in this image?</p>
                    </div>
                </div>","1","main_experiment_trial","3","saving_a_cat_causal","causal_sequence","chronological","","","","","","",""
"","","","","","html-keyboard-response","44","163414","0.0-44.0","D144BD2F3DF94E78AF4EBF1AD60F65C6","019d6bab-4d90-769f-acef-b824bd67c964","019d6b6d-d11f-7233-9b95-7a424dbf389f","","null","
                <div class=""stimulus-container"">
                    <img src=""images/causal_sequence/saving_a_cat_causal/saving_a_cat_causal_4.png"" class=""exp-image"">
                    <div class=""question-area""></div> 
                </div>","null","","","","","","","","","","","",""
"","","","","","html-button-response","45","163792","0.0-45.0","D144BD2F3DF94E78AF4EBF1AD60F65C6","019d6bab-4d90-769f-acef-b824bd67c964","019d6b6d-d11f-7233-9b95-7a424dbf389f","","377","
                <div class=""stimulus-container"">
                    <img src=""images/causal_sequence/saving_a_cat_causal/saving_a_cat_causal_4.png"" class=""exp-image"">
                    <div class=""question-area"">
                        <p style=""font-size: 20px; font-weight: bold; margin: 0;"">Is there a person in this image?</p>
                    </div>
                </div>","0","main_experiment_trial","4","saving_a_cat_causal","causal_sequence","chronological","","","","","","",""
"","","","","","html-keyboard-response","46","168794","0.0-46.0","D144BD2F3DF94E78AF4EBF1AD60F65C6","019d6bab-4d90-769f-acef-b824bd67c964","019d6b6d-d11f-7233-9b95-7a424dbf389f","","null","
                <div class=""stimulus-container"">
                    <img src=""images/causal_sequence/saving_a_cat_causal/saving_a_cat_causal_5.png"" class=""exp-image"">
                    <div class=""question-area""></div> 
                </div>","null","","","","","","","","","","","",""
"","","","","","html-button-response","47","169126","0.0-47.0","D144BD2F3DF94E78AF4EBF1AD60F65C6","019d6bab-4d90-769f-acef-b824bd67c964","019d6b6d-d11f-7233-9b95-7a424dbf389f","","333","
                <div class=""stimulus-container"">
                    <img src=""images/causal_sequence/saving_a_cat_causal/saving_a_cat_causal_5.png"" class=""exp-image"">
                    <div class=""question-area"">
                        <p style=""font-size: 20px; font-weight: bold; margin: 0;"">Is there a person in this image?</p>
                    </div>
                </div>","0","main_experiment_trial","5","saving_a_cat_causal","causal_sequence","chronological","","","","","","",""
"","","","","","html-keyboard-response","48","174134","0.0-48.0","D144BD2F3DF94E78AF4EBF1AD60F65C6","019d6bab-4d90-769f-acef-b824bd67c964","019d6b6d-d11f-7233-9b95-7a424dbf389f","","null","
                <div class=""stimulus-container"">
                    <img src=""images/causal_sequence/saving_a_cat_causal/saving_a_cat_causal_6.png"" class=""exp-image"">
                    <div class=""question-area""></div> 
                </div>","null","","","","","","","","","","","",""
"","","","","","html-button-response","49","174580","0.0-49.0","D144BD2F3DF94E78AF4EBF1AD60F65C6","019d6bab-4d90-769f-acef-b824bd67c964","019d6b6d-d11f-7233-9b95-7a424dbf389f","","447","
                <div class=""stimulus-container"">
                    <img src=""images/causal_sequence/saving_a_cat_causal/saving_a_cat_causal_6.png"" class=""exp-image"">
                    <div class=""question-area"">
                        <p style=""font-size: 20px; font-weight: bold; margin: 0;"">Is there a person in this image?</p>
                    </div>
                </div>","0","main_experiment_trial","6","saving_a_cat_causal","causal_sequence","chronological","","","","","","",""
"","","","","","html-keyboard-response","50","179592","0.0-50.0","D144BD2F3DF94E78AF4EBF1AD60F65C6","019d6bab-4d90-769f-acef-b824bd67c964","019d6b6d-d11f-7233-9b95-7a424dbf389f","","null","
                <div class=""stimulus-container"">
                    <img src=""images/causal_sequence/saving_a_cat_causal/saving_a_cat_causal_7.png"" class=""exp-image"">
                    <div class=""question-area""></div> 
                </div>","null","","","","","","","","","","","",""
"","","","","","html-button-response","51","180038","0.0-51.0","D144BD2F3DF94E78AF4EBF1AD60F65C6","019d6bab-4d90-769f-acef-b824bd67c964","019d6b6d-d11f-7233-9b95-7a424dbf389f","","445","
                <div class=""stimulus-container"">
                    <img src=""images/causal_sequence/saving_a_cat_causal/saving_a_cat_causal_7.png"" class=""exp-image"">
                    <div class=""question-area"">
                        <p style=""font-size: 20px; font-weight: bold; margin: 0;"">Is there a person in this image?</p>
                    </div>
                </div>","0","main_experiment_trial","7","saving_a_cat_causal","causal_sequence","chronological","","","","","","",""
"","","","","","html-keyboard-response","52","185039","0.0-52.0","D144BD2F3DF94E78AF4EBF1AD60F65C6","019d6bab-4d90-769f-acef-b824bd67c964","019d6b6d-d11f-7233-9b95-7a424dbf389f","","null","
                <div class=""stimulus-container"">
                    <img src=""images/causal_sequence/saving_a_cat_causal/saving_a_cat_causal_8.png"" class=""exp-image"">
                    <div class=""question-area""></div> 
                </div>","null","","","","","","","","","","","",""
"","","","","","html-button-response","53","185495","0.0-53.0","D144BD2F3DF94E78AF4EBF1AD60F65C6","019d6bab-4d90-769f-acef-b824bd67c964","019d6b6d-d11f-7233-9b95-7a424dbf389f","","454","
                <div class=""stimulus-container"">
                    <img src=""images/causal_sequence/saving_a_cat_causal/saving_a_cat_causal_8.png"" class=""exp-image"">
                    <div class=""question-area"">
                        <p style=""font-size: 20px; font-weight: bold; margin: 0;"">Is there a person in this image?</p>
                    </div>
                </div>","0","main_experiment_trial","8","saving_a_cat_causal","causal_sequence","chronological","","","","","","",""
"","","","","","html-keyboard-response","54","190498","0.0-54.0","D144BD2F3DF94E78AF4EBF1AD60F65C6","019d6bab-4d90-769f-acef-b824bd67c964","019d6b6d-d11f-7233-9b95-7a424dbf389f","","null","
                <div class=""stimulus-container"">
                    <img src=""images/causal_sequence/saving_a_cat_causal/saving_a_cat_causal_9.png"" class=""exp-image"">
                    <div class=""question-area""></div> 
                </div>","null","","","","","","","","","","","",""
"","","","","","html-button-response","55","190930","0.0-55.0","D144BD2F3DF94E78AF4EBF1AD60F65C6","019d6bab-4d90-769f-acef-b824bd67c964","019d6b6d-d11f-7233-9b95-7a424dbf389f","","431","
                <div class=""stimulus-container"">
                    <img src=""images/causal_sequence/saving_a_cat_causal/saving_a_cat_causal_9.png"" class=""exp-image"">
                    <div class=""question-area"">
                        <p style=""font-size: 20px; font-weight: bold; margin: 0;"">Is there a person in this image?</p>
                    </div>
                </div>","0","main_experiment_trial","9","saving_a_cat_causal","causal_sequence","chronological","","","","","","",""
"","","","","","html-keyboard-response","56","195938","0.0-56.0","D144BD2F3DF94E78AF4EBF1AD60F65C6","019d6bab-4d90-769f-acef-b824bd67c964","019d6b6d-d11f-7233-9b95-7a424dbf389f","","null","
                <div class=""stimulus-container"">
                    <img src=""images/causal_sequence/saving_a_cat_causal/saving_a_cat_causal_ten.png"" class=""exp-image"">
                    <div class=""question-area""></div> 
                </div>","null","","","","","","","","","","","",""
"","","","","","html-button-response","57","196294","0.0-57.0","D144BD2F3DF94E78AF4EBF1AD60F65C6","019d6bab-4d90-769f-acef-b824bd67c964","019d6b6d-d11f-7233-9b95-7a424dbf389f","","355","
                <div class=""stimulus-container"">
                    <img src=""images/causal_sequence/saving_a_cat_causal/saving_a_cat_causal_ten.png"" class=""exp-image"">
                    <div class=""question-area"">
                        <p style=""font-size: 20px; font-weight: bold; margin: 0;"">Is there a person in this image?</p>
                    </div>
                </div>","0","main_experiment_trial","ten","saving_a_cat_causal","causal_sequence","chronological","","","","","","",""
"","","","","","html-keyboard-response","58","201300","0.0-58.0","D144BD2F3DF94E78AF4EBF1AD60F65C6","019d6bab-4d90-769f-acef-b824bd67c964","019d6b6d-d11f-7233-9b95-7a424dbf389f","","null","<div style=""background-color: white; width: 100vw; height: 100vh;""></div>","null","","","","","","","","","","","",""
"","","","","","html-keyboard-response","59","206312","0.0-59.0","D144BD2F3DF94E78AF4EBF1AD60F65C6","019d6bab-4d90-769f-acef-b824bd67c964","019d6b6d-d11f-7233-9b95-7a424dbf389f","","null","
                <div class=""stimulus-container"">
                    <img src=""semantic_sequence_notimeline/professions_semantic/professions_semantic_1.png"" class=""exp-image"">
                    <div class=""question-area""></div> 
                </div>","null","","","","","","","","","","","",""
"","","","","","html-button-response","60","206980","0.0-60.0","D144BD2F3DF94E78AF4EBF1AD60F65C6","019d6bab-4d90-769f-acef-b824bd67c964","019d6b6d-d11f-7233-9b95-7a424dbf389f","","668","
                <div class=""stimulus-container"">
                    <img src=""semantic_sequence_notimeline/professions_semantic/professions_semantic_1.png"" class=""exp-image"">
                    <div class=""question-area"">
                        <p style=""font-size: 20px; font-weight: bold; margin: 0;"">Is there a person in this image?</p>
                    </div>
                </div>","0","main_experiment_trial","1","professions_semantic","semantic_sequence_notimeline","chronological","","","","","","",""
"","","","","","html-keyboard-response","61","211983","0.0-61.0","D144BD2F3DF94E78AF4EBF1AD60F65C6","019d6bab-4d90-769f-acef-b824bd67c964","019d6b6d-d11f-7233-9b95-7a424dbf389f","","null","
                <div class=""stimulus-container"">
                    <img src=""semantic_sequence_notimeline/professions_semantic/professions_semantic_2.png"" class=""exp-image"">
                    <div class=""question-area""></div> 
                </div>","null","","","","","","","","","","","",""
"","","","","","html-button-response","62","212363","0.0-62.0","D144BD2F3DF94E78AF4EBF1AD60F65C6","019d6bab-4d90-769f-acef-b824bd67c964","019d6b6d-d11f-7233-9b95-7a424dbf389f","","379","
                <div class=""stimulus-container"">
                    <img src=""semantic_sequence_notimeline/professions_semantic/professions_semantic_2.png"" class=""exp-image"">
                    <div class=""question-area"">
                        <p style=""font-size: 20px; font-weight: bold; margin: 0;"">Is there a person in this image?</p>
                    </div>
                </div>","0","main_experiment_trial","2","professions_semantic","semantic_sequence_notimeline","chronological","","","","","","",""
"","","","","","html-keyboard-response","63","217375","0.0-63.0","D144BD2F3DF94E78AF4EBF1AD60F65C6","019d6bab-4d90-769f-acef-b824bd67c964","019d6b6d-d11f-7233-9b95-7a424dbf389f","","null","
                <div class=""stimulus-container"">
                    <img src=""semantic_sequence_notimeline/professions_semantic/professions_semantic_3.png"" class=""exp-image"">
                    <div class=""question-area""></div> 
                </div>","null","","","","","","","","","","","",""
"","","","","","html-button-response","64","217773","0.0-64.0","D144BD2F3DF94E78AF4EBF1AD60F65C6","019d6bab-4d90-769f-acef-b824bd67c964","019d6b6d-d11f-7233-9b95-7a424dbf389f","","398","
                <div class=""stimulus-container"">
                    <img src=""semantic_sequence_notimeline/professions_semantic/professions_semantic_3.png"" class=""exp-image"">
                    <div class=""question-area"">
                        <p style=""font-size: 20px; font-weight: bold; margin: 0;"">Is there a person in this image?</p>
                    </div>
                </div>","0","main_experiment_trial","3","professions_semantic","semantic_sequence_notimeline","chronological","","","","","","",""
"","","","","","html-keyboard-response","65","222774","0.0-65.0","D144BD2F3DF94E78AF4EBF1AD60F65C6","019d6bab-4d90-769f-acef-b824bd67c964","019d6b6d-d11f-7233-9b95-7a424dbf389f","","null","
                <div class=""stimulus-container"">
                    <img src=""semantic_sequence_notimeline/professions_semantic/professions_semantic_4.png"" class=""exp-image"">
                    <div class=""question-area""></div> 
                </div>","null","","","","","","","","","","","",""
"","","","","","html-button-response","66","223386","0.0-66.0","D144BD2F3DF94E78AF4EBF1AD60F65C6","019d6bab-4d90-769f-acef-b824bd67c964","019d6b6d-d11f-7233-9b95-7a424dbf389f","","611","
                <div class=""stimulus-container"">
                    <img src=""semantic_sequence_notimeline/professions_semantic/professions_semantic_4.png"" class=""exp-image"">
                    <div class=""question-area"">
                        <p style=""font-size: 20px; font-weight: bold; margin: 0;"">Is there a person in this image?</p>
                    </div>
                </div>","0","main_experiment_trial","4","professions_semantic","semantic_sequence_notimeline","chronological","","","","","","",""
"","","","","","html-keyboard-response","67","228396","0.0-67.0","D144BD2F3DF94E78AF4EBF1AD60F65C6","019d6bab-4d90-769f-acef-b824bd67c964","019d6b6d-d11f-7233-9b95-7a424dbf389f","","null","
                <div class=""stimulus-container"">
                    <img src=""semantic_sequence_notimeline/professions_semantic/professions_semantic_5.png"" class=""exp-image"">
                    <div class=""question-area""></div> 
                </div>","null","","","","","","","","","","","",""
"","","","","","html-button-response","68","228793","0.0-68.0","D144BD2F3DF94E78AF4EBF1AD60F65C6","019d6bab-4d90-769f-acef-b824bd67c964","019d6b6d-d11f-7233-9b95-7a424dbf389f","","397","
                <div class=""stimulus-container"">
                    <img src=""semantic_sequence_notimeline/professions_semantic/professions_semantic_5.png"" class=""exp-image"">
                    <div class=""question-area"">
                        <p style=""font-size: 20px; font-weight: bold; margin: 0;"">Is there a person in this image?</p>
                    </div>
                </div>","0","main_experiment_trial","5","professions_semantic","semantic_sequence_notimeline","chronological","","","","","","",""
"","","","","","html-keyboard-response","69","233807","0.0-69.0","D144BD2F3DF94E78AF4EBF1AD60F65C6","019d6bab-4d90-769f-acef-b824bd67c964","019d6b6d-d11f-7233-9b95-7a424dbf389f","","null","
                <div class=""stimulus-container"">
                    <img src=""semantic_sequence_notimeline/professions_semantic/professions_semantic_6.png"" class=""exp-image"">
                    <div class=""question-area""></div> 
                </div>","null","","","","","","","","","","","",""
"","","","","","html-button-response","70","234208","0.0-70.0","D144BD2F3DF94E78AF4EBF1AD60F65C6","019d6bab-4d90-769f-acef-b824bd67c964","019d6b6d-d11f-7233-9b95-7a424dbf389f","","401","
                <div class=""stimulus-container"">
                    <img src=""semantic_sequence_notimeline/professions_semantic/professions_semantic_6.png"" class=""exp-image"">
                    <div class=""question-area"">
                        <p style=""font-size: 20px; font-weight: bold; margin: 0;"">Is there a person in this image?</p>
                    </div>
                </div>","0","main_experiment_trial","6","professions_semantic","semantic_sequence_notimeline","chronological","","","","","","",""
"","","","","","html-keyboard-response","71","239224","0.0-71.0","D144BD2F3DF94E78AF4EBF1AD60F65C6","019d6bab-4d90-769f-acef-b824bd67c964","019d6b6d-d11f-7233-9b95-7a424dbf389f","","null","
                <div class=""stimulus-container"">
                    <img src=""semantic_sequence_notimeline/professions_semantic/professions_semantic_7.png"" class=""exp-image"">
                    <div class=""question-area""></div> 
                </div>","null","","","","","","","","","","","",""
"","","","","","html-button-response","72","239619","0.0-72.0","D144BD2F3DF94E78AF4EBF1AD60F65C6","019d6bab-4d90-769f-acef-b824bd67c964","019d6b6d-d11f-7233-9b95-7a424dbf389f","","394","
                <div class=""stimulus-container"">
                    <img src=""semantic_sequence_notimeline/professions_semantic/professions_semantic_7.png"" class=""exp-image"">
                    <div class=""question-area"">
                        <p style=""font-size: 20px; font-weight: bold; margin: 0;"">Is there a person in this image?</p>
                    </div>
                </div>","0","main_experiment_trial","7","professions_semantic","semantic_sequence_notimeline","chronological","","","","","","",""
"","","","","","html-keyboard-response","73","244633","0.0-73.0","D144BD2F3DF94E78AF4EBF1AD60F65C6","019d6bab-4d90-769f-acef-b824bd67c964","019d6b6d-d11f-7233-9b95-7a424dbf389f","","null","
                <div class=""stimulus-container"">
                    <img src=""semantic_sequence_notimeline/professions_semantic/professions_semantic_8.png"" class=""exp-image"">
                    <div class=""question-area""></div> 
                </div>","null","","","","","","","","","","","",""
"","","","","","html-button-response","74","246081","0.0-74.0","D144BD2F3DF94E78AF4EBF1AD60F65C6","019d6bab-4d90-769f-acef-b824bd67c964","019d6b6d-d11f-7233-9b95-7a424dbf389f","","1446","
                <div class=""stimulus-container"">
                    <img src=""semantic_sequence_notimeline/professions_semantic/professions_semantic_8.png"" class=""exp-image"">
                    <div class=""question-area"">
                        <p style=""font-size: 20px; font-weight: bold; margin: 0;"">Is there a person in this image?</p>
                    </div>
                </div>","0","main_experiment_trial","8","professions_semantic","semantic_sequence_notimeline","chronological","","","","","","",""
"","","","","","html-keyboard-response","75","251090","0.0-75.0","D144BD2F3DF94E78AF4EBF1AD60F65C6","019d6bab-4d90-769f-acef-b824bd67c964","019d6b6d-d11f-7233-9b95-7a424dbf389f","","null","
                <div class=""stimulus-container"">
                    <img src=""semantic_sequence_notimeline/professions_semantic/professions_semantic_9.png"" class=""exp-image"">
                    <div class=""question-area""></div> 
                </div>","null","","","","","","","","","","","",""
"","","","","","html-button-response","76","251865","0.0-76.0","D144BD2F3DF94E78AF4EBF1AD60F65C6","019d6bab-4d90-769f-acef-b824bd67c964","019d6b6d-d11f-7233-9b95-7a424dbf389f","","775","
                <div class=""stimulus-container"">
                    <img src=""semantic_sequence_notimeline/professions_semantic/professions_semantic_9.png"" class=""exp-image"">
                    <div class=""question-area"">
                        <p style=""font-size: 20px; font-weight: bold; margin: 0;"">Is there a person in this image?</p>
                    </div>
                </div>","0","main_experiment_trial","9","professions_semantic","semantic_sequence_notimeline","chronological","","","","","","",""
"","","","","","html-keyboard-response","77","256876","0.0-77.0","D144BD2F3DF94E78AF4EBF1AD60F65C6","019d6bab-4d90-769f-acef-b824bd67c964","019d6b6d-d11f-7233-9b95-7a424dbf389f","","null","
                <div class=""stimulus-container"">
                    <img src=""semantic_sequence_notimeline/professions_semantic/professions_semantic_ten.png"" class=""exp-image"">
                    <div class=""question-area""></div> 
                </div>","null","","","","","","","","","","","",""
"","","","","","html-button-response","78","257261","0.0-78.0","D144BD2F3DF94E78AF4EBF1AD60F65C6","019d6bab-4d90-769f-acef-b824bd67c964","019d6b6d-d11f-7233-9b95-7a424dbf389f","","384","
                <div class=""stimulus-container"">
                    <img src=""semantic_sequence_notimeline/professions_semantic/professions_semantic_ten.png"" class=""exp-image"">
                    <div class=""question-area"">
                        <p style=""font-size: 20px; font-weight: bold; margin: 0;"">Is there a person in this image?</p>
                    </div>
                </div>","0","main_experiment_trial","ten","professions_semantic","semantic_sequence_notimeline","chronological","","","","","","",""
"","","","","","html-keyboard-response","79","262276","0.0-79.0","D144BD2F3DF94E78AF4EBF1AD60F65C6","019d6bab-4d90-769f-acef-b824bd67c964","019d6b6d-d11f-7233-9b95-7a424dbf389f","","null","<div style=""background-color: white; width: 100vw; height: 100vh;""></div>","null","","","","","","","","","","","",""
"","","","","","html-keyboard-response","80","267278","0.0-80.0","D144BD2F3DF94E78AF4EBF1AD60F65C6","019d6bab-4d90-769f-acef-b824bd67c964","019d6b6d-d11f-7233-9b95-7a424dbf389f","","null","
                <div class=""stimulus-container"">
                    <img src=""semantic_sequence_notimeline/clothing_semantic/clothing_semantic_1.png"" class=""exp-image"">
                    <div class=""question-area""></div> 
                </div>","null","","","","","","","","","","","",""
"","","","","","html-button-response","81","267610","0.0-81.0","D144BD2F3DF94E78AF4EBF1AD60F65C6","019d6bab-4d90-769f-acef-b824bd67c964","019d6b6d-d11f-7233-9b95-7a424dbf389f","","331","
                <div class=""stimulus-container"">
                    <img src=""semantic_sequence_notimeline/clothing_semantic/clothing_semantic_1.png"" class=""exp-image"">
                    <div class=""question-area"">
                        <p style=""font-size: 20px; font-weight: bold; margin: 0;"">Is there a person in this image?</p>
                    </div>
                </div>","1","main_experiment_trial","1","clothing_semantic","semantic_sequence_notimeline","chronological","","","","","","",""
"","","","","","html-keyboard-response","82","272611","0.0-82.0","D144BD2F3DF94E78AF4EBF1AD60F65C6","019d6bab-4d90-769f-acef-b824bd67c964","019d6b6d-d11f-7233-9b95-7a424dbf389f","","null","
                <div class=""stimulus-container"">
                    <img src=""semantic_sequence_notimeline/clothing_semantic/clothing_semantic_2.png"" class=""exp-image"">
                    <div class=""question-area""></div> 
                </div>","null","","","","","","","","","","","",""
"","","","","","html-button-response","83","272928","0.0-83.0","D144BD2F3DF94E78AF4EBF1AD60F65C6","019d6bab-4d90-769f-acef-b824bd67c964","019d6b6d-d11f-7233-9b95-7a424dbf389f","","317","
                <div class=""stimulus-container"">
                    <img src=""semantic_sequence_notimeline/clothing_semantic/clothing_semantic_2.png"" class=""exp-image"">
                    <div class=""question-area"">
                        <p style=""font-size: 20px; font-weight: bold; margin: 0;"">Is there a person in this image?</p>
                    </div>
                </div>","1","main_experiment_trial","2","clothing_semantic","semantic_sequence_notimeline","chronological","","","","","","",""
"","","","","","html-keyboard-response","84","277948","0.0-84.0","D144BD2F3DF94E78AF4EBF1AD60F65C6","019d6bab-4d90-769f-acef-b824bd67c964","019d6b6d-d11f-7233-9b95-7a424dbf389f","","null","
                <div class=""stimulus-container"">
                    <img src=""semantic_sequence_notimeline/clothing_semantic/clothing_semantic_3.png"" class=""exp-image"">
                    <div class=""question-area""></div> 
                </div>","null","","","","","","","","","","","",""
"","","","","","html-button-response","85","278290","0.0-85.0","D144BD2F3DF94E78AF4EBF1AD60F65C6","019d6bab-4d90-769f-acef-b824bd67c964","019d6b6d-d11f-7233-9b95-7a424dbf389f","","342","
                <div class=""stimulus-container"">
                    <img src=""semantic_sequence_notimeline/clothing_semantic/clothing_semantic_3.png"" class=""exp-image"">
                    <div class=""question-area"">
                        <p style=""font-size: 20px; font-weight: bold; margin: 0;"">Is there a person in this image?</p>
                    </div>
                </div>","1","main_experiment_trial","3","clothing_semantic","semantic_sequence_notimeline","chronological","","","","","","",""
"","","","","","html-keyboard-response","86","283298","0.0-86.0","D144BD2F3DF94E78AF4EBF1AD60F65C6","019d6bab-4d90-769f-acef-b824bd67c964","019d6b6d-d11f-7233-9b95-7a424dbf389f","","null","
                <div class=""stimulus-container"">
                    <img src=""semantic_sequence_notimeline/clothing_semantic/clothing_semantic_4.png"" class=""exp-image"">
                    <div class=""question-area""></div> 
                </div>","null","","","","","","","","","","","",""
"","","","","","html-button-response","87","283576","0.0-87.0","D144BD2F3DF94E78AF4EBF1AD60F65C6","019d6bab-4d90-769f-acef-b824bd67c964","019d6b6d-d11f-7233-9b95-7a424dbf389f","","279","
                <div class=""stimulus-container"">
                    <img src=""semantic_sequence_notimeline/clothing_semantic/clothing_semantic_4.png"" class=""exp-image"">
                    <div class=""question-area"">
                        <p style=""font-size: 20px; font-weight: bold; margin: 0;"">Is there a person in this image?</p>
                    </div>
                </div>","1","main_experiment_trial","4","clothing_semantic","semantic_sequence_notimeline","chronological","","","","","","",""
"","","","","","html-keyboard-response","88","288583","0.0-88.0","D144BD2F3DF94E78AF4EBF1AD60F65C6","019d6bab-4d90-769f-acef-b824bd67c964","019d6b6d-d11f-7233-9b95-7a424dbf389f","","null","
                <div class=""stimulus-container"">
                    <img src=""semantic_sequence_notimeline/clothing_semantic/clothing_semantic_5.png"" class=""exp-image"">
                    <div class=""question-area""></div> 
                </div>","null","","","","","","","","","","","",""
"","","","","","html-button-response","89","289464","0.0-89.0","D144BD2F3DF94E78AF4EBF1AD60F65C6","019d6bab-4d90-769f-acef-b824bd67c964","019d6b6d-d11f-7233-9b95-7a424dbf389f","","881","
                <div class=""stimulus-container"">
                    <img src=""semantic_sequence_notimeline/clothing_semantic/clothing_semantic_5.png"" class=""exp-image"">
                    <div class=""question-area"">
                        <p style=""font-size: 20px; font-weight: bold; margin: 0;"">Is there a person in this image?</p>
                    </div>
                </div>","1","main_experiment_trial","5","clothing_semantic","semantic_sequence_notimeline","chronological","","","","","","",""
"","","","","","html-keyboard-response","90","294477","0.0-90.0","D144BD2F3DF94E78AF4EBF1AD60F65C6","019d6bab-4d90-769f-acef-b824bd67c964","019d6b6d-d11f-7233-9b95-7a424dbf389f","","null","
                <div class=""stimulus-container"">
                    <img src=""semantic_sequence_notimeline/clothing_semantic/clothing_semantic_6.png"" class=""exp-image"">
                    <div class=""question-area""></div> 
                </div>","null","","","","","","","","","","","",""
"","","","","","html-button-response","91","294902","0.0-91.0","D144BD2F3DF94E78AF4EBF1AD60F65C6","019d6bab-4d90-769f-acef-b824bd67c964","019d6b6d-d11f-7233-9b95-7a424dbf389f","","425","
                <div class=""stimulus-container"">
                    <img src=""semantic_sequence_notimeline/clothing_semantic/clothing_semantic_6.png"" class=""exp-image"">
                    <div class=""question-area"">
                        <p style=""font-size: 20px; font-weight: bold; margin: 0;"">Is there a person in this image?</p>
                    </div>
                </div>","1","main_experiment_trial","6","clothing_semantic","semantic_sequence_notimeline","chronological","","","","","","",""
"","","","","","html-keyboard-response","92","299909","0.0-92.0","D144BD2F3DF94E78AF4EBF1AD60F65C6","019d6bab-4d90-769f-acef-b824bd67c964","019d6b6d-d11f-7233-9b95-7a424dbf389f","","null","
                <div class=""stimulus-container"">
                    <img src=""semantic_sequence_notimeline/clothing_semantic/clothing_semantic_7.png"" class=""exp-image"">
                    <div class=""question-area""></div> 
                </div>","null","","","","","","","","","","","",""
"","","","","","html-button-response","93","300778","0.0-93.0","D144BD2F3DF94E78AF4EBF1AD60F65C6","019d6bab-4d90-769f-acef-b824bd67c964","019d6b6d-d11f-7233-9b95-7a424dbf389f","","870","
                <div class=""stimulus-container"">
                    <img src=""semantic_sequence_notimeline/clothing_semantic/clothing_semantic_7.png"" class=""exp-image"">
                    <div class=""question-area"">
                        <p style=""font-size: 20px; font-weight: bold; margin: 0;"">Is there a person in this image?</p>
                    </div>
                </div>","1","main_experiment_trial","7","clothing_semantic","semantic_sequence_notimeline","chronological","","","","","","",""
"","","","","","html-keyboard-response","94","305784","0.0-94.0","D144BD2F3DF94E78AF4EBF1AD60F65C6","019d6bab-4d90-769f-acef-b824bd67c964","019d6b6d-d11f-7233-9b95-7a424dbf389f","","null","
                <div class=""stimulus-container"">
                    <img src=""semantic_sequence_notimeline/clothing_semantic/clothing_semantic_8.png"" class=""exp-image"">
                    <div class=""question-area""></div> 
                </div>","null","","","","","","","","","","","",""
"","","","","","html-button-response","95","306204","0.0-95.0","D144BD2F3DF94E78AF4EBF1AD60F65C6","019d6bab-4d90-769f-acef-b824bd67c964","019d6b6d-d11f-7233-9b95-7a424dbf389f","","419","
                <div class=""stimulus-container"">
                    <img src=""semantic_sequence_notimeline/clothing_semantic/clothing_semantic_8.png"" class=""exp-image"">
                    <div class=""question-area"">
                        <p style=""font-size: 20px; font-weight: bold; margin: 0;"">Is there a person in this image?</p>
                    </div>
                </div>","1","main_experiment_trial","8","clothing_semantic","semantic_sequence_notimeline","chronological","","","","","","",""
"","","","","","html-keyboard-response","96","311210","0.0-96.0","D144BD2F3DF94E78AF4EBF1AD60F65C6","019d6bab-4d90-769f-acef-b824bd67c964","019d6b6d-d11f-7233-9b95-7a424dbf389f","","null","
                <div class=""stimulus-container"">
                    <img src=""semantic_sequence_notimeline/clothing_semantic/clothing_semantic_9.png"" class=""exp-image"">
                    <div class=""question-area""></div> 
                </div>","null","","","","","","","","","","","",""
"","","","","","html-button-response","97","311536","0.0-97.0","D144BD2F3DF94E78AF4EBF1AD60F65C6","019d6bab-4d90-769f-acef-b824bd67c964","019d6b6d-d11f-7233-9b95-7a424dbf389f","","326","
                <div class=""stimulus-container"">
                    <img src=""semantic_sequence_notimeline/clothing_semantic/clothing_semantic_9.png"" class=""exp-image"">
                    <div class=""question-area"">
                        <p style=""font-size: 20px; font-weight: bold; margin: 0;"">Is there a person in this image?</p>
                    </div>
                </div>","1","main_experiment_trial","9","clothing_semantic","semantic_sequence_notimeline","chronological","","","","","","",""
"","","","","","html-keyboard-response","98","316538","0.0-98.0","D144BD2F3DF94E78AF4EBF1AD60F65C6","019d6bab-4d90-769f-acef-b824bd67c964","019d6b6d-d11f-7233-9b95-7a424dbf389f","","null","
                <div class=""stimulus-container"">
                    <img src=""semantic_sequence_notimeline/clothing_semantic/clothing_semantic_ten.png"" class=""exp-image"">
                    <div class=""question-area""></div> 
                </div>","null","","","","","","","","","","","",""
"","","","","","html-button-response","99","317005","0.0-99.0","D144BD2F3DF94E78AF4EBF1AD60F65C6","019d6bab-4d90-769f-acef-b824bd67c964","019d6b6d-d11f-7233-9b95-7a424dbf389f","","466","
                <div class=""stimulus-container"">
                    <img src=""semantic_sequence_notimeline/clothing_semantic/clothing_semantic_ten.png"" class=""exp-image"">
                    <div class=""question-area"">
                        <p style=""font-size: 20px; font-weight: bold; margin: 0;"">Is there a person in this image?</p>
                    </div>
                </div>","1","main_experiment_trial","ten","clothing_semantic","semantic_sequence_notimeline","chronological","","","","","","",""
"","","","","","html-keyboard-response","100","322019","0.0-100.0","D144BD2F3DF94E78AF4EBF1AD60F65C6","019d6bab-4d90-769f-acef-b824bd67c964","019d6b6d-d11f-7233-9b95-7a424dbf389f","","null","<div style=""background-color: white; width: 100vw; height: 100vh;""></div>","null","","","","","","","","","","","",""
"","","","","","html-keyboard-response","101","327030","0.0-101.0","D144BD2F3DF94E78AF4EBF1AD60F65C6","019d6bab-4d90-769f-acef-b824bd67c964","019d6b6d-d11f-7233-9b95-7a424dbf389f","","null","
                <div class=""stimulus-container"">
                    <img src=""semantic_sequence_notimeline/fruits_semantic/fruits_semantic_1.png"" class=""exp-image"">
                    <div class=""question-area""></div> 
                </div>","null","","","","","","","","","","","",""
"","","","","","html-button-response","102","327818","0.0-102.0","D144BD2F3DF94E78AF4EBF1AD60F65C6","019d6bab-4d90-769f-acef-b824bd67c964","019d6b6d-d11f-7233-9b95-7a424dbf389f","","788","
                <div class=""stimulus-container"">
                    <img src=""semantic_sequence_notimeline/fruits_semantic/fruits_semantic_1.png"" class=""exp-image"">
                    <div class=""question-area"">
                        <p style=""font-size: 20px; font-weight: bold; margin: 0;"">Is there a person in this image?</p>
                    </div>
                </div>","1","main_experiment_trial","1","fruits_semantic","semantic_sequence_notimeline","chronological","","","","","","",""
"","","","","","html-keyboard-response","103","332824","0.0-103.0","D144BD2F3DF94E78AF4EBF1AD60F65C6","019d6bab-4d90-769f-acef-b824bd67c964","019d6b6d-d11f-7233-9b95-7a424dbf389f","","null","
                <div class=""stimulus-container"">
                    <img src=""semantic_sequence_notimeline/fruits_semantic/fruits_semantic_2.png"" class=""exp-image"">
                    <div class=""question-area""></div> 
                </div>","null","","","","","","","","","","","",""
"","","","","","html-button-response","104","333364","0.0-104.0","D144BD2F3DF94E78AF4EBF1AD60F65C6","019d6bab-4d90-769f-acef-b824bd67c964","019d6b6d-d11f-7233-9b95-7a424dbf389f","","540","
                <div class=""stimulus-container"">
                    <img src=""semantic_sequence_notimeline/fruits_semantic/fruits_semantic_2.png"" class=""exp-image"">
                    <div class=""question-area"">
                        <p style=""font-size: 20px; font-weight: bold; margin: 0;"">Is there a person in this image?</p>
                    </div>
                </div>","1","main_experiment_trial","2","fruits_semantic","semantic_sequence_notimeline","chronological","","","","","","",""
"","","","","","html-keyboard-response","105","338380","0.0-105.0","D144BD2F3DF94E78AF4EBF1AD60F65C6","019d6bab-4d90-769f-acef-b824bd67c964","019d6b6d-d11f-7233-9b95-7a424dbf389f","","null","
                <div class=""stimulus-container"">
                    <img src=""semantic_sequence_notimeline/fruits_semantic/fruits_semantic_3.png"" class=""exp-image"">
                    <div class=""question-area""></div> 
                </div>","null","","","","","","","","","","","",""
"","","","","","html-button-response","106","339046","0.0-106.0","D144BD2F3DF94E78AF4EBF1AD60F65C6","019d6bab-4d90-769f-acef-b824bd67c964","019d6b6d-d11f-7233-9b95-7a424dbf389f","","665","
                <div class=""stimulus-container"">
                    <img src=""semantic_sequence_notimeline/fruits_semantic/fruits_semantic_3.png"" class=""exp-image"">
                    <div class=""question-area"">
                        <p style=""font-size: 20px; font-weight: bold; margin: 0;"">Is there a person in this image?</p>
                    </div>
                </div>","1","main_experiment_trial","3","fruits_semantic","semantic_sequence_notimeline","chronological","","","","","","",""
"","","","","","html-keyboard-response","107","344051","0.0-107.0","D144BD2F3DF94E78AF4EBF1AD60F65C6","019d6bab-4d90-769f-acef-b824bd67c964","019d6b6d-d11f-7233-9b95-7a424dbf389f","","null","
                <div class=""stimulus-container"">
                    <img src=""semantic_sequence_notimeline/fruits_semantic/fruits_semantic_4.png"" class=""exp-image"">
                    <div class=""question-area""></div> 
                </div>","null","","","","","","","","","","","",""
"","","","","","html-button-response","108","344515","0.0-108.0","D144BD2F3DF94E78AF4EBF1AD60F65C6","019d6bab-4d90-769f-acef-b824bd67c964","019d6b6d-d11f-7233-9b95-7a424dbf389f","","464","
                <div class=""stimulus-container"">
                    <img src=""semantic_sequence_notimeline/fruits_semantic/fruits_semantic_4.png"" class=""exp-image"">
                    <div class=""question-area"">
                        <p style=""font-size: 20px; font-weight: bold; margin: 0;"">Is there a person in this image?</p>
                    </div>
                </div>","1","main_experiment_trial","4","fruits_semantic","semantic_sequence_notimeline","chronological","","","","","","",""
"","","","","","html-keyboard-response","109","349526","0.0-109.0","D144BD2F3DF94E78AF4EBF1AD60F65C6","019d6bab-4d90-769f-acef-b824bd67c964","019d6b6d-d11f-7233-9b95-7a424dbf389f","","null","
                <div class=""stimulus-container"">
                    <img src=""semantic_sequence_notimeline/fruits_semantic/fruits_semantic_5.png"" class=""exp-image"">
                    <div class=""question-area""></div> 
                </div>","null","","","","","","","","","","","",""
"","","","","","html-button-response","110","350152","0.0-110.0","D144BD2F3DF94E78AF4EBF1AD60F65C6","019d6bab-4d90-769f-acef-b824bd67c964","019d6b6d-d11f-7233-9b95-7a424dbf389f","","626","
                <div class=""stimulus-container"">
                    <img src=""semantic_sequence_notimeline/fruits_semantic/fruits_semantic_5.png"" class=""exp-image"">
                    <div class=""question-area"">
                        <p style=""font-size: 20px; font-weight: bold; margin: 0;"">Is there a person in this image?</p>
                    </div>
                </div>","1","main_experiment_trial","5","fruits_semantic","semantic_sequence_notimeline","chronological","","","","","","",""
"","","","","","html-keyboard-response","111","355155","0.0-111.0","D144BD2F3DF94E78AF4EBF1AD60F65C6","019d6bab-4d90-769f-acef-b824bd67c964","019d6b6d-d11f-7233-9b95-7a424dbf389f","","null","
                <div class=""stimulus-container"">
                    <img src=""semantic_sequence_notimeline/fruits_semantic/fruits_semantic_6.png"" class=""exp-image"">
                    <div class=""question-area""></div> 
                </div>","null","","","","","","","","","","","",""
"","","","","","html-button-response","112","355923","0.0-112.0","D144BD2F3DF94E78AF4EBF1AD60F65C6","019d6bab-4d90-769f-acef-b824bd67c964","019d6b6d-d11f-7233-9b95-7a424dbf389f","","767","
                <div class=""stimulus-container"">
                    <img src=""semantic_sequence_notimeline/fruits_semantic/fruits_semantic_6.png"" class=""exp-image"">
                    <div class=""question-area"">
                        <p style=""font-size: 20px; font-weight: bold; margin: 0;"">Is there a person in this image?</p>
                    </div>
                </div>","1","main_experiment_trial","6","fruits_semantic","semantic_sequence_notimeline","chronological","","","","","","",""
"","","","","","html-keyboard-response","113","360926","0.0-113.0","D144BD2F3DF94E78AF4EBF1AD60F65C6","019d6bab-4d90-769f-acef-b824bd67c964","019d6b6d-d11f-7233-9b95-7a424dbf389f","","null","
                <div class=""stimulus-container"">
                    <img src=""semantic_sequence_notimeline/fruits_semantic/fruits_semantic_7.png"" class=""exp-image"">
                    <div class=""question-area""></div> 
                </div>","null","","","","","","","","","","","",""
"","","","","","html-button-response","114","361320","0.0-114.0","D144BD2F3DF94E78AF4EBF1AD60F65C6","019d6bab-4d90-769f-acef-b824bd67c964","019d6b6d-d11f-7233-9b95-7a424dbf389f","","392","
                <div class=""stimulus-container"">
                    <img src=""semantic_sequence_notimeline/fruits_semantic/fruits_semantic_7.png"" class=""exp-image"">
                    <div class=""question-area"">
                        <p style=""font-size: 20px; font-weight: bold; margin: 0;"">Is there a person in this image?</p>
                    </div>
                </div>","1","main_experiment_trial","7","fruits_semantic","semantic_sequence_notimeline","chronological","","","","","","",""
"","","","","","html-keyboard-response","115","366329","0.0-115.0","D144BD2F3DF94E78AF4EBF1AD60F65C6","019d6bab-4d90-769f-acef-b824bd67c964","019d6b6d-d11f-7233-9b95-7a424dbf389f","","null","
                <div class=""stimulus-container"">
                    <img src=""semantic_sequence_notimeline/fruits_semantic/fruits_semantic_8.png"" class=""exp-image"">
                    <div class=""question-area""></div> 
                </div>","null","","","","","","","","","","","",""
"","","","","","html-button-response","116","366743","0.0-116.0","D144BD2F3DF94E78AF4EBF1AD60F65C6","019d6bab-4d90-769f-acef-b824bd67c964","019d6b6d-d11f-7233-9b95-7a424dbf389f","","412","
                <div class=""stimulus-container"">
                    <img src=""semantic_sequence_notimeline/fruits_semantic/fruits_semantic_8.png"" class=""exp-image"">
                    <div class=""question-area"">
                        <p style=""font-size: 20px; font-weight: bold; margin: 0;"">Is there a person in this image?</p>
                    </div>
                </div>","1","main_experiment_trial","8","fruits_semantic","semantic_sequence_notimeline","chronological","","","","","","",""
"","","","","","html-keyboard-response","117","371748","0.0-117.0","D144BD2F3DF94E78AF4EBF1AD60F65C6","019d6bab-4d90-769f-acef-b824bd67c964","019d6b6d-d11f-7233-9b95-7a424dbf389f","","null","
                <div class=""stimulus-container"">
                    <img src=""semantic_sequence_notimeline/fruits_semantic/fruits_semantic_9.png"" class=""exp-image"">
                    <div class=""question-area""></div> 
                </div>","null","","","","","","","","","","","",""
"","","","","","html-button-response","118","372163","0.0-118.0","D144BD2F3DF94E78AF4EBF1AD60F65C6","019d6bab-4d90-769f-acef-b824bd67c964","019d6b6d-d11f-7233-9b95-7a424dbf389f","","414","
                <div class=""stimulus-container"">
                    <img src=""semantic_sequence_notimeline/fruits_semantic/fruits_semantic_9.png"" class=""exp-image"">
                    <div class=""question-area"">
                        <p style=""font-size: 20px; font-weight: bold; margin: 0;"">Is there a person in this image?</p>
                    </div>
                </div>","1","main_experiment_trial","9","fruits_semantic","semantic_sequence_notimeline","chronological","","","","","","",""
"","","","","","html-keyboard-response","119","377169","0.0-119.0","D144BD2F3DF94E78AF4EBF1AD60F65C6","019d6bab-4d90-769f-acef-b824bd67c964","019d6b6d-d11f-7233-9b95-7a424dbf389f","","null","
                <div class=""stimulus-container"">
                    <img src=""semantic_sequence_notimeline/fruits_semantic/fruits_semantic_ten.png"" class=""exp-image"">
                    <div class=""question-area""></div> 
                </div>","null","","","","","","","","","","","",""
"","","","","","html-button-response","120","377723","0.0-120.0","D144BD2F3DF94E78AF4EBF1AD60F65C6","019d6bab-4d90-769f-acef-b824bd67c964","019d6b6d-d11f-7233-9b95-7a424dbf389f","","554","
                <div class=""stimulus-container"">
                    <img src=""semantic_sequence_notimeline/fruits_semantic/fruits_semantic_ten.png"" class=""exp-image"">
                    <div class=""question-area"">
                        <p style=""font-size: 20px; font-weight: bold; margin: 0;"">Is there a person in this image?</p>
                    </div>
                </div>","1","main_experiment_trial","ten","fruits_semantic","semantic_sequence_notimeline","chronological","","","","","","",""
"","","","","","html-keyboard-response","121","382736","0.0-121.0","D144BD2F3DF94E78AF4EBF1AD60F65C6","019d6bab-4d90-769f-acef-b824bd67c964","019d6b6d-d11f-7233-9b95-7a424dbf389f","","null","<div style=""background-color: white; width: 100vw; height: 100vh;""></div>","null","","","","","","","","","","","",""
"","","","","","html-keyboard-response","122","387747","0.0-122.0","D144BD2F3DF94E78AF4EBF1AD60F65C6","019d6bab-4d90-769f-acef-b824bd67c964","019d6b6d-d11f-7233-9b95-7a424dbf389f","","null","
                <div class=""stimulus-container"">
                    <img src=""semantic_sequence_notimeline/animals_semantic/animals_semantic_1.png"" class=""exp-image"">
                    <div class=""question-area""></div> 
                </div>","null","","","","","","","","","","","",""
"","","","","","html-button-response","123","388411","0.0-123.0","D144BD2F3DF94E78AF4EBF1AD60F65C6","019d6bab-4d90-769f-acef-b824bd67c964","019d6b6d-d11f-7233-9b95-7a424dbf389f","","664","
                <div class=""stimulus-container"">
                    <img src=""semantic_sequence_notimeline/animals_semantic/animals_semantic_1.png"" class=""exp-image"">
                    <div class=""question-area"">
                        <p style=""font-size: 20px; font-weight: bold; margin: 0;"">Is there a person in this image?</p>
                    </div>
                </div>","1","main_experiment_trial","1","animals_semantic","semantic_sequence_notimeline","chronological","","","","","","",""
"","","","","","html-keyboard-response","124","393425","0.0-124.0","D144BD2F3DF94E78AF4EBF1AD60F65C6","019d6bab-4d90-769f-acef-b824bd67c964","019d6b6d-d11f-7233-9b95-7a424dbf389f","","null","
                <div class=""stimulus-container"">
                    <img src=""semantic_sequence_notimeline/animals_semantic/animals_semantic_2.png"" class=""exp-image"">
                    <div class=""question-area""></div> 
                </div>","null","","","","","","","","","","","",""
"","","","","","html-button-response","125","395519","0.0-125.0","D144BD2F3DF94E78AF4EBF1AD60F65C6","019d6bab-4d90-769f-acef-b824bd67c964","019d6b6d-d11f-7233-9b95-7a424dbf389f","","2094","
                <div class=""stimulus-container"">
                    <img src=""semantic_sequence_notimeline/animals_semantic/animals_semantic_2.png"" class=""exp-image"">
                    <div class=""question-area"">
                        <p style=""font-size: 20px; font-weight: bold; margin: 0;"">Is there a person in this image?</p>
                    </div>
                </div>","1","main_experiment_trial","2","animals_semantic","semantic_sequence_notimeline","chronological","","","","","","",""
"","","","","","html-keyboard-response","126","400531","0.0-126.0","D144BD2F3DF94E78AF4EBF1AD60F65C6","019d6bab-4d90-769f-acef-b824bd67c964","019d6b6d-d11f-7233-9b95-7a424dbf389f","","null","
                <div class=""stimulus-container"">
                    <img src=""semantic_sequence_notimeline/animals_semantic/animals_semantic_3.png"" class=""exp-image"">
                    <div class=""question-area""></div> 
                </div>","null","","","","","","","","","","","",""
"","","","","","html-button-response","127","401527","0.0-127.0","D144BD2F3DF94E78AF4EBF1AD60F65C6","019d6bab-4d90-769f-acef-b824bd67c964","019d6b6d-d11f-7233-9b95-7a424dbf389f","","996","
                <div class=""stimulus-container"">
                    <img src=""semantic_sequence_notimeline/animals_semantic/animals_semantic_3.png"" class=""exp-image"">
                    <div class=""question-area"">
                        <p style=""font-size: 20px; font-weight: bold; margin: 0;"">Is there a person in this image?</p>
                    </div>
                </div>","1","main_experiment_trial","3","animals_semantic","semantic_sequence_notimeline","chronological","","","","","","",""
"","","","","","html-keyboard-response","128","406536","0.0-128.0","D144BD2F3DF94E78AF4EBF1AD60F65C6","019d6bab-4d90-769f-acef-b824bd67c964","019d6b6d-d11f-7233-9b95-7a424dbf389f","","null","
                <div class=""stimulus-container"">
                    <img src=""semantic_sequence_notimeline/animals_semantic/animals_semantic_4.png"" class=""exp-image"">
                    <div class=""question-area""></div> 
                </div>","null","","","","","","","","","","","",""
"","","","","","html-button-response","129","407497","0.0-129.0","D144BD2F3DF94E78AF4EBF1AD60F65C6","019d6bab-4d90-769f-acef-b824bd67c964","019d6b6d-d11f-7233-9b95-7a424dbf389f","","961","
                <div class=""stimulus-container"">
                    <img src=""semantic_sequence_notimeline/animals_semantic/animals_semantic_4.png"" class=""exp-image"">
                    <div class=""question-area"">
                        <p style=""font-size: 20px; font-weight: bold; margin: 0;"">Is there a person in this image?</p>
                    </div>
                </div>","1","main_experiment_trial","4","animals_semantic","semantic_sequence_notimeline","chronological","","","","","","",""
"","","","","","html-keyboard-response","130","412509","0.0-130.0","D144BD2F3DF94E78AF4EBF1AD60F65C6","019d6bab-4d90-769f-acef-b824bd67c964","019d6b6d-d11f-7233-9b95-7a424dbf389f","","null","
                <div class=""stimulus-container"">
                    <img src=""semantic_sequence_notimeline/animals_semantic/animals_semantic_5.png"" class=""exp-image"">
                    <div class=""question-area""></div> 
                </div>","null","","","","","","","","","","","",""
"","","","","","html-button-response","131","412836","0.0-131.0","D144BD2F3DF94E78AF4EBF1AD60F65C6","019d6bab-4d90-769f-acef-b824bd67c964","019d6b6d-d11f-7233-9b95-7a424dbf389f","","328","
                <div class=""stimulus-container"">
                    <img src=""semantic_sequence_notimeline/animals_semantic/animals_semantic_5.png"" class=""exp-image"">
                    <div class=""question-area"">
                        <p style=""font-size: 20px; font-weight: bold; margin: 0;"">Is there a person in this image?</p>
                    </div>
                </div>","1","main_experiment_trial","5","animals_semantic","semantic_sequence_notimeline","chronological","","","","","","",""
"","","","","","html-keyboard-response","132","417847","0.0-132.0","D144BD2F3DF94E78AF4EBF1AD60F65C6","019d6bab-4d90-769f-acef-b824bd67c964","019d6b6d-d11f-7233-9b95-7a424dbf389f","","null","
                <div class=""stimulus-container"">
                    <img src=""semantic_sequence_notimeline/animals_semantic/animals_semantic_6.png"" class=""exp-image"">
                    <div class=""question-area""></div> 
                </div>","null","","","","","","","","","","","",""
"","","","","","html-button-response","133","418354","0.0-133.0","D144BD2F3DF94E78AF4EBF1AD60F65C6","019d6bab-4d90-769f-acef-b824bd67c964","019d6b6d-d11f-7233-9b95-7a424dbf389f","","507","
                <div class=""stimulus-container"">
                    <img src=""semantic_sequence_notimeline/animals_semantic/animals_semantic_6.png"" class=""exp-image"">
                    <div class=""question-area"">
                        <p style=""font-size: 20px; font-weight: bold; margin: 0;"">Is there a person in this image?</p>
                    </div>
                </div>","1","main_experiment_trial","6","animals_semantic","semantic_sequence_notimeline","chronological","","","","","","",""
"","","","","","html-keyboard-response","134","423363","0.0-134.0","D144BD2F3DF94E78AF4EBF1AD60F65C6","019d6bab-4d90-769f-acef-b824bd67c964","019d6b6d-d11f-7233-9b95-7a424dbf389f","","null","
                <div class=""stimulus-container"">
                    <img src=""semantic_sequence_notimeline/animals_semantic/animals_semantic_7.png"" class=""exp-image"">
                    <div class=""question-area""></div> 
                </div>","null","","","","","","","","","","","",""
"","","","","","html-button-response","135","423956","0.0-135.0","D144BD2F3DF94E78AF4EBF1AD60F65C6","019d6bab-4d90-769f-acef-b824bd67c964","019d6b6d-d11f-7233-9b95-7a424dbf389f","","594","
                <div class=""stimulus-container"">
                    <img src=""semantic_sequence_notimeline/animals_semantic/animals_semantic_7.png"" class=""exp-image"">
                    <div class=""question-area"">
                        <p style=""font-size: 20px; font-weight: bold; margin: 0;"">Is there a person in this image?</p>
                    </div>
                </div>","1","main_experiment_trial","7","animals_semantic","semantic_sequence_notimeline","chronological","","","","","","",""
"","","","","","html-keyboard-response","136","428971","0.0-136.0","D144BD2F3DF94E78AF4EBF1AD60F65C6","019d6bab-4d90-769f-acef-b824bd67c964","019d6b6d-d11f-7233-9b95-7a424dbf389f","","null","
                <div class=""stimulus-container"">
                    <img src=""semantic_sequence_notimeline/animals_semantic/animals_semantic_8.png"" class=""exp-image"">
                    <div class=""question-area""></div> 
                </div>","null","","","","","","","","","","","",""
"","","","","","html-button-response","137","429348","0.0-137.0","D144BD2F3DF94E78AF4EBF1AD60F65C6","019d6bab-4d90-769f-acef-b824bd67c964","019d6b6d-d11f-7233-9b95-7a424dbf389f","","378","
                <div class=""stimulus-container"">
                    <img src=""semantic_sequence_notimeline/animals_semantic/animals_semantic_8.png"" class=""exp-image"">
                    <div class=""question-area"">
                        <p style=""font-size: 20px; font-weight: bold; margin: 0;"">Is there a person in this image?</p>
                    </div>
                </div>","1","main_experiment_trial","8","animals_semantic","semantic_sequence_notimeline","chronological","","","","","","",""
"","","","","","html-keyboard-response","138","434350","0.0-138.0","D144BD2F3DF94E78AF4EBF1AD60F65C6","019d6bab-4d90-769f-acef-b824bd67c964","019d6b6d-d11f-7233-9b95-7a424dbf389f","","null","
                <div class=""stimulus-container"">
                    <img src=""semantic_sequence_notimeline/animals_semantic/animals_semantic_9.png"" class=""exp-image"">
                    <div class=""question-area""></div> 
                </div>","null","","","","","","","","","","","",""
"","","","","","html-button-response","139","434685","0.0-139.0","D144BD2F3DF94E78AF4EBF1AD60F65C6","019d6bab-4d90-769f-acef-b824bd67c964","019d6b6d-d11f-7233-9b95-7a424dbf389f","","336","
                <div class=""stimulus-container"">
                    <img src=""semantic_sequence_notimeline/animals_semantic/animals_semantic_9.png"" class=""exp-image"">
                    <div class=""question-area"">
                        <p style=""font-size: 20px; font-weight: bold; margin: 0;"">Is there a person in this image?</p>
                    </div>
                </div>","1","main_experiment_trial","9","animals_semantic","semantic_sequence_notimeline","chronological","","","","","","",""
"","","","","","html-keyboard-response","140","439689","0.0-140.0","D144BD2F3DF94E78AF4EBF1AD60F65C6","019d6bab-4d90-769f-acef-b824bd67c964","019d6b6d-d11f-7233-9b95-7a424dbf389f","","null","
                <div class=""stimulus-container"">
                    <img src=""semantic_sequence_notimeline/animals_semantic/animals_semantic_ten.png"" class=""exp-image"">
                    <div class=""question-area""></div> 
                </div>","null","","","","","","","","","","","",""
"","","","","","html-button-response","141","440117","0.0-141.0","D144BD2F3DF94E78AF4EBF1AD60F65C6","019d6bab-4d90-769f-acef-b824bd67c964","019d6b6d-d11f-7233-9b95-7a424dbf389f","","428","
                <div class=""stimulus-container"">
                    <img src=""semantic_sequence_notimeline/animals_semantic/animals_semantic_ten.png"" class=""exp-image"">
                    <div class=""question-area"">
                        <p style=""font-size: 20px; font-weight: bold; margin: 0;"">Is there a person in this image?</p>
                    </div>
                </div>","1","main_experiment_trial","ten","animals_semantic","semantic_sequence_notimeline","chronological","","","","","","",""
"","","","","","html-keyboard-response","142","445121","0.0-142.0","D144BD2F3DF94E78AF4EBF1AD60F65C6","019d6bab-4d90-769f-acef-b824bd67c964","019d6b6d-d11f-7233-9b95-7a424dbf389f","","null","<div style=""background-color: white; width: 100vw; height: 100vh;""></div>","null","","","","","","","","","","","",""
"","","","","","html-keyboard-response","143","450131","0.0-143.0","D144BD2F3DF94E78AF4EBF1AD60F65C6","019d6bab-4d90-769f-acef-b824bd67c964","019d6b6d-d11f-7233-9b95-7a424dbf389f","","null","
                <div class=""stimulus-container"">
                    <img src=""images/causal_sequence/dog_causal/dog_causal_1.png"" class=""exp-image"">
                    <div class=""question-area""></div> 
                </div>","null","","","","","","","","","","","",""
"","","","","","html-button-response","144","450535","0.0-144.0","D144BD2F3DF94E78AF4EBF1AD60F65C6","019d6bab-4d90-769f-acef-b824bd67c964","019d6b6d-d11f-7233-9b95-7a424dbf389f","","403","
                <div class=""stimulus-container"">
                    <img src=""images/causal_sequence/dog_causal/dog_causal_1.png"" class=""exp-image"">
                    <div class=""question-area"">
                        <p style=""font-size: 20px; font-weight: bold; margin: 0;"">Is there a person in this image?</p>
                    </div>
                </div>","0","main_experiment_trial","1","dog_causal","causal_sequence","chronological","","","","","","",""
"","","","","","html-keyboard-response","145","455536","0.0-145.0","D144BD2F3DF94E78AF4EBF1AD60F65C6","019d6bab-4d90-769f-acef-b824bd67c964","019d6b6d-d11f-7233-9b95-7a424dbf389f","","null","
                <div class=""stimulus-container"">
                    <img src=""images/causal_sequence/dog_causal/dog_causal_2.png"" class=""exp-image"">
                    <div class=""question-area""></div> 
                </div>","null","","","","","","","","","","","",""
"","","","","","html-button-response","146","456056","0.0-146.0","D144BD2F3DF94E78AF4EBF1AD60F65C6","019d6bab-4d90-769f-acef-b824bd67c964","019d6b6d-d11f-7233-9b95-7a424dbf389f","","519","
                <div class=""stimulus-container"">
                    <img src=""images/causal_sequence/dog_causal/dog_causal_2.png"" class=""exp-image"">
                    <div class=""question-area"">
                        <p style=""font-size: 20px; font-weight: bold; margin: 0;"">Is there a person in this image?</p>
                    </div>
                </div>","0","main_experiment_trial","2","dog_causal","causal_sequence","chronological","","","","","","",""
"","","","","","html-keyboard-response","147","461064","0.0-147.0","D144BD2F3DF94E78AF4EBF1AD60F65C6","019d6bab-4d90-769f-acef-b824bd67c964","019d6b6d-d11f-7233-9b95-7a424dbf389f","","null","
                <div class=""stimulus-container"">
                    <img src=""images/causal_sequence/dog_causal/dog_causal_3.png"" class=""exp-image"">
                    <div class=""question-area""></div> 
                </div>","null","","","","","","","","","","","",""
"","","","","","html-button-response","148","461938","0.0-148.0","D144BD2F3DF94E78AF4EBF1AD60F65C6","019d6bab-4d90-769f-acef-b824bd67c964","019d6b6d-d11f-7233-9b95-7a424dbf389f","","874","
                <div class=""stimulus-container"">
                    <img src=""images/causal_sequence/dog_causal/dog_causal_3.png"" class=""exp-image"">
                    <div class=""question-area"">
                        <p style=""font-size: 20px; font-weight: bold; margin: 0;"">Is there a person in this image?</p>
                    </div>
                </div>","0","main_experiment_trial","3","dog_causal","causal_sequence","chronological","","","","","","",""
"","","","","","html-keyboard-response","149","466950","0.0-149.0","D144BD2F3DF94E78AF4EBF1AD60F65C6","019d6bab-4d90-769f-acef-b824bd67c964","019d6b6d-d11f-7233-9b95-7a424dbf389f","","null","
                <div class=""stimulus-container"">
                    <img src=""images/causal_sequence/dog_causal/dog_causal_4.png"" class=""exp-image"">
                    <div class=""question-area""></div> 
                </div>","null","","","","","","","","","","","",""
"","","","","","html-button-response","150","467327","0.0-150.0","D144BD2F3DF94E78AF4EBF1AD60F65C6","019d6bab-4d90-769f-acef-b824bd67c964","019d6b6d-d11f-7233-9b95-7a424dbf389f","","378","
                <div class=""stimulus-container"">
                    <img src=""images/causal_sequence/dog_causal/dog_causal_4.png"" class=""exp-image"">
                    <div class=""question-area"">
                        <p style=""font-size: 20px; font-weight: bold; margin: 0;"">Is there a person in this image?</p>
                    </div>
                </div>","0","main_experiment_trial","4","dog_causal","causal_sequence","chronological","","","","","","",""
"","","","","","html-keyboard-response","151","472337","0.0-151.0","D144BD2F3DF94E78AF4EBF1AD60F65C6","019d6bab-4d90-769f-acef-b824bd67c964","019d6b6d-d11f-7233-9b95-7a424dbf389f","","null","
                <div class=""stimulus-container"">
                    <img src=""images/causal_sequence/dog_causal/dog_causal_5.png"" class=""exp-image"">
                    <div class=""question-area""></div> 
                </div>","null","","","","","","","","","","","",""
"","","","","","html-button-response","152","472657","0.0-152.0","D144BD2F3DF94E78AF4EBF1AD60F65C6","019d6bab-4d90-769f-acef-b824bd67c964","019d6b6d-d11f-7233-9b95-7a424dbf389f","","320","
                <div class=""stimulus-container"">
                    <img src=""images/causal_sequence/dog_causal/dog_causal_5.png"" class=""exp-image"">
                    <div class=""question-area"">
                        <p style=""font-size: 20px; font-weight: bold; margin: 0;"">Is there a person in this image?</p>
                    </div>
                </div>","0","main_experiment_trial","5","dog_causal","causal_sequence","chronological","","","","","","",""
"","","","","","html-keyboard-response","153","477661","0.0-153.0","D144BD2F3DF94E78AF4EBF1AD60F65C6","019d6bab-4d90-769f-acef-b824bd67c964","019d6b6d-d11f-7233-9b95-7a424dbf389f","","null","
                <div class=""stimulus-container"">
                    <img src=""images/causal_sequence/dog_causal/dog_causal_6.png"" class=""exp-image"">
                    <div class=""question-area""></div> 
                </div>","null","","","","","","","","","","","",""
"","","","","","html-button-response","154","478051","0.0-154.0","D144BD2F3DF94E78AF4EBF1AD60F65C6","019d6bab-4d90-769f-acef-b824bd67c964","019d6b6d-d11f-7233-9b95-7a424dbf389f","","390","
                <div class=""stimulus-container"">
                    <img src=""images/causal_sequence/dog_causal/dog_causal_6.png"" class=""exp-image"">
                    <div class=""question-area"">
                        <p style=""font-size: 20px; font-weight: bold; margin: 0;"">Is there a person in this image?</p>
                    </div>
                </div>","0","main_experiment_trial","6","dog_causal","causal_sequence","chronological","","","","","","",""
"","","","","","html-keyboard-response","155","483060","0.0-155.0","D144BD2F3DF94E78AF4EBF1AD60F65C6","019d6bab-4d90-769f-acef-b824bd67c964","019d6b6d-d11f-7233-9b95-7a424dbf389f","","null","
                <div class=""stimulus-container"">
                    <img src=""images/causal_sequence/dog_causal/dog_causal_7.png"" class=""exp-image"">
                    <div class=""question-area""></div> 
                </div>","null","","","","","","","","","","","",""
"","","","","","html-button-response","156","483769","0.0-156.0","D144BD2F3DF94E78AF4EBF1AD60F65C6","019d6bab-4d90-769f-acef-b824bd67c964","019d6b6d-d11f-7233-9b95-7a424dbf389f","","709","
                <div class=""stimulus-container"">
                    <img src=""images/causal_sequence/dog_causal/dog_causal_7.png"" class=""exp-image"">
                    <div class=""question-area"">
                        <p style=""font-size: 20px; font-weight: bold; margin: 0;"">Is there a person in this image?</p>
                    </div>
                </div>","0","main_experiment_trial","7","dog_causal","causal_sequence","chronological","","","","","","",""
"","","","","","html-keyboard-response","157","488772","0.0-157.0","D144BD2F3DF94E78AF4EBF1AD60F65C6","019d6bab-4d90-769f-acef-b824bd67c964","019d6b6d-d11f-7233-9b95-7a424dbf389f","","null","
                <div class=""stimulus-container"">
                    <img src=""images/causal_sequence/dog_causal/dog_causal_8.png"" class=""exp-image"">
                    <div class=""question-area""></div> 
                </div>","null","","","","","","","","","","","",""
"","","","","","html-button-response","158","489188","0.0-158.0","D144BD2F3DF94E78AF4EBF1AD60F65C6","019d6bab-4d90-769f-acef-b824bd67c964","019d6b6d-d11f-7233-9b95-7a424dbf389f","","415","
                <div class=""stimulus-container"">
                    <img src=""images/causal_sequence/dog_causal/dog_causal_8.png"" class=""exp-image"">
                    <div class=""question-area"">
                        <p style=""font-size: 20px; font-weight: bold; margin: 0;"">Is there a person in this image?</p>
                    </div>
                </div>","0","main_experiment_trial","8","dog_causal","causal_sequence","chronological","","","","","","",""
"","","","","","html-keyboard-response","159","494200","0.0-159.0","D144BD2F3DF94E78AF4EBF1AD60F65C6","019d6bab-4d90-769f-acef-b824bd67c964","019d6b6d-d11f-7233-9b95-7a424dbf389f","","null","
                <div class=""stimulus-container"">
                    <img src=""images/causal_sequence/dog_causal/dog_causal_9.png"" class=""exp-image"">
                    <div class=""question-area""></div> 
                </div>","null","","","","","","","","","","","",""
"","","","","","html-button-response","160","494544","0.0-160.0","D144BD2F3DF94E78AF4EBF1AD60F65C6","019d6bab-4d90-769f-acef-b824bd67c964","019d6b6d-d11f-7233-9b95-7a424dbf389f","","343","
                <div class=""stimulus-container"">
                    <img src=""images/causal_sequence/dog_causal/dog_causal_9.png"" class=""exp-image"">
                    <div class=""question-area"">
                        <p style=""font-size: 20px; font-weight: bold; margin: 0;"">Is there a person in this image?</p>
                    </div>
                </div>","0","main_experiment_trial","9","dog_causal","causal_sequence","chronological","","","","","","",""
"","","","","","html-keyboard-response","161","499547","0.0-161.0","D144BD2F3DF94E78AF4EBF1AD60F65C6","019d6bab-4d90-769f-acef-b824bd67c964","019d6b6d-d11f-7233-9b95-7a424dbf389f","","null","
                <div class=""stimulus-container"">
                    <img src=""images/causal_sequence/dog_causal/dog_causal_ten.png"" class=""exp-image"">
                    <div class=""question-area""></div> 
                </div>","null","","","","","","","","","","","",""
"","","","","","html-button-response","162","500210","0.0-162.0","D144BD2F3DF94E78AF4EBF1AD60F65C6","019d6bab-4d90-769f-acef-b824bd67c964","019d6b6d-d11f-7233-9b95-7a424dbf389f","","664","
                <div class=""stimulus-container"">
                    <img src=""images/causal_sequence/dog_causal/dog_causal_ten.png"" class=""exp-image"">
                    <div class=""question-area"">
                        <p style=""font-size: 20px; font-weight: bold; margin: 0;"">Is there a person in this image?</p>
                    </div>
                </div>","0","main_experiment_trial","ten","dog_causal","causal_sequence","chronological","","","","","","",""
"","","","","","html-keyboard-response","163","505214","0.0-163.0","D144BD2F3DF94E78AF4EBF1AD60F65C6","019d6bab-4d90-769f-acef-b824bd67c964","019d6b6d-d11f-7233-9b95-7a424dbf389f","","null","<div style=""background-color: white; width: 100vw; height: 100vh;""></div>","null","","","","","","","","","","","",""
"","","","","","html-keyboard-response","164","510218","0.0-164.0","D144BD2F3DF94E78AF4EBF1AD60F65C6","019d6bab-4d90-769f-acef-b824bd67c964","019d6b6d-d11f-7233-9b95-7a424dbf389f","","null","
                <div class=""stimulus-container"">
                    <img src=""semantic_sequence_notimeline/household_objects_semantic/household_objects_semantic_1.png"" class=""exp-image"">
                    <div class=""question-area""></div> 
                </div>","null","","","","","","","","","","","",""
"","","","","","html-button-response","165","510841","0.0-165.0","D144BD2F3DF94E78AF4EBF1AD60F65C6","019d6bab-4d90-769f-acef-b824bd67c964","019d6b6d-d11f-7233-9b95-7a424dbf389f","","623","
                <div class=""stimulus-container"">
                    <img src=""semantic_sequence_notimeline/household_objects_semantic/household_objects_semantic_1.png"" class=""exp-image"">
                    <div class=""question-area"">
                        <p style=""font-size: 20px; font-weight: bold; margin: 0;"">Is there a person in this image?</p>
                    </div>
                </div>","1","main_experiment_trial","1","household_objects_semantic","semantic_sequence_notimeline","chronological","","","","","","",""
"","","","","","html-keyboard-response","166","515850","0.0-166.0","D144BD2F3DF94E78AF4EBF1AD60F65C6","019d6bab-4d90-769f-acef-b824bd67c964","019d6b6d-d11f-7233-9b95-7a424dbf389f","","null","
                <div class=""stimulus-container"">
                    <img src=""semantic_sequence_notimeline/household_objects_semantic/household_objects_semantic_2.png"" class=""exp-image"">
                    <div class=""question-area""></div> 
                </div>","null","","","","","","","","","","","",""
"","","","","","html-button-response","167","516247","0.0-167.0","D144BD2F3DF94E78AF4EBF1AD60F65C6","019d6bab-4d90-769f-acef-b824bd67c964","019d6b6d-d11f-7233-9b95-7a424dbf389f","","396","
                <div class=""stimulus-container"">
                    <img src=""semantic_sequence_notimeline/household_objects_semantic/household_objects_semantic_2.png"" class=""exp-image"">
                    <div class=""question-area"">
                        <p style=""font-size: 20px; font-weight: bold; margin: 0;"">Is there a person in this image?</p>
                    </div>
                </div>","1","main_experiment_trial","2","household_objects_semantic","semantic_sequence_notimeline","chronological","","","","","","",""
"","","","","","html-keyboard-response","168","521257","0.0-168.0","D144BD2F3DF94E78AF4EBF1AD60F65C6","019d6bab-4d90-769f-acef-b824bd67c964","019d6b6d-d11f-7233-9b95-7a424dbf389f","","null","
                <div class=""stimulus-container"">
                    <img src=""semantic_sequence_notimeline/household_objects_semantic/household_objects_semantic_3.png"" class=""exp-image"">
                    <div class=""question-area""></div> 
                </div>","null","","","","","","","","","","","",""
"","","","","","html-button-response","169","521692","0.0-169.0","D144BD2F3DF94E78AF4EBF1AD60F65C6","019d6bab-4d90-769f-acef-b824bd67c964","019d6b6d-d11f-7233-9b95-7a424dbf389f","","435","
                <div class=""stimulus-container"">
                    <img src=""semantic_sequence_notimeline/household_objects_semantic/household_objects_semantic_3.png"" class=""exp-image"">
                    <div class=""question-area"">
                        <p style=""font-size: 20px; font-weight: bold; margin: 0;"">Is there a person in this image?</p>
                    </div>
                </div>","1","main_experiment_trial","3","household_objects_semantic","semantic_sequence_notimeline","chronological","","","","","","",""
"","","","","","html-keyboard-response","170","526705","0.0-170.0","D144BD2F3DF94E78AF4EBF1AD60F65C6","019d6bab-4d90-769f-acef-b824bd67c964","019d6b6d-d11f-7233-9b95-7a424dbf389f","","null","
                <div class=""stimulus-container"">
                    <img src=""semantic_sequence_notimeline/household_objects_semantic/household_objects_semantic_4.png"" class=""exp-image"">
                    <div class=""question-area""></div> 
                </div>","null","","","","","","","","","","","",""
"","","","","","html-button-response","171","527013","0.0-171.0","D144BD2F3DF94E78AF4EBF1AD60F65C6","019d6bab-4d90-769f-acef-b824bd67c964","019d6b6d-d11f-7233-9b95-7a424dbf389f","","306","
                <div class=""stimulus-container"">
                    <img src=""semantic_sequence_notimeline/household_objects_semantic/household_objects_semantic_4.png"" class=""exp-image"">
                    <div class=""question-area"">
                        <p style=""font-size: 20px; font-weight: bold; margin: 0;"">Is there a person in this image?</p>
                    </div>
                </div>","1","main_experiment_trial","4","household_objects_semantic","semantic_sequence_notimeline","chronological","","","","","","",""
"","","","","","html-keyboard-response","172","532016","0.0-172.0","D144BD2F3DF94E78AF4EBF1AD60F65C6","019d6bab-4d90-769f-acef-b824bd67c964","019d6b6d-d11f-7233-9b95-7a424dbf389f","","null","
                <div class=""stimulus-container"">
                    <img src=""semantic_sequence_notimeline/household_objects_semantic/household_objects_semantic_5.png"" class=""exp-image"">
                    <div class=""question-area""></div> 
                </div>","null","","","","","","","","","","","",""
"","","","","","html-button-response","173","532421","0.0-173.0","D144BD2F3DF94E78AF4EBF1AD60F65C6","019d6bab-4d90-769f-acef-b824bd67c964","019d6b6d-d11f-7233-9b95-7a424dbf389f","","405","
                <div class=""stimulus-container"">
                    <img src=""semantic_sequence_notimeline/household_objects_semantic/household_objects_semantic_5.png"" class=""exp-image"">
                    <div class=""question-area"">
                        <p style=""font-size: 20px; font-weight: bold; margin: 0;"">Is there a person in this image?</p>
                    </div>
                </div>","1","main_experiment_trial","5","household_objects_semantic","semantic_sequence_notimeline","chronological","","","","","","",""
"","","","","","html-keyboard-response","174","537429","0.0-174.0","D144BD2F3DF94E78AF4EBF1AD60F65C6","019d6bab-4d90-769f-acef-b824bd67c964","019d6b6d-d11f-7233-9b95-7a424dbf389f","","null","
                <div class=""stimulus-container"">
                    <img src=""semantic_sequence_notimeline/household_objects_semantic/household_objects_semantic_6.png"" class=""exp-image"">
                    <div class=""question-area""></div> 
                </div>","null","","","","","","","","","","","",""
"","","","","","html-button-response","175","537734","0.0-175.0","D144BD2F3DF94E78AF4EBF1AD60F65C6","019d6bab-4d90-769f-acef-b824bd67c964","019d6b6d-d11f-7233-9b95-7a424dbf389f","","305","
                <div class=""stimulus-container"">
                    <img src=""semantic_sequence_notimeline/household_objects_semantic/household_objects_semantic_6.png"" class=""exp-image"">
                    <div class=""question-area"">
                        <p style=""font-size: 20px; font-weight: bold; margin: 0;"">Is there a person in this image?</p>
                    </div>
                </div>","1","main_experiment_trial","6","household_objects_semantic","semantic_sequence_notimeline","chronological","","","","","","",""
"","","","","","html-keyboard-response","176","542743","0.0-176.0","D144BD2F3DF94E78AF4EBF1AD60F65C6","019d6bab-4d90-769f-acef-b824bd67c964","019d6b6d-d11f-7233-9b95-7a424dbf389f","","null","
                <div class=""stimulus-container"">
                    <img src=""semantic_sequence_notimeline/household_objects_semantic/household_objects_semantic_7.png"" class=""exp-image"">
                    <div class=""question-area""></div> 
                </div>","null","","","","","","","","","","","",""
"","","","","","html-button-response","177","543079","0.0-177.0","D144BD2F3DF94E78AF4EBF1AD60F65C6","019d6bab-4d90-769f-acef-b824bd67c964","019d6b6d-d11f-7233-9b95-7a424dbf389f","","335","
                <div class=""stimulus-container"">
