"success","timeout","failed_images","failed_audio","failed_video","trial_type","trial_index","time_elapsed","internal_node_id","subject_id","study_id","session_id","view_history","rt","stimulus","response","task","image_index","folder","sequence_type","presentation_order","valuable_image_index","reward_type","distance_from_x","target_X","chosen_image_index","is_x_plus_dist","correct_choice"
"true","false","[]","[]","[]","preload","0","10472","0.0-0.0","8FDF0D47B25D4A13B4085664588D99A1","019cfc89-7217-7015-a4bf-76669ab23d2c","019cfc7b-6c7b-7b1b-afe7-acad8efc6711","","","","","","","","","","","","","","","",""
"","","","","","instructions","1","59981","0.0-1.0","8FDF0D47B25D4A13B4085664588D99A1","019cfc89-7217-7015-a4bf-76669ab23d2c","019cfc7b-6c7b-7b1b-afe7-acad8efc6711","[{""page_index"":0,""viewing_time"":49508}]","49508","","","","","","","","","","","","","",""
"","","","","","instructions","2","62551","0.0-2.0","8FDF0D47B25D4A13B4085664588D99A1","019cfc89-7217-7015-a4bf-76669ab23d2c","019cfc7b-6c7b-7b1b-afe7-acad8efc6711","[{""page_index"":0,""viewing_time"":2569}]","2569","","","","","","","","","","","","","",""
"true","","","","","fullscreen","3","65221","0.0-3.0","8FDF0D47B25D4A13B4085664588D99A1","019cfc89-7217-7015-a4bf-76669ab23d2c","019cfc7b-6c7b-7b1b-afe7-acad8efc6711","","1663","","","","","","","","","","","","","",""
"","","","","","instructions","4","67206","0.0-4.0","8FDF0D47B25D4A13B4085664588D99A1","019cfc89-7217-7015-a4bf-76669ab23d2c","019cfc7b-6c7b-7b1b-afe7-acad8efc6711","[{""page_index"":0,""viewing_time"":1983}]","1984","","","","","","","","","","","","","",""
"","","","","","instructions","5","73656","0.0-5.0","8FDF0D47B25D4A13B4085664588D99A1","019cfc89-7217-7015-a4bf-76669ab23d2c","019cfc7b-6c7b-7b1b-afe7-acad8efc6711","[{""page_index"":0,""viewing_time"":6450}]","6450","","","","","","","","","","","","","",""
"","","","","","html-keyboard-response","6","77667","0.0-6.0","8FDF0D47B25D4A13B4085664588D99A1","019cfc89-7217-7015-a4bf-76669ab23d2c","019cfc7b-6c7b-7b1b-afe7-acad8efc6711","","null","
                <div class=""stimulus-container"">
                    <img src=""images/instructions/movie_1.png"" class=""exp-image"">
                    <div class=""question-area""></div> 
                </div>","null","","","","","","","","","","","",""
"","","","","","html-button-response","7","78881","0.0-7.0","8FDF0D47B25D4A13B4085664588D99A1","019cfc89-7217-7015-a4bf-76669ab23d2c","019cfc7b-6c7b-7b1b-afe7-acad8efc6711","","1211","
                <div class=""stimulus-container"">
                    <img src=""images/instructions/movie_1.png"" class=""exp-image"">
                    <div class=""question-area"">
                        <p style=""font-size: 20px; font-weight: bold; margin: 0;"">Was there a person in this image?</p>
                    </div>
                </div>","0","example_question","1","","","","","","","","","",""
"","","","","","html-keyboard-response","8","82898","0.0-8.0","8FDF0D47B25D4A13B4085664588D99A1","019cfc89-7217-7015-a4bf-76669ab23d2c","019cfc7b-6c7b-7b1b-afe7-acad8efc6711","","null","
                <div class=""stimulus-container"">
                    <img src=""images/instructions/movie_2.png"" class=""exp-image"">
                    <div class=""question-area""></div> 
                </div>","null","","","","","","","","","","","",""
"","","","","","html-button-response","9","83821","0.0-9.0","8FDF0D47B25D4A13B4085664588D99A1","019cfc89-7217-7015-a4bf-76669ab23d2c","019cfc7b-6c7b-7b1b-afe7-acad8efc6711","","922","
                <div class=""stimulus-container"">
                    <img src=""images/instructions/movie_2.png"" class=""exp-image"">
                    <div class=""question-area"">
                        <p style=""font-size: 20px; font-weight: bold; margin: 0;"">Was there a person in this image?</p>
                    </div>
                </div>","0","example_question","2","","","","","","","","","",""
"","","","","","html-keyboard-response","10","87829","0.0-10.0","8FDF0D47B25D4A13B4085664588D99A1","019cfc89-7217-7015-a4bf-76669ab23d2c","019cfc7b-6c7b-7b1b-afe7-acad8efc6711","","null","
                <div class=""stimulus-container"">
                    <img src=""images/instructions/movie_3.png"" class=""exp-image"">
                    <div class=""question-area""></div> 
                </div>","null","","","","","","","","","","","",""
"","","","","","html-button-response","11","88651","0.0-11.0","8FDF0D47B25D4A13B4085664588D99A1","019cfc89-7217-7015-a4bf-76669ab23d2c","019cfc7b-6c7b-7b1b-afe7-acad8efc6711","","821","
                <div class=""stimulus-container"">
                    <img src=""images/instructions/movie_3.png"" class=""exp-image"">
                    <div class=""question-area"">
                        <p style=""font-size: 20px; font-weight: bold; margin: 0;"">Was there a person in this image?</p>
                    </div>
                </div>","0","example_question","3","","","","","","","","","",""
"","","","","","html-keyboard-response","12","92665","0.0-12.0","8FDF0D47B25D4A13B4085664588D99A1","019cfc89-7217-7015-a4bf-76669ab23d2c","019cfc7b-6c7b-7b1b-afe7-acad8efc6711","","null","
                <div class=""stimulus-container"">
                    <img src=""images/instructions/movie_4.png"" class=""exp-image"">
                    <div class=""question-area""></div> 
                </div>","null","","","","","","","","","","","",""
"","","","","","html-button-response","13","95677","0.0-13.0","8FDF0D47B25D4A13B4085664588D99A1","019cfc89-7217-7015-a4bf-76669ab23d2c","019cfc7b-6c7b-7b1b-afe7-acad8efc6711","","null","
                <div class=""stimulus-container"">
                    <img src=""images/instructions/movie_4.png"" class=""exp-image"">
                    <div class=""question-area"">
                        <p style=""font-size: 20px; font-weight: bold; margin: 0;"">Was there a person in this image?</p>
                    </div>
                </div>","null","example_question","4","","","","","","","","","",""
"","","","","","instructions","14","101908","0.0-14.0","8FDF0D47B25D4A13B4085664588D99A1","019cfc89-7217-7015-a4bf-76669ab23d2c","019cfc7b-6c7b-7b1b-afe7-acad8efc6711","[{""page_index"":0,""viewing_time"":6230}]","6230","","","","","","","","","","","","","",""
"","","","","","instructions","15","103070","0.0-15.0","8FDF0D47B25D4A13B4085664588D99A1","019cfc89-7217-7015-a4bf-76669ab23d2c","019cfc7b-6c7b-7b1b-afe7-acad8efc6711","[{""page_index"":0,""viewing_time"":1162}]","1162","","","","","","","","","","","","","",""
"","","","","","html-keyboard-response","16","108078","0.0-16.0","8FDF0D47B25D4A13B4085664588D99A1","019cfc89-7217-7015-a4bf-76669ab23d2c","019cfc7b-6c7b-7b1b-afe7-acad8efc6711","","null","<div style=""background-color: white; width: 100vw; height: 100vh;""></div>","null","","","","","","","","","","","",""
"","","","","","html-keyboard-response","17","113082","0.0-17.0","8FDF0D47B25D4A13B4085664588D99A1","019cfc89-7217-7015-a4bf-76669ab23d2c","019cfc7b-6c7b-7b1b-afe7-acad8efc6711","","null","
                <div class=""stimulus-container"">
                    <img src=""images/causal_sequence/package_causal/package_causal_1.png"" class=""exp-image"">
                    <div class=""question-area""></div> 
                </div>","null","","","","","","","","","","","",""
"","","","","","html-button-response","18","113619","0.0-18.0","8FDF0D47B25D4A13B4085664588D99A1","019cfc89-7217-7015-a4bf-76669ab23d2c","019cfc7b-6c7b-7b1b-afe7-acad8efc6711","","535","
                <div class=""stimulus-container"">
                    <img src=""images/causal_sequence/package_causal/package_causal_1.png"" class=""exp-image"">
                    <div class=""question-area"">
                        <p style=""font-size: 20px; font-weight: bold; margin: 0;"">Is there a person in this image?</p>
                    </div>
                </div>","0","main_experiment_trial","1","package_causal","causal_sequence","chronological","","","","","","",""
"","","","","","html-keyboard-response","19","118622","0.0-19.0","8FDF0D47B25D4A13B4085664588D99A1","019cfc89-7217-7015-a4bf-76669ab23d2c","019cfc7b-6c7b-7b1b-afe7-acad8efc6711","","null","
                <div class=""stimulus-container"">
                    <img src=""images/causal_sequence/package_causal/package_causal_2.png"" class=""exp-image"">
                    <div class=""question-area""></div> 
                </div>","null","","","","","","","","","","","",""
"","","","","","html-button-response","20","119817","0.0-20.0","8FDF0D47B25D4A13B4085664588D99A1","019cfc89-7217-7015-a4bf-76669ab23d2c","019cfc7b-6c7b-7b1b-afe7-acad8efc6711","","1194","
                <div class=""stimulus-container"">
                    <img src=""images/causal_sequence/package_causal/package_causal_2.png"" class=""exp-image"">
                    <div class=""question-area"">
                        <p style=""font-size: 20px; font-weight: bold; margin: 0;"">Is there a person in this image?</p>
                    </div>
                </div>","0","main_experiment_trial","2","package_causal","causal_sequence","chronological","","","","","","",""
"","","","","","html-keyboard-response","21","124826","0.0-21.0","8FDF0D47B25D4A13B4085664588D99A1","019cfc89-7217-7015-a4bf-76669ab23d2c","019cfc7b-6c7b-7b1b-afe7-acad8efc6711","","null","
                <div class=""stimulus-container"">
                    <img src=""images/causal_sequence/package_causal/package_causal_3.png"" class=""exp-image"">
                    <div class=""question-area""></div> 
                </div>","null","","","","","","","","","","","",""
"","","","","","html-button-response","22","125326","0.0-22.0","8FDF0D47B25D4A13B4085664588D99A1","019cfc89-7217-7015-a4bf-76669ab23d2c","019cfc7b-6c7b-7b1b-afe7-acad8efc6711","","498","
                <div class=""stimulus-container"">
                    <img src=""images/causal_sequence/package_causal/package_causal_3.png"" class=""exp-image"">
                    <div class=""question-area"">
                        <p style=""font-size: 20px; font-weight: bold; margin: 0;"">Is there a person in this image?</p>
                    </div>
                </div>","0","main_experiment_trial","3","package_causal","causal_sequence","chronological","","","","","","",""
"","","","","","html-keyboard-response","23","130330","0.0-23.0","8FDF0D47B25D4A13B4085664588D99A1","019cfc89-7217-7015-a4bf-76669ab23d2c","019cfc7b-6c7b-7b1b-afe7-acad8efc6711","","null","
                <div class=""stimulus-container"">
                    <img src=""images/causal_sequence/package_causal/package_causal_4.png"" class=""exp-image"">
                    <div class=""question-area""></div> 
                </div>","null","","","","","","","","","","","",""
"","","","","","html-button-response","24","130994","0.0-24.0","8FDF0D47B25D4A13B4085664588D99A1","019cfc89-7217-7015-a4bf-76669ab23d2c","019cfc7b-6c7b-7b1b-afe7-acad8efc6711","","662","
                <div class=""stimulus-container"">
                    <img src=""images/causal_sequence/package_causal/package_causal_4.png"" class=""exp-image"">
                    <div class=""question-area"">
                        <p style=""font-size: 20px; font-weight: bold; margin: 0;"">Is there a person in this image?</p>
                    </div>
                </div>","1","main_experiment_trial","4","package_causal","causal_sequence","chronological","","","","","","",""
"","","","","","html-keyboard-response","25","135997","0.0-25.0","8FDF0D47B25D4A13B4085664588D99A1","019cfc89-7217-7015-a4bf-76669ab23d2c","019cfc7b-6c7b-7b1b-afe7-acad8efc6711","","null","
                <div class=""stimulus-container"">
                    <img src=""images/causal_sequence/package_causal/package_causal_5.png"" class=""exp-image"">
                    <div class=""question-area""></div> 
                </div>","null","","","","","","","","","","","",""
"","","","","","html-button-response","26","136453","0.0-26.0","8FDF0D47B25D4A13B4085664588D99A1","019cfc89-7217-7015-a4bf-76669ab23d2c","019cfc7b-6c7b-7b1b-afe7-acad8efc6711","","455","
                <div class=""stimulus-container"">
                    <img src=""images/causal_sequence/package_causal/package_causal_5.png"" class=""exp-image"">
                    <div class=""question-area"">
                        <p style=""font-size: 20px; font-weight: bold; margin: 0;"">Is there a person in this image?</p>
                    </div>
                </div>","0","main_experiment_trial","5","package_causal","causal_sequence","chronological","","","","","","",""
"","","","","","html-keyboard-response","27","141459","0.0-27.0","8FDF0D47B25D4A13B4085664588D99A1","019cfc89-7217-7015-a4bf-76669ab23d2c","019cfc7b-6c7b-7b1b-afe7-acad8efc6711","","null","
                <div class=""stimulus-container"">
                    <img src=""images/causal_sequence/package_causal/package_causal_6.png"" class=""exp-image"">
                    <div class=""question-area""></div> 
                </div>","null","","","","","","","","","","","",""
"","","","","","html-button-response","28","141780","0.0-28.0","8FDF0D47B25D4A13B4085664588D99A1","019cfc89-7217-7015-a4bf-76669ab23d2c","019cfc7b-6c7b-7b1b-afe7-acad8efc6711","","320","
                <div class=""stimulus-container"">
                    <img src=""images/causal_sequence/package_causal/package_causal_6.png"" class=""exp-image"">
                    <div class=""question-area"">
                        <p style=""font-size: 20px; font-weight: bold; margin: 0;"">Is there a person in this image?</p>
                    </div>
                </div>","0","main_experiment_trial","6","package_causal","causal_sequence","chronological","","","","","","",""
"","","","","","html-keyboard-response","29","146785","0.0-29.0","8FDF0D47B25D4A13B4085664588D99A1","019cfc89-7217-7015-a4bf-76669ab23d2c","019cfc7b-6c7b-7b1b-afe7-acad8efc6711","","null","
                <div class=""stimulus-container"">
                    <img src=""images/causal_sequence/package_causal/package_causal_7.png"" class=""exp-image"">
                    <div class=""question-area""></div> 
                </div>","null","","","","","","","","","","","",""
"","","","","","html-button-response","30","147224","0.0-30.0","8FDF0D47B25D4A13B4085664588D99A1","019cfc89-7217-7015-a4bf-76669ab23d2c","019cfc7b-6c7b-7b1b-afe7-acad8efc6711","","438","
                <div class=""stimulus-container"">
                    <img src=""images/causal_sequence/package_causal/package_causal_7.png"" class=""exp-image"">
                    <div class=""question-area"">
                        <p style=""font-size: 20px; font-weight: bold; margin: 0;"">Is there a person in this image?</p>
                    </div>
                </div>","0","main_experiment_trial","7","package_causal","causal_sequence","chronological","","","","","","",""
"","","","","","html-keyboard-response","31","152232","0.0-31.0","8FDF0D47B25D4A13B4085664588D99A1","019cfc89-7217-7015-a4bf-76669ab23d2c","019cfc7b-6c7b-7b1b-afe7-acad8efc6711","","null","
                <div class=""stimulus-container"">
                    <img src=""images/causal_sequence/package_causal/package_causal_8.png"" class=""exp-image"">
                    <div class=""question-area""></div> 
                </div>","null","","","","","","","","","","","",""
"","","","","","html-button-response","32","152315","0.0-32.0","8FDF0D47B25D4A13B4085664588D99A1","019cfc89-7217-7015-a4bf-76669ab23d2c","019cfc7b-6c7b-7b1b-afe7-acad8efc6711","","82","
                <div class=""stimulus-container"">
                    <img src=""images/causal_sequence/package_causal/package_causal_8.png"" class=""exp-image"">
                    <div class=""question-area"">
                        <p style=""font-size: 20px; font-weight: bold; margin: 0;"">Is there a person in this image?</p>
                    </div>
                </div>","0","main_experiment_trial","8","package_causal","causal_sequence","chronological","","","","","","",""
"","","","","","html-keyboard-response","33","157324","0.0-33.0","8FDF0D47B25D4A13B4085664588D99A1","019cfc89-7217-7015-a4bf-76669ab23d2c","019cfc7b-6c7b-7b1b-afe7-acad8efc6711","","null","
                <div class=""stimulus-container"">
                    <img src=""images/causal_sequence/package_causal/package_causal_9.png"" class=""exp-image"">
                    <div class=""question-area""></div> 
                </div>","null","","","","","","","","","","","",""
"","","","","","html-button-response","34","157676","0.0-34.0","8FDF0D47B25D4A13B4085664588D99A1","019cfc89-7217-7015-a4bf-76669ab23d2c","019cfc7b-6c7b-7b1b-afe7-acad8efc6711","","351","
                <div class=""stimulus-container"">
                    <img src=""images/causal_sequence/package_causal/package_causal_9.png"" class=""exp-image"">
                    <div class=""question-area"">
                        <p style=""font-size: 20px; font-weight: bold; margin: 0;"">Is there a person in this image?</p>
                    </div>
                </div>","0","main_experiment_trial","9","package_causal","causal_sequence","chronological","","","","","","",""
"","","","","","html-keyboard-response","35","162679","0.0-35.0","8FDF0D47B25D4A13B4085664588D99A1","019cfc89-7217-7015-a4bf-76669ab23d2c","019cfc7b-6c7b-7b1b-afe7-acad8efc6711","","null","
                <div class=""stimulus-container"">
                    <img src=""images/causal_sequence/package_causal/package_causal_ten.png"" class=""exp-image"">
                    <div class=""question-area""></div> 
                </div>","null","","","","","","","","","","","",""
"","","","","","html-button-response","36","162817","0.0-36.0","8FDF0D47B25D4A13B4085664588D99A1","019cfc89-7217-7015-a4bf-76669ab23d2c","019cfc7b-6c7b-7b1b-afe7-acad8efc6711","","138","
                <div class=""stimulus-container"">
                    <img src=""images/causal_sequence/package_causal/package_causal_ten.png"" class=""exp-image"">
                    <div class=""question-area"">
                        <p style=""font-size: 20px; font-weight: bold; margin: 0;"">Is there a person in this image?</p>
                    </div>
                </div>","0","main_experiment_trial","ten","package_causal","causal_sequence","chronological","","","","","","",""
"","","","","","html-keyboard-response","37","167832","0.0-37.0","8FDF0D47B25D4A13B4085664588D99A1","019cfc89-7217-7015-a4bf-76669ab23d2c","019cfc7b-6c7b-7b1b-afe7-acad8efc6711","","null","<div style=""background-color: white; width: 100vw; height: 100vh;""></div>","null","","","","","","","","","","","",""
"","","","","","html-keyboard-response","38","172843","0.0-38.0","8FDF0D47B25D4A13B4085664588D99A1","019cfc89-7217-7015-a4bf-76669ab23d2c","019cfc7b-6c7b-7b1b-afe7-acad8efc6711","","null","
                <div class=""stimulus-container"">
                    <img src=""images/causal_sequence/the_performance_causal/the_performance_causal_1.png"" class=""exp-image"">
                    <div class=""question-area""></div> 
                </div>","null","","","","","","","","","","","",""
"","","","","","html-button-response","39","175851","0.0-39.0","8FDF0D47B25D4A13B4085664588D99A1","019cfc89-7217-7015-a4bf-76669ab23d2c","019cfc7b-6c7b-7b1b-afe7-acad8efc6711","","null","
                <div class=""stimulus-container"">
                    <img src=""images/causal_sequence/the_performance_causal/the_performance_causal_1.png"" class=""exp-image"">
                    <div class=""question-area"">
                        <p style=""font-size: 20px; font-weight: bold; margin: 0;"">Is there a person in this image?</p>
                    </div>
                </div>","null","main_experiment_trial","1","the_performance_causal","causal_sequence","chronological","","","","","","",""
"","","","","","html-keyboard-response","40","180858","0.0-40.0","8FDF0D47B25D4A13B4085664588D99A1","019cfc89-7217-7015-a4bf-76669ab23d2c","019cfc7b-6c7b-7b1b-afe7-acad8efc6711","","null","
                <div class=""stimulus-container"">
                    <img src=""images/causal_sequence/the_performance_causal/the_performance_causal_2.png"" class=""exp-image"">
                    <div class=""question-area""></div> 
                </div>","null","","","","","","","","","","","",""
"","","","","","html-button-response","41","182435","0.0-41.0","8FDF0D47B25D4A13B4085664588D99A1","019cfc89-7217-7015-a4bf-76669ab23d2c","019cfc7b-6c7b-7b1b-afe7-acad8efc6711","","1576","
                <div class=""stimulus-container"">
                    <img src=""images/causal_sequence/the_performance_causal/the_performance_causal_2.png"" class=""exp-image"">
                    <div class=""question-area"">
                        <p style=""font-size: 20px; font-weight: bold; margin: 0;"">Is there a person in this image?</p>
                    </div>
                </div>","0","main_experiment_trial","2","the_performance_causal","causal_sequence","chronological","","","","","","",""
"","","","","","html-keyboard-response","42","187452","0.0-42.0","8FDF0D47B25D4A13B4085664588D99A1","019cfc89-7217-7015-a4bf-76669ab23d2c","019cfc7b-6c7b-7b1b-afe7-acad8efc6711","","null","
                <div class=""stimulus-container"">
                    <img src=""images/causal_sequence/the_performance_causal/the_performance_causal_3.png"" class=""exp-image"">
                    <div class=""question-area""></div> 
                </div>","null","","","","","","","","","","","",""
"","","","","","html-button-response","43","188614","0.0-43.0","8FDF0D47B25D4A13B4085664588D99A1","019cfc89-7217-7015-a4bf-76669ab23d2c","019cfc7b-6c7b-7b1b-afe7-acad8efc6711","","1161","
                <div class=""stimulus-container"">
                    <img src=""images/causal_sequence/the_performance_causal/the_performance_causal_3.png"" class=""exp-image"">
                    <div class=""question-area"">
                        <p style=""font-size: 20px; font-weight: bold; margin: 0;"">Is there a person in this image?</p>
                    </div>
                </div>","0","main_experiment_trial","3","the_performance_causal","causal_sequence","chronological","","","","","","",""
"","","","","","html-keyboard-response","44","193626","0.0-44.0","8FDF0D47B25D4A13B4085664588D99A1","019cfc89-7217-7015-a4bf-76669ab23d2c","019cfc7b-6c7b-7b1b-afe7-acad8efc6711","","null","
                <div class=""stimulus-container"">
                    <img src=""images/causal_sequence/the_performance_causal/the_performance_causal_4.png"" class=""exp-image"">
                    <div class=""question-area""></div> 
                </div>","null","","","","","","","","","","","",""
"","","","","","html-button-response","45","193828","0.0-45.0","8FDF0D47B25D4A13B4085664588D99A1","019cfc89-7217-7015-a4bf-76669ab23d2c","019cfc7b-6c7b-7b1b-afe7-acad8efc6711","","201","
                <div class=""stimulus-container"">
                    <img src=""images/causal_sequence/the_performance_causal/the_performance_causal_4.png"" class=""exp-image"">
                    <div class=""question-area"">
                        <p style=""font-size: 20px; font-weight: bold; margin: 0;"">Is there a person in this image?</p>
                    </div>
                </div>","0","main_experiment_trial","4","the_performance_causal","causal_sequence","chronological","","","","","","",""
"","","","","","html-keyboard-response","46","198839","0.0-46.0","8FDF0D47B25D4A13B4085664588D99A1","019cfc89-7217-7015-a4bf-76669ab23d2c","019cfc7b-6c7b-7b1b-afe7-acad8efc6711","","null","
                <div class=""stimulus-container"">
                    <img src=""images/causal_sequence/the_performance_causal/the_performance_causal_5.png"" class=""exp-image"">
                    <div class=""question-area""></div> 
                </div>","null","","","","","","","","","","","",""
"","","","","","html-button-response","47","199205","0.0-47.0","8FDF0D47B25D4A13B4085664588D99A1","019cfc89-7217-7015-a4bf-76669ab23d2c","019cfc7b-6c7b-7b1b-afe7-acad8efc6711","","364","
                <div class=""stimulus-container"">
                    <img src=""images/causal_sequence/the_performance_causal/the_performance_causal_5.png"" class=""exp-image"">
                    <div class=""question-area"">
                        <p style=""font-size: 20px; font-weight: bold; margin: 0;"">Is there a person in this image?</p>
                    </div>
                </div>","0","main_experiment_trial","5","the_performance_causal","causal_sequence","chronological","","","","","","",""
"","","","","","html-keyboard-response","48","204208","0.0-48.0","8FDF0D47B25D4A13B4085664588D99A1","019cfc89-7217-7015-a4bf-76669ab23d2c","019cfc7b-6c7b-7b1b-afe7-acad8efc6711","","null","
                <div class=""stimulus-container"">
                    <img src=""images/causal_sequence/the_performance_causal/the_performance_causal_6.png"" class=""exp-image"">
                    <div class=""question-area""></div> 
                </div>","null","","","","","","","","","","","",""
"","","","","","html-button-response","49","204468","0.0-49.0","8FDF0D47B25D4A13B4085664588D99A1","019cfc89-7217-7015-a4bf-76669ab23d2c","019cfc7b-6c7b-7b1b-afe7-acad8efc6711","","258","
                <div class=""stimulus-container"">
                    <img src=""images/causal_sequence/the_performance_causal/the_performance_causal_6.png"" class=""exp-image"">
                    <div class=""question-area"">
                        <p style=""font-size: 20px; font-weight: bold; margin: 0;"">Is there a person in this image?</p>
                    </div>
                </div>","0","main_experiment_trial","6","the_performance_causal","causal_sequence","chronological","","","","","","",""
"","","","","","html-keyboard-response","50","209482","0.0-50.0","8FDF0D47B25D4A13B4085664588D99A1","019cfc89-7217-7015-a4bf-76669ab23d2c","019cfc7b-6c7b-7b1b-afe7-acad8efc6711","","null","
                <div class=""stimulus-container"">
                    <img src=""images/causal_sequence/the_performance_causal/the_performance_causal_7.png"" class=""exp-image"">
                    <div class=""question-area""></div> 
                </div>","null","","","","","","","","","","","",""
"","","","","","html-button-response","51","209653","0.0-51.0","8FDF0D47B25D4A13B4085664588D99A1","019cfc89-7217-7015-a4bf-76669ab23d2c","019cfc7b-6c7b-7b1b-afe7-acad8efc6711","","170","
                <div class=""stimulus-container"">
                    <img src=""images/causal_sequence/the_performance_causal/the_performance_causal_7.png"" class=""exp-image"">
                    <div class=""question-area"">
                        <p style=""font-size: 20px; font-weight: bold; margin: 0;"">Is there a person in this image?</p>
                    </div>
                </div>","0","main_experiment_trial","7","the_performance_causal","causal_sequence","chronological","","","","","","",""
"","","","","","html-keyboard-response","52","214660","0.0-52.0","8FDF0D47B25D4A13B4085664588D99A1","019cfc89-7217-7015-a4bf-76669ab23d2c","019cfc7b-6c7b-7b1b-afe7-acad8efc6711","","null","
                <div class=""stimulus-container"">
                    <img src=""images/causal_sequence/the_performance_causal/the_performance_causal_8.png"" class=""exp-image"">
                    <div class=""question-area""></div> 
                </div>","null","","","","","","","","","","","",""
"","","","","","html-button-response","53","214762","0.0-53.0","8FDF0D47B25D4A13B4085664588D99A1","019cfc89-7217-7015-a4bf-76669ab23d2c","019cfc7b-6c7b-7b1b-afe7-acad8efc6711","","100","
                <div class=""stimulus-container"">
                    <img src=""images/causal_sequence/the_performance_causal/the_performance_causal_8.png"" class=""exp-image"">
                    <div class=""question-area"">
                        <p style=""font-size: 20px; font-weight: bold; margin: 0;"">Is there a person in this image?</p>
                    </div>
                </div>","0","main_experiment_trial","8","the_performance_causal","causal_sequence","chronological","","","","","","",""
"","","","","","html-keyboard-response","54","219764","0.0-54.0","8FDF0D47B25D4A13B4085664588D99A1","019cfc89-7217-7015-a4bf-76669ab23d2c","019cfc7b-6c7b-7b1b-afe7-acad8efc6711","","null","
                <div class=""stimulus-container"">
                    <img src=""images/causal_sequence/the_performance_causal/the_performance_causal_9.png"" class=""exp-image"">
                    <div class=""question-area""></div> 
                </div>","null","","","","","","","","","","","",""
"","","","","","html-button-response","55","220194","0.0-55.0","8FDF0D47B25D4A13B4085664588D99A1","019cfc89-7217-7015-a4bf-76669ab23d2c","019cfc7b-6c7b-7b1b-afe7-acad8efc6711","","429","
                <div class=""stimulus-container"">
                    <img src=""images/causal_sequence/the_performance_causal/the_performance_causal_9.png"" class=""exp-image"">
                    <div class=""question-area"">
                        <p style=""font-size: 20px; font-weight: bold; margin: 0;"">Is there a person in this image?</p>
                    </div>
                </div>","0","main_experiment_trial","9","the_performance_causal","causal_sequence","chronological","","","","","","",""
"","","","","","html-keyboard-response","56","225202","0.0-56.0","8FDF0D47B25D4A13B4085664588D99A1","019cfc89-7217-7015-a4bf-76669ab23d2c","019cfc7b-6c7b-7b1b-afe7-acad8efc6711","","null","
                <div class=""stimulus-container"">
                    <img src=""images/causal_sequence/the_performance_causal/the_performance_causal_ten.png"" class=""exp-image"">
                    <div class=""question-area""></div> 
                </div>","null","","","","","","","","","","","",""
"","","","","","html-button-response","57","225446","0.0-57.0","8FDF0D47B25D4A13B4085664588D99A1","019cfc89-7217-7015-a4bf-76669ab23d2c","019cfc7b-6c7b-7b1b-afe7-acad8efc6711","","243","
                <div class=""stimulus-container"">
                    <img src=""images/causal_sequence/the_performance_causal/the_performance_causal_ten.png"" class=""exp-image"">
                    <div class=""question-area"">
                        <p style=""font-size: 20px; font-weight: bold; margin: 0;"">Is there a person in this image?</p>
                    </div>
                </div>","0","main_experiment_trial","ten","the_performance_causal","causal_sequence","chronological","","","","","","",""
"","","","","","html-keyboard-response","58","230451","0.0-58.0","8FDF0D47B25D4A13B4085664588D99A1","019cfc89-7217-7015-a4bf-76669ab23d2c","019cfc7b-6c7b-7b1b-afe7-acad8efc6711","","null","<div style=""background-color: white; width: 100vw; height: 100vh;""></div>","null","","","","","","","","","","","",""
"","","","","","html-keyboard-response","59","235466","0.0-59.0","8FDF0D47B25D4A13B4085664588D99A1","019cfc89-7217-7015-a4bf-76669ab23d2c","019cfc7b-6c7b-7b1b-afe7-acad8efc6711","","null","
                <div class=""stimulus-container"">
                    <img src=""images/causal_sequence/dog_causal/dog_causal_1.png"" class=""exp-image"">
                    <div class=""question-area""></div> 
                </div>","null","","","","","","","","","","","",""
"","","","","","html-button-response","60","235971","0.0-60.0","8FDF0D47B25D4A13B4085664588D99A1","019cfc89-7217-7015-a4bf-76669ab23d2c","019cfc7b-6c7b-7b1b-afe7-acad8efc6711","","503","
                <div class=""stimulus-container"">
                    <img src=""images/causal_sequence/dog_causal/dog_causal_1.png"" class=""exp-image"">
                    <div class=""question-area"">
                        <p style=""font-size: 20px; font-weight: bold; margin: 0;"">Is there a person in this image?</p>
                    </div>
                </div>","0","main_experiment_trial","1","dog_causal","causal_sequence","chronological","","","","","","",""
"","","","","","html-keyboard-response","61","240982","0.0-61.0","8FDF0D47B25D4A13B4085664588D99A1","019cfc89-7217-7015-a4bf-76669ab23d2c","019cfc7b-6c7b-7b1b-afe7-acad8efc6711","","null","
                <div class=""stimulus-container"">
                    <img src=""images/causal_sequence/dog_causal/dog_causal_2.png"" class=""exp-image"">
                    <div class=""question-area""></div> 
                </div>","null","","","","","","","","","","","",""
"","","","","","html-button-response","62","241403","0.0-62.0","8FDF0D47B25D4A13B4085664588D99A1","019cfc89-7217-7015-a4bf-76669ab23d2c","019cfc7b-6c7b-7b1b-afe7-acad8efc6711","","420","
                <div class=""stimulus-container"">
                    <img src=""images/causal_sequence/dog_causal/dog_causal_2.png"" class=""exp-image"">
                    <div class=""question-area"">
                        <p style=""font-size: 20px; font-weight: bold; margin: 0;"">Is there a person in this image?</p>
                    </div>
                </div>","0","main_experiment_trial","2","dog_causal","causal_sequence","chronological","","","","","","",""
"","","","","","html-keyboard-response","63","246406","0.0-63.0","8FDF0D47B25D4A13B4085664588D99A1","019cfc89-7217-7015-a4bf-76669ab23d2c","019cfc7b-6c7b-7b1b-afe7-acad8efc6711","","null","
                <div class=""stimulus-container"">
                    <img src=""images/causal_sequence/dog_causal/dog_causal_3.png"" class=""exp-image"">
                    <div class=""question-area""></div> 
                </div>","null","","","","","","","","","","","",""
"","","","","","html-button-response","64","246776","0.0-64.0","8FDF0D47B25D4A13B4085664588D99A1","019cfc89-7217-7015-a4bf-76669ab23d2c","019cfc7b-6c7b-7b1b-afe7-acad8efc6711","","367","
                <div class=""stimulus-container"">
                    <img src=""images/causal_sequence/dog_causal/dog_causal_3.png"" class=""exp-image"">
                    <div class=""question-area"">
                        <p style=""font-size: 20px; font-weight: bold; margin: 0;"">Is there a person in this image?</p>
                    </div>
                </div>","0","main_experiment_trial","3","dog_causal","causal_sequence","chronological","","","","","","",""
"","","","","","html-keyboard-response","65","251777","0.0-65.0","8FDF0D47B25D4A13B4085664588D99A1","019cfc89-7217-7015-a4bf-76669ab23d2c","019cfc7b-6c7b-7b1b-afe7-acad8efc6711","","null","
                <div class=""stimulus-container"">
                    <img src=""images/causal_sequence/dog_causal/dog_causal_4.png"" class=""exp-image"">
                    <div class=""question-area""></div> 
                </div>","null","","","","","","","","","","","",""
"","","","","","html-button-response","66","252368","0.0-66.0","8FDF0D47B25D4A13B4085664588D99A1","019cfc89-7217-7015-a4bf-76669ab23d2c","019cfc7b-6c7b-7b1b-afe7-acad8efc6711","","589","
                <div class=""stimulus-container"">
                    <img src=""images/causal_sequence/dog_causal/dog_causal_4.png"" class=""exp-image"">
                    <div class=""question-area"">
                        <p style=""font-size: 20px; font-weight: bold; margin: 0;"">Is there a person in this image?</p>
                    </div>
                </div>","0","main_experiment_trial","4","dog_causal","causal_sequence","chronological","","","","","","",""
"","","","","","html-keyboard-response","67","257382","0.0-67.0","8FDF0D47B25D4A13B4085664588D99A1","019cfc89-7217-7015-a4bf-76669ab23d2c","019cfc7b-6c7b-7b1b-afe7-acad8efc6711","","null","
                <div class=""stimulus-container"">
                    <img src=""images/causal_sequence/dog_causal/dog_causal_5.png"" class=""exp-image"">
                    <div class=""question-area""></div> 
                </div>","null","","","","","","","","","","","",""
"","","","","","html-button-response","68","257511","0.0-68.0","8FDF0D47B25D4A13B4085664588D99A1","019cfc89-7217-7015-a4bf-76669ab23d2c","019cfc7b-6c7b-7b1b-afe7-acad8efc6711","","128","
                <div class=""stimulus-container"">
                    <img src=""images/causal_sequence/dog_causal/dog_causal_5.png"" class=""exp-image"">
                    <div class=""question-area"">
                        <p style=""font-size: 20px; font-weight: bold; margin: 0;"">Is there a person in this image?</p>
                    </div>
                </div>","0","main_experiment_trial","5","dog_causal","causal_sequence","chronological","","","","","","",""
"","","","","","html-keyboard-response","69","262517","0.0-69.0","8FDF0D47B25D4A13B4085664588D99A1","019cfc89-7217-7015-a4bf-76669ab23d2c","019cfc7b-6c7b-7b1b-afe7-acad8efc6711","","null","
                <div class=""stimulus-container"">
                    <img src=""images/causal_sequence/dog_causal/dog_causal_6.png"" class=""exp-image"">
                    <div class=""question-area""></div> 
                </div>","null","","","","","","","","","","","",""
"","","","","","html-button-response","70","262681","0.0-70.0","8FDF0D47B25D4A13B4085664588D99A1","019cfc89-7217-7015-a4bf-76669ab23d2c","019cfc7b-6c7b-7b1b-afe7-acad8efc6711","","162","
                <div class=""stimulus-container"">
                    <img src=""images/causal_sequence/dog_causal/dog_causal_6.png"" class=""exp-image"">
                    <div class=""question-area"">
                        <p style=""font-size: 20px; font-weight: bold; margin: 0;"">Is there a person in this image?</p>
                    </div>
                </div>","0","main_experiment_trial","6","dog_causal","causal_sequence","chronological","","","","","","",""
"","","","","","html-keyboard-response","71","267689","0.0-71.0","8FDF0D47B25D4A13B4085664588D99A1","019cfc89-7217-7015-a4bf-76669ab23d2c","019cfc7b-6c7b-7b1b-afe7-acad8efc6711","","null","
                <div class=""stimulus-container"">
                    <img src=""images/causal_sequence/dog_causal/dog_causal_7.png"" class=""exp-image"">
                    <div class=""question-area""></div> 
                </div>","null","","","","","","","","","","","",""
"","","","","","html-button-response","72","267898","0.0-72.0","8FDF0D47B25D4A13B4085664588D99A1","019cfc89-7217-7015-a4bf-76669ab23d2c","019cfc7b-6c7b-7b1b-afe7-acad8efc6711","","208","
                <div class=""stimulus-container"">
                    <img src=""images/causal_sequence/dog_causal/dog_causal_7.png"" class=""exp-image"">
                    <div class=""question-area"">
                        <p style=""font-size: 20px; font-weight: bold; margin: 0;"">Is there a person in this image?</p>
                    </div>
                </div>","0","main_experiment_trial","7","dog_causal","causal_sequence","chronological","","","","","","",""
"","","","","","html-keyboard-response","73","272904","0.0-73.0","8FDF0D47B25D4A13B4085664588D99A1","019cfc89-7217-7015-a4bf-76669ab23d2c","019cfc7b-6c7b-7b1b-afe7-acad8efc6711","","null","
                <div class=""stimulus-container"">
                    <img src=""images/causal_sequence/dog_causal/dog_causal_8.png"" class=""exp-image"">
                    <div class=""question-area""></div> 
                </div>","null","","","","","","","","","","","",""
"","","","","","html-button-response","74","273597","0.0-74.0","8FDF0D47B25D4A13B4085664588D99A1","019cfc89-7217-7015-a4bf-76669ab23d2c","019cfc7b-6c7b-7b1b-afe7-acad8efc6711","","691","
                <div class=""stimulus-container"">
                    <img src=""images/causal_sequence/dog_causal/dog_causal_8.png"" class=""exp-image"">
                    <div class=""question-area"">
                        <p style=""font-size: 20px; font-weight: bold; margin: 0;"">Is there a person in this image?</p>
                    </div>
                </div>","0","main_experiment_trial","8","dog_causal","causal_sequence","chronological","","","","","","",""
"","","","","","html-keyboard-response","75","278602","0.0-75.0","8FDF0D47B25D4A13B4085664588D99A1","019cfc89-7217-7015-a4bf-76669ab23d2c","019cfc7b-6c7b-7b1b-afe7-acad8efc6711","","null","
                <div class=""stimulus-container"">
                    <img src=""images/causal_sequence/dog_causal/dog_causal_9.png"" class=""exp-image"">
                    <div class=""question-area""></div> 
                </div>","null","","","","","","","","","","","",""
"","","","","","html-button-response","76","278937","0.0-76.0","8FDF0D47B25D4A13B4085664588D99A1","019cfc89-7217-7015-a4bf-76669ab23d2c","019cfc7b-6c7b-7b1b-afe7-acad8efc6711","","334","
                <div class=""stimulus-container"">
                    <img src=""images/causal_sequence/dog_causal/dog_causal_9.png"" class=""exp-image"">
                    <div class=""question-area"">
                        <p style=""font-size: 20px; font-weight: bold; margin: 0;"">Is there a person in this image?</p>
                    </div>
                </div>","0","main_experiment_trial","9","dog_causal","causal_sequence","chronological","","","","","","",""
"","","","","","html-keyboard-response","77","283952","0.0-77.0","8FDF0D47B25D4A13B4085664588D99A1","019cfc89-7217-7015-a4bf-76669ab23d2c","019cfc7b-6c7b-7b1b-afe7-acad8efc6711","","null","
                <div class=""stimulus-container"">
                    <img src=""images/causal_sequence/dog_causal/dog_causal_ten.png"" class=""exp-image"">
                    <div class=""question-area""></div> 
                </div>","null","","","","","","","","","","","",""
"","","","","","html-button-response","78","286962","0.0-78.0","8FDF0D47B25D4A13B4085664588D99A1","019cfc89-7217-7015-a4bf-76669ab23d2c","019cfc7b-6c7b-7b1b-afe7-acad8efc6711","","null","
                <div class=""stimulus-container"">
                    <img src=""images/causal_sequence/dog_causal/dog_causal_ten.png"" class=""exp-image"">
                    <div class=""question-area"">
                        <p style=""font-size: 20px; font-weight: bold; margin: 0;"">Is there a person in this image?</p>
                    </div>
                </div>","null","main_experiment_trial","ten","dog_causal","causal_sequence","chronological","","","","","","",""
"","","","","","html-keyboard-response","79","291976","0.0-79.0","8FDF0D47B25D4A13B4085664588D99A1","019cfc89-7217-7015-a4bf-76669ab23d2c","019cfc7b-6c7b-7b1b-afe7-acad8efc6711","","null","<div style=""background-color: white; width: 100vw; height: 100vh;""></div>","null","","","","","","","","","","","",""
"","","","","","html-keyboard-response","80","296993","0.0-80.0","8FDF0D47B25D4A13B4085664588D99A1","019cfc89-7217-7015-a4bf-76669ab23d2c","019cfc7b-6c7b-7b1b-afe7-acad8efc6711","","null","
                <div class=""stimulus-container"">
                    <img src=""images/semantic_sequence/physical_activity_semantic/physical_activity_semantic_1.png"" class=""exp-image"">
                    <div class=""question-area""></div> 
                </div>","null","","","","","","","","","","","",""
"","","","","","html-button-response","81","297459","0.0-81.0","8FDF0D47B25D4A13B4085664588D99A1","019cfc89-7217-7015-a4bf-76669ab23d2c","019cfc7b-6c7b-7b1b-afe7-acad8efc6711","","464","
                <div class=""stimulus-container"">
                    <img src=""images/semantic_sequence/physical_activity_semantic/physical_activity_semantic_1.png"" class=""exp-image"">
                    <div class=""question-area"">
                        <p style=""font-size: 20px; font-weight: bold; margin: 0;"">Is there a person in this image?</p>
                    </div>
                </div>","0","main_experiment_trial","1","physical_activity_semantic","semantic_sequence","chronological","","","","","","",""
"","","","","","html-keyboard-response","82","302470","0.0-82.0","8FDF0D47B25D4A13B4085664588D99A1","019cfc89-7217-7015-a4bf-76669ab23d2c","019cfc7b-6c7b-7b1b-afe7-acad8efc6711","","null","
                <div class=""stimulus-container"">
                    <img src=""images/semantic_sequence/physical_activity_semantic/physical_activity_semantic_2.png"" class=""exp-image"">
                    <div class=""question-area""></div> 
                </div>","null","","","","","","","","","","","",""
"","","","","","html-button-response","83","302957","0.0-83.0","8FDF0D47B25D4A13B4085664588D99A1","019cfc89-7217-7015-a4bf-76669ab23d2c","019cfc7b-6c7b-7b1b-afe7-acad8efc6711","","486","
                <div class=""stimulus-container"">
                    <img src=""images/semantic_sequence/physical_activity_semantic/physical_activity_semantic_2.png"" class=""exp-image"">
                    <div class=""question-area"">
                        <p style=""font-size: 20px; font-weight: bold; margin: 0;"">Is there a person in this image?</p>
                    </div>
                </div>","0","main_experiment_trial","2","physical_activity_semantic","semantic_sequence","chronological","","","","","","",""
"","","","","","html-keyboard-response","84","307965","0.0-84.0","8FDF0D47B25D4A13B4085664588D99A1","019cfc89-7217-7015-a4bf-76669ab23d2c","019cfc7b-6c7b-7b1b-afe7-acad8efc6711","","null","
                <div class=""stimulus-container"">
                    <img src=""images/semantic_sequence/physical_activity_semantic/physical_activity_semantic_3.png"" class=""exp-image"">
                    <div class=""question-area""></div> 
                </div>","null","","","","","","","","","","","",""
"","","","","","html-button-response","85","308336","0.0-85.0","8FDF0D47B25D4A13B4085664588D99A1","019cfc89-7217-7015-a4bf-76669ab23d2c","019cfc7b-6c7b-7b1b-afe7-acad8efc6711","","370","
                <div class=""stimulus-container"">
                    <img src=""images/semantic_sequence/physical_activity_semantic/physical_activity_semantic_3.png"" class=""exp-image"">
                    <div class=""question-area"">
                        <p style=""font-size: 20px; font-weight: bold; margin: 0;"">Is there a person in this image?</p>
                    </div>
                </div>","0","main_experiment_trial","3","physical_activity_semantic","semantic_sequence","chronological","","","","","","",""
"","","","","","html-keyboard-response","86","313344","0.0-86.0","8FDF0D47B25D4A13B4085664588D99A1","019cfc89-7217-7015-a4bf-76669ab23d2c","019cfc7b-6c7b-7b1b-afe7-acad8efc6711","","null","
                <div class=""stimulus-container"">
                    <img src=""images/semantic_sequence/physical_activity_semantic/physical_activity_semantic_4.png"" class=""exp-image"">
                    <div class=""question-area""></div> 
                </div>","null","","","","","","","","","","","",""
"","","","","","html-button-response","87","313805","0.0-87.0","8FDF0D47B25D4A13B4085664588D99A1","019cfc89-7217-7015-a4bf-76669ab23d2c","019cfc7b-6c7b-7b1b-afe7-acad8efc6711","","459","
                <div class=""stimulus-container"">
                    <img src=""images/semantic_sequence/physical_activity_semantic/physical_activity_semantic_4.png"" class=""exp-image"">
                    <div class=""question-area"">
                        <p style=""font-size: 20px; font-weight: bold; margin: 0;"">Is there a person in this image?</p>
                    </div>
                </div>","0","main_experiment_trial","4","physical_activity_semantic","semantic_sequence","chronological","","","","","","",""
"","","","","","html-keyboard-response","88","318806","0.0-88.0","8FDF0D47B25D4A13B4085664588D99A1","019cfc89-7217-7015-a4bf-76669ab23d2c","019cfc7b-6c7b-7b1b-afe7-acad8efc6711","","null","
                <div class=""stimulus-container"">
                    <img src=""images/semantic_sequence/physical_activity_semantic/physical_activity_semantic_5.png"" class=""exp-image"">
                    <div class=""question-area""></div> 
                </div>","null","","","","","","","","","","","",""
"","","","","","html-button-response","89","319192","0.0-89.0","8FDF0D47B25D4A13B4085664588D99A1","019cfc89-7217-7015-a4bf-76669ab23d2c","019cfc7b-6c7b-7b1b-afe7-acad8efc6711","","384","
                <div class=""stimulus-container"">
                    <img src=""images/semantic_sequence/physical_activity_semantic/physical_activity_semantic_5.png"" class=""exp-image"">
                    <div class=""question-area"">
                        <p style=""font-size: 20px; font-weight: bold; margin: 0;"">Is there a person in this image?</p>
                    </div>
                </div>","0","main_experiment_trial","5","physical_activity_semantic","semantic_sequence","chronological","","","","","","",""
"","","","","","html-keyboard-response","90","324202","0.0-90.0","8FDF0D47B25D4A13B4085664588D99A1","019cfc89-7217-7015-a4bf-76669ab23d2c","019cfc7b-6c7b-7b1b-afe7-acad8efc6711","","null","
                <div class=""stimulus-container"">
                    <img src=""images/semantic_sequence/physical_activity_semantic/physical_activity_semantic_6.png"" class=""exp-image"">
                    <div class=""question-area""></div> 
                </div>","null","","","","","","","","","","","",""
"","","","","","html-button-response","91","324652","0.0-91.0","8FDF0D47B25D4A13B4085664588D99A1","019cfc89-7217-7015-a4bf-76669ab23d2c","019cfc7b-6c7b-7b1b-afe7-acad8efc6711","","450","
                <div class=""stimulus-container"">
                    <img src=""images/semantic_sequence/physical_activity_semantic/physical_activity_semantic_6.png"" class=""exp-image"">
                    <div class=""question-area"">
                        <p style=""font-size: 20px; font-weight: bold; margin: 0;"">Is there a person in this image?</p>
                    </div>
                </div>","0","main_experiment_trial","6","physical_activity_semantic","semantic_sequence","chronological","","","","","","",""
"","","","","","html-keyboard-response","92","329666","0.0-92.0","8FDF0D47B25D4A13B4085664588D99A1","019cfc89-7217-7015-a4bf-76669ab23d2c","019cfc7b-6c7b-7b1b-afe7-acad8efc6711","","null","
                <div class=""stimulus-container"">
                    <img src=""images/semantic_sequence/physical_activity_semantic/physical_activity_semantic_7.png"" class=""exp-image"">
                    <div class=""question-area""></div> 
                </div>","null","","","","","","","","","","","",""
"","","","","","html-button-response","93","330131","0.0-93.0","8FDF0D47B25D4A13B4085664588D99A1","019cfc89-7217-7015-a4bf-76669ab23d2c","019cfc7b-6c7b-7b1b-afe7-acad8efc6711","","463","
                <div class=""stimulus-container"">
                    <img src=""images/semantic_sequence/physical_activity_semantic/physical_activity_semantic_7.png"" class=""exp-image"">
                    <div class=""question-area"">
                        <p style=""font-size: 20px; font-weight: bold; margin: 0;"">Is there a person in this image?</p>
                    </div>
                </div>","0","main_experiment_trial","7","physical_activity_semantic","semantic_sequence","chronological","","","","","","",""
"","","","","","html-keyboard-response","94","335140","0.0-94.0","8FDF0D47B25D4A13B4085664588D99A1","019cfc89-7217-7015-a4bf-76669ab23d2c","019cfc7b-6c7b-7b1b-afe7-acad8efc6711","","null","
                <div class=""stimulus-container"">
                    <img src=""images/semantic_sequence/physical_activity_semantic/physical_activity_semantic_8.png"" class=""exp-image"">
                    <div class=""question-area""></div> 
                </div>","null","","","","","","","","","","","",""
"","","","","","html-button-response","95","335581","0.0-95.0","8FDF0D47B25D4A13B4085664588D99A1","019cfc89-7217-7015-a4bf-76669ab23d2c","019cfc7b-6c7b-7b1b-afe7-acad8efc6711","","439","
                <div class=""stimulus-container"">
                    <img src=""images/semantic_sequence/physical_activity_semantic/physical_activity_semantic_8.png"" class=""exp-image"">
                    <div class=""question-area"">
                        <p style=""font-size: 20px; font-weight: bold; margin: 0;"">Is there a person in this image?</p>
                    </div>
                </div>","0","main_experiment_trial","8","physical_activity_semantic","semantic_sequence","chronological","","","","","","",""
"","","","","","html-keyboard-response","96","340585","0.0-96.0","8FDF0D47B25D4A13B4085664588D99A1","019cfc89-7217-7015-a4bf-76669ab23d2c","019cfc7b-6c7b-7b1b-afe7-acad8efc6711","","null","
                <div class=""stimulus-container"">
                    <img src=""images/semantic_sequence/physical_activity_semantic/physical_activity_semantic_9.png"" class=""exp-image"">
                    <div class=""question-area""></div> 
                </div>","null","","","","","","","","","","","",""
"","","","","","html-button-response","97","341021","0.0-97.0","8FDF0D47B25D4A13B4085664588D99A1","019cfc89-7217-7015-a4bf-76669ab23d2c","019cfc7b-6c7b-7b1b-afe7-acad8efc6711","","435","
                <div class=""stimulus-container"">
                    <img src=""images/semantic_sequence/physical_activity_semantic/physical_activity_semantic_9.png"" class=""exp-image"">
                    <div class=""question-area"">
                        <p style=""font-size: 20px; font-weight: bold; margin: 0;"">Is there a person in this image?</p>
                    </div>
                </div>","0","main_experiment_trial","9","physical_activity_semantic","semantic_sequence","chronological","","","","","","",""
"","","","","","html-keyboard-response","98","346030","0.0-98.0","8FDF0D47B25D4A13B4085664588D99A1","019cfc89-7217-7015-a4bf-76669ab23d2c","019cfc7b-6c7b-7b1b-afe7-acad8efc6711","","null","
                <div class=""stimulus-container"">
                    <img src=""images/semantic_sequence/physical_activity_semantic/physical_activity_semantic_ten.png"" class=""exp-image"">
                    <div class=""question-area""></div> 
                </div>","null","","","","","","","","","","","",""
"","","","","","html-button-response","99","346429","0.0-99.0","8FDF0D47B25D4A13B4085664588D99A1","019cfc89-7217-7015-a4bf-76669ab23d2c","019cfc7b-6c7b-7b1b-afe7-acad8efc6711","","397","
                <div class=""stimulus-container"">
                    <img src=""images/semantic_sequence/physical_activity_semantic/physical_activity_semantic_ten.png"" class=""exp-image"">
                    <div class=""question-area"">
                        <p style=""font-size: 20px; font-weight: bold; margin: 0;"">Is there a person in this image?</p>
                    </div>
                </div>","0","main_experiment_trial","ten","physical_activity_semantic","semantic_sequence","chronological","","","","","","",""
"","","","","","html-keyboard-response","100","351439","0.0-100.0","8FDF0D47B25D4A13B4085664588D99A1","019cfc89-7217-7015-a4bf-76669ab23d2c","019cfc7b-6c7b-7b1b-afe7-acad8efc6711","","null","<div style=""background-color: white; width: 100vw; height: 100vh;""></div>","null","","","","","","","","","","","",""
"","","","","","html-keyboard-response","101","356454","0.0-101.0","8FDF0D47B25D4A13B4085664588D99A1","019cfc89-7217-7015-a4bf-76669ab23d2c","019cfc7b-6c7b-7b1b-afe7-acad8efc6711","","null","
                <div class=""stimulus-container"">
                    <img src=""images/semantic_sequence/kitchen_operations_semantic/kitchen_operations_semantic_1.png"" class=""exp-image"">
                    <div class=""question-area""></div> 
                </div>","null","","","","","","","","","","","",""
"","","","","","html-button-response","102","356855","0.0-102.0","8FDF0D47B25D4A13B4085664588D99A1","019cfc89-7217-7015-a4bf-76669ab23d2c","019cfc7b-6c7b-7b1b-afe7-acad8efc6711","","400","
                <div class=""stimulus-container"">
                    <img src=""images/semantic_sequence/kitchen_operations_semantic/kitchen_operations_semantic_1.png"" class=""exp-image"">
                    <div class=""question-area"">
                        <p style=""font-size: 20px; font-weight: bold; margin: 0;"">Is there a person in this image?</p>
                    </div>
                </div>","0","main_experiment_trial","1","kitchen_operations_semantic","semantic_sequence","chronological","","","","","","",""
"","","","","","html-keyboard-response","103","361865","0.0-103.0","8FDF0D47B25D4A13B4085664588D99A1","019cfc89-7217-7015-a4bf-76669ab23d2c","019cfc7b-6c7b-7b1b-afe7-acad8efc6711","","null","
                <div class=""stimulus-container"">
                    <img src=""images/semantic_sequence/kitchen_operations_semantic/kitchen_operations_semantic_2.png"" class=""exp-image"">
                    <div class=""question-area""></div> 
                </div>","null","","","","","","","","","","","",""
"","","","","","html-button-response","104","362512","0.0-104.0","8FDF0D47B25D4A13B4085664588D99A1","019cfc89-7217-7015-a4bf-76669ab23d2c","019cfc7b-6c7b-7b1b-afe7-acad8efc6711","","646","
                <div class=""stimulus-container"">
                    <img src=""images/semantic_sequence/kitchen_operations_semantic/kitchen_operations_semantic_2.png"" class=""exp-image"">
                    <div class=""question-area"">
                        <p style=""font-size: 20px; font-weight: bold; margin: 0;"">Is there a person in this image?</p>
                    </div>
                </div>","0","main_experiment_trial","2","kitchen_operations_semantic","semantic_sequence","chronological","","","","","","",""
"","","","","","html-keyboard-response","105","367525","0.0-105.0","8FDF0D47B25D4A13B4085664588D99A1","019cfc89-7217-7015-a4bf-76669ab23d2c","019cfc7b-6c7b-7b1b-afe7-acad8efc6711","","null","
                <div class=""stimulus-container"">
                    <img src=""images/semantic_sequence/kitchen_operations_semantic/kitchen_operations_semantic_3.png"" class=""exp-image"">
                    <div class=""question-area""></div> 
                </div>","null","","","","","","","","","","","",""
"","","","","","html-button-response","106","367886","0.0-106.0","8FDF0D47B25D4A13B4085664588D99A1","019cfc89-7217-7015-a4bf-76669ab23d2c","019cfc7b-6c7b-7b1b-afe7-acad8efc6711","","360","
                <div class=""stimulus-container"">
                    <img src=""images/semantic_sequence/kitchen_operations_semantic/kitchen_operations_semantic_3.png"" class=""exp-image"">
                    <div class=""question-area"">
                        <p style=""font-size: 20px; font-weight: bold; margin: 0;"">Is there a person in this image?</p>
                    </div>
                </div>","0","main_experiment_trial","3","kitchen_operations_semantic","semantic_sequence","chronological","","","","","","",""
"","","","","","html-keyboard-response","107","372889","0.0-107.0","8FDF0D47B25D4A13B4085664588D99A1","019cfc89-7217-7015-a4bf-76669ab23d2c","019cfc7b-6c7b-7b1b-afe7-acad8efc6711","","null","
                <div class=""stimulus-container"">
                    <img src=""images/semantic_sequence/kitchen_operations_semantic/kitchen_operations_semantic_4.png"" class=""exp-image"">
                    <div class=""question-area""></div> 
                </div>","null","","","","","","","","","","","",""
"","","","","","html-button-response","108","373359","0.0-108.0","8FDF0D47B25D4A13B4085664588D99A1","019cfc89-7217-7015-a4bf-76669ab23d2c","019cfc7b-6c7b-7b1b-afe7-acad8efc6711","","469","
                <div class=""stimulus-container"">
                    <img src=""images/semantic_sequence/kitchen_operations_semantic/kitchen_operations_semantic_4.png"" class=""exp-image"">
                    <div class=""question-area"">
                        <p style=""font-size: 20px; font-weight: bold; margin: 0;"">Is there a person in this image?</p>
                    </div>
                </div>","0","main_experiment_trial","4","kitchen_operations_semantic","semantic_sequence","chronological","","","","","","",""
"","","","","","html-keyboard-response","109","378365","0.0-109.0","8FDF0D47B25D4A13B4085664588D99A1","019cfc89-7217-7015-a4bf-76669ab23d2c","019cfc7b-6c7b-7b1b-afe7-acad8efc6711","","null","
                <div class=""stimulus-container"">
                    <img src=""images/semantic_sequence/kitchen_operations_semantic/kitchen_operations_semantic_5.png"" class=""exp-image"">
                    <div class=""question-area""></div> 
                </div>","null","","","","","","","","","","","",""
"","","","","","html-button-response","110","378753","0.0-110.0","8FDF0D47B25D4A13B4085664588D99A1","019cfc89-7217-7015-a4bf-76669ab23d2c","019cfc7b-6c7b-7b1b-afe7-acad8efc6711","","386","
                <div class=""stimulus-container"">
                    <img src=""images/semantic_sequence/kitchen_operations_semantic/kitchen_operations_semantic_5.png"" class=""exp-image"">
                    <div class=""question-area"">
                        <p style=""font-size: 20px; font-weight: bold; margin: 0;"">Is there a person in this image?</p>
                    </div>
                </div>","0","main_experiment_trial","5","kitchen_operations_semantic","semantic_sequence","chronological","","","","","","",""
"","","","","","html-keyboard-response","111","383763","0.0-111.0","8FDF0D47B25D4A13B4085664588D99A1","019cfc89-7217-7015-a4bf-76669ab23d2c","019cfc7b-6c7b-7b1b-afe7-acad8efc6711","","null","
                <div class=""stimulus-container"">
                    <img src=""images/semantic_sequence/kitchen_operations_semantic/kitchen_operations_semantic_6.png"" class=""exp-image"">
                    <div class=""question-area""></div> 
                </div>","null","","","","","","","","","","","",""
"","","","","","html-button-response","112","384171","0.0-112.0","8FDF0D47B25D4A13B4085664588D99A1","019cfc89-7217-7015-a4bf-76669ab23d2c","019cfc7b-6c7b-7b1b-afe7-acad8efc6711","","407","
                <div class=""stimulus-container"">
                    <img src=""images/semantic_sequence/kitchen_operations_semantic/kitchen_operations_semantic_6.png"" class=""exp-image"">
                    <div class=""question-area"">
                        <p style=""font-size: 20px; font-weight: bold; margin: 0;"">Is there a person in this image?</p>
                    </div>
                </div>","0","main_experiment_trial","6","kitchen_operations_semantic","semantic_sequence","chronological","","","","","","",""
"","","","","","html-keyboard-response","113","389173","0.0-113.0","8FDF0D47B25D4A13B4085664588D99A1","019cfc89-7217-7015-a4bf-76669ab23d2c","019cfc7b-6c7b-7b1b-afe7-acad8efc6711","","null","
                <div class=""stimulus-container"">
                    <img src=""images/semantic_sequence/kitchen_operations_semantic/kitchen_operations_semantic_7.png"" class=""exp-image"">
                    <div class=""question-area""></div> 
                </div>","null","","","","","","","","","","","",""
"","","","","","html-button-response","114","389561","0.0-114.0","8FDF0D47B25D4A13B4085664588D99A1","019cfc89-7217-7015-a4bf-76669ab23d2c","019cfc7b-6c7b-7b1b-afe7-acad8efc6711","","386","
                <div class=""stimulus-container"">
                    <img src=""images/semantic_sequence/kitchen_operations_semantic/kitchen_operations_semantic_7.png"" class=""exp-image"">
                    <div class=""question-area"">
                        <p style=""font-size: 20px; font-weight: bold; margin: 0;"">Is there a person in this image?</p>
                    </div>
                </div>","0","main_experiment_trial","7","kitchen_operations_semantic","semantic_sequence","chronological","","","","","","",""
"","","","","","html-keyboard-response","115","394568","0.0-115.0","8FDF0D47B25D4A13B4085664588D99A1","019cfc89-7217-7015-a4bf-76669ab23d2c","019cfc7b-6c7b-7b1b-afe7-acad8efc6711","","null","
                <div class=""stimulus-container"">
                    <img src=""images/semantic_sequence/kitchen_operations_semantic/kitchen_operations_semantic_8.png"" class=""exp-image"">
                    <div class=""question-area""></div> 
                </div>","null","","","","","","","","","","","",""
"","","","","","html-button-response","116","394980","0.0-116.0","8FDF0D47B25D4A13B4085664588D99A1","019cfc89-7217-7015-a4bf-76669ab23d2c","019cfc7b-6c7b-7b1b-afe7-acad8efc6711","","410","
                <div class=""stimulus-container"">
                    <img src=""images/semantic_sequence/kitchen_operations_semantic/kitchen_operations_semantic_8.png"" class=""exp-image"">
                    <div class=""question-area"">
                        <p style=""font-size: 20px; font-weight: bold; margin: 0;"">Is there a person in this image?</p>
                    </div>
                </div>","0","main_experiment_trial","8","kitchen_operations_semantic","semantic_sequence","chronological","","","","","","",""
"","","","","","html-keyboard-response","117","399986","0.0-117.0","8FDF0D47B25D4A13B4085664588D99A1","019cfc89-7217-7015-a4bf-76669ab23d2c","019cfc7b-6c7b-7b1b-afe7-acad8efc6711","","null","
                <div class=""stimulus-container"">
                    <img src=""images/semantic_sequence/kitchen_operations_semantic/kitchen_operations_semantic_9.png"" class=""exp-image"">
                    <div class=""question-area""></div> 
                </div>","null","","","","","","","","","","","",""
"","","","","","html-button-response","118","400887","0.0-118.0","8FDF0D47B25D4A13B4085664588D99A1","019cfc89-7217-7015-a4bf-76669ab23d2c","019cfc7b-6c7b-7b1b-afe7-acad8efc6711","","900","
                <div class=""stimulus-container"">
                    <img src=""images/semantic_sequence/kitchen_operations_semantic/kitchen_operations_semantic_9.png"" class=""exp-image"">
                    <div class=""question-area"">
                        <p style=""font-size: 20px; font-weight: bold; margin: 0;"">Is there a person in this image?</p>
                    </div>
                </div>","0","main_experiment_trial","9","kitchen_operations_semantic","semantic_sequence","chronological","","","","","","",""
"","","","","","html-keyboard-response","119","405903","0.0-119.0","8FDF0D47B25D4A13B4085664588D99A1","019cfc89-7217-7015-a4bf-76669ab23d2c","019cfc7b-6c7b-7b1b-afe7-acad8efc6711","","null","
                <div class=""stimulus-container"">
                    <img src=""images/semantic_sequence/kitchen_operations_semantic/kitchen_operations_semantic_ten.png"" class=""exp-image"">
                    <div class=""question-area""></div> 
                </div>","null","","","","","","","","","","","",""
"","","","","","html-button-response","120","406286","0.0-120.0","8FDF0D47B25D4A13B4085664588D99A1","019cfc89-7217-7015-a4bf-76669ab23d2c","019cfc7b-6c7b-7b1b-afe7-acad8efc6711","","381","
                <div class=""stimulus-container"">
                    <img src=""images/semantic_sequence/kitchen_operations_semantic/kitchen_operations_semantic_ten.png"" class=""exp-image"">
                    <div class=""question-area"">
                        <p style=""font-size: 20px; font-weight: bold; margin: 0;"">Is there a person in this image?</p>
                    </div>
                </div>","0","main_experiment_trial","ten","kitchen_operations_semantic","semantic_sequence","chronological","","","","","","",""
"","","","","","html-keyboard-response","121","411301","0.0-121.0","8FDF0D47B25D4A13B4085664588D99A1","019cfc89-7217-7015-a4bf-76669ab23d2c","019cfc7b-6c7b-7b1b-afe7-acad8efc6711","","null","<div style=""background-color: white; width: 100vw; height: 100vh;""></div>","null","","","","","","","","","","","",""
"","","","","","html-keyboard-response","122","416310","0.0-122.0","8FDF0D47B25D4A13B4085664588D99A1","019cfc89-7217-7015-a4bf-76669ab23d2c","019cfc7b-6c7b-7b1b-afe7-acad8efc6711","","null","
                <div class=""stimulus-container"">
                    <img src=""images/schematic_sequence/dinner_party_scheme/dinner_party_scheme_1.png"" class=""exp-image"">
                    <div class=""question-area""></div> 
                </div>","null","","","","","","","","","","","",""
"","","","","","html-button-response","123","416546","0.0-123.0","8FDF0D47B25D4A13B4085664588D99A1","019cfc89-7217-7015-a4bf-76669ab23d2c","019cfc7b-6c7b-7b1b-afe7-acad8efc6711","","235","
                <div class=""stimulus-container"">
                    <img src=""images/schematic_sequence/dinner_party_scheme/dinner_party_scheme_1.png"" class=""exp-image"">
                    <div class=""question-area"">
                        <p style=""font-size: 20px; font-weight: bold; margin: 0;"">Is there a person in this image?</p>
                    </div>
                </div>","0","main_experiment_trial","1","dinner_party_scheme","schematic_sequence","chronological","","","","","","",""
"","","","","","html-keyboard-response","124","421556","0.0-124.0","8FDF0D47B25D4A13B4085664588D99A1","019cfc89-7217-7015-a4bf-76669ab23d2c","019cfc7b-6c7b-7b1b-afe7-acad8efc6711","","null","
                <div class=""stimulus-container"">
                    <img src=""images/schematic_sequence/dinner_party_scheme/dinner_party_scheme_2.png"" class=""exp-image"">
                    <div class=""question-area""></div> 
                </div>","null","","","","","","","","","","","",""
"","","","","","html-button-response","125","421758","0.0-125.0","8FDF0D47B25D4A13B4085664588D99A1","019cfc89-7217-7015-a4bf-76669ab23d2c","019cfc7b-6c7b-7b1b-afe7-acad8efc6711","","201","
                <div class=""stimulus-container"">
                    <img src=""images/schematic_sequence/dinner_party_scheme/dinner_party_scheme_2.png"" class=""exp-image"">
                    <div class=""question-area"">
                        <p style=""font-size: 20px; font-weight: bold; margin: 0;"">Is there a person in this image?</p>
                    </div>
                </div>","0","main_experiment_trial","2","dinner_party_scheme","schematic_sequence","chronological","","","","","","",""
"","","","","","html-keyboard-response","126","426765","0.0-126.0","8FDF0D47B25D4A13B4085664588D99A1","019cfc89-7217-7015-a4bf-76669ab23d2c","019cfc7b-6c7b-7b1b-afe7-acad8efc6711","","null","
                <div class=""stimulus-container"">
                    <img src=""images/schematic_sequence/dinner_party_scheme/dinner_party_scheme_3.png"" class=""exp-image"">
                    <div class=""question-area""></div> 
                </div>","null","","","","","","","","","","","",""
"","","","","","html-button-response","127","426982","0.0-127.0","8FDF0D47B25D4A13B4085664588D99A1","019cfc89-7217-7015-a4bf-76669ab23d2c","019cfc7b-6c7b-7b1b-afe7-acad8efc6711","","215","
                <div class=""stimulus-container"">
                    <img src=""images/schematic_sequence/dinner_party_scheme/dinner_party_scheme_3.png"" class=""exp-image"">
                    <div class=""question-area"">
                        <p style=""font-size: 20px; font-weight: bold; margin: 0;"">Is there a person in this image?</p>
                    </div>
                </div>","0","main_experiment_trial","3","dinner_party_scheme","schematic_sequence","chronological","","","","","","",""
"","","","","","html-keyboard-response","128","431984","0.0-128.0","8FDF0D47B25D4A13B4085664588D99A1","019cfc89-7217-7015-a4bf-76669ab23d2c","019cfc7b-6c7b-7b1b-afe7-acad8efc6711","","null","
                <div class=""stimulus-container"">
                    <img src=""images/schematic_sequence/dinner_party_scheme/dinner_party_scheme_4.png"" class=""exp-image"">
                    <div class=""question-area""></div> 
                </div>","null","","","","","","","","","","","",""
"","","","","","html-button-response","129","432211","0.0-129.0","8FDF0D47B25D4A13B4085664588D99A1","019cfc89-7217-7015-a4bf-76669ab23d2c","019cfc7b-6c7b-7b1b-afe7-acad8efc6711","","226","
                <div class=""stimulus-container"">
                    <img src=""images/schematic_sequence/dinner_party_scheme/dinner_party_scheme_4.png"" class=""exp-image"">
                    <div class=""question-area"">
                        <p style=""font-size: 20px; font-weight: bold; margin: 0;"">Is there a person in this image?</p>
                    </div>
                </div>","0","main_experiment_trial","4","dinner_party_scheme","schematic_sequence","chronological","","","","","","",""
"","","","","","html-keyboard-response","130","437220","0.0-130.0","8FDF0D47B25D4A13B4085664588D99A1","019cfc89-7217-7015-a4bf-76669ab23d2c","019cfc7b-6c7b-7b1b-afe7-acad8efc6711","","null","
                <div class=""stimulus-container"">
                    <img src=""images/schematic_sequence/dinner_party_scheme/dinner_party_scheme_5.png"" class=""exp-image"">
                    <div class=""question-area""></div> 
                </div>","null","","","","","","","","","","","",""
"","","","","","html-button-response","131","437455","0.0-131.0","8FDF0D47B25D4A13B4085664588D99A1","019cfc89-7217-7015-a4bf-76669ab23d2c","019cfc7b-6c7b-7b1b-afe7-acad8efc6711","","234","
                <div class=""stimulus-container"">
                    <img src=""images/schematic_sequence/dinner_party_scheme/dinner_party_scheme_5.png"" class=""exp-image"">
                    <div class=""question-area"">
                        <p style=""font-size: 20px; font-weight: bold; margin: 0;"">Is there a person in this image?</p>
                    </div>
                </div>","0","main_experiment_trial","5","dinner_party_scheme","schematic_sequence","chronological","","","","","","",""
"","","","","","html-keyboard-response","132","442460","0.0-132.0","8FDF0D47B25D4A13B4085664588D99A1","019cfc89-7217-7015-a4bf-76669ab23d2c","019cfc7b-6c7b-7b1b-afe7-acad8efc6711","","null","
                <div class=""stimulus-container"">
                    <img src=""images/schematic_sequence/dinner_party_scheme/dinner_party_scheme_6.png"" class=""exp-image"">
                    <div class=""question-area""></div> 
                </div>","null","","","","","","","","","","","",""
"","","","","","html-button-response","133","442569","0.0-133.0","8FDF0D47B25D4A13B4085664588D99A1","019cfc89-7217-7015-a4bf-76669ab23d2c","019cfc7b-6c7b-7b1b-afe7-acad8efc6711","","108","
                <div class=""stimulus-container"">
                    <img src=""images/schematic_sequence/dinner_party_scheme/dinner_party_scheme_6.png"" class=""exp-image"">
                    <div class=""question-area"">
                        <p style=""font-size: 20px; font-weight: bold; margin: 0;"">Is there a person in this image?</p>
                    </div>
                </div>","0","main_experiment_trial","6","dinner_party_scheme","schematic_sequence","chronological","","","","","","",""
"","","","","","html-keyboard-response","134","447573","0.0-134.0","8FDF0D47B25D4A13B4085664588D99A1","019cfc89-7217-7015-a4bf-76669ab23d2c","019cfc7b-6c7b-7b1b-afe7-acad8efc6711","","null","
                <div class=""stimulus-container"">
                    <img src=""images/schematic_sequence/dinner_party_scheme/dinner_party_scheme_7.png"" class=""exp-image"">
                    <div class=""question-area""></div> 
                </div>","null","","","","","","","","","","","",""
"","","","","","html-button-response","135","447792","0.0-135.0","8FDF0D47B25D4A13B4085664588D99A1","019cfc89-7217-7015-a4bf-76669ab23d2c","019cfc7b-6c7b-7b1b-afe7-acad8efc6711","","218","
                <div class=""stimulus-container"">
                    <img src=""images/schematic_sequence/dinner_party_scheme/dinner_party_scheme_7.png"" class=""exp-image"">
                    <div class=""question-area"">
                        <p style=""font-size: 20px; font-weight: bold; margin: 0;"">Is there a person in this image?</p>
                    </div>
                </div>","0","main_experiment_trial","7","dinner_party_scheme","schematic_sequence","chronological","","","","","","",""
"","","","","","html-keyboard-response","136","452797","0.0-136.0","8FDF0D47B25D4A13B4085664588D99A1","019cfc89-7217-7015-a4bf-76669ab23d2c","019cfc7b-6c7b-7b1b-afe7-acad8efc6711","","null","
                <div class=""stimulus-container"">
                    <img src=""images/schematic_sequence/dinner_party_scheme/dinner_party_scheme_8.png"" class=""exp-image"">
                    <div class=""question-area""></div> 
                </div>","null","","","","","","","","","","","",""
"","","","","","html-button-response","137","453273","0.0-137.0","8FDF0D47B25D4A13B4085664588D99A1","019cfc89-7217-7015-a4bf-76669ab23d2c","019cfc7b-6c7b-7b1b-afe7-acad8efc6711","","474","
                <div class=""stimulus-container"">
                    <img src=""images/schematic_sequence/dinner_party_scheme/dinner_party_scheme_8.png"" class=""exp-image"">
                    <div class=""question-area"">
                        <p style=""font-size: 20px; font-weight: bold; margin: 0;"">Is there a person in this image?</p>
                    </div>
                </div>","0","main_experiment_trial","8","dinner_party_scheme","schematic_sequence","chronological","","","","","","",""
"","","","","","html-keyboard-response","138","458279","0.0-138.0","8FDF0D47B25D4A13B4085664588D99A1","019cfc89-7217-7015-a4bf-76669ab23d2c","019cfc7b-6c7b-7b1b-afe7-acad8efc6711","","null","
                <div class=""stimulus-container"">
                    <img src=""images/schematic_sequence/dinner_party_scheme/dinner_party_scheme_9.png"" class=""exp-image"">
                    <div class=""question-area""></div> 
                </div>","null","","","","","","","","","","","",""
"","","","","","html-button-response","139","458666","0.0-139.0","8FDF0D47B25D4A13B4085664588D99A1","019cfc89-7217-7015-a4bf-76669ab23d2c","019cfc7b-6c7b-7b1b-afe7-acad8efc6711","","385","
                <div class=""stimulus-container"">
                    <img src=""images/schematic_sequence/dinner_party_scheme/dinner_party_scheme_9.png"" class=""exp-image"">
                    <div class=""question-area"">
                        <p style=""font-size: 20px; font-weight: bold; margin: 0;"">Is there a person in this image?</p>
                    </div>
                </div>","0","main_experiment_trial","9","dinner_party_scheme","schematic_sequence","chronological","","","","","","",""
"","","","","","html-keyboard-response","140","463669","0.0-140.0","8FDF0D47B25D4A13B4085664588D99A1","019cfc89-7217-7015-a4bf-76669ab23d2c","019cfc7b-6c7b-7b1b-afe7-acad8efc6711","","null","
                <div class=""stimulus-container"">
                    <img src=""images/schematic_sequence/dinner_party_scheme/dinner_party_scheme_ten.png"" class=""exp-image"">
                    <div class=""question-area""></div> 
                </div>","null","","","","","","","","","","","",""
"","","","","","html-button-response","141","463931","0.0-141.0","8FDF0D47B25D4A13B4085664588D99A1","019cfc89-7217-7015-a4bf-76669ab23d2c","019cfc7b-6c7b-7b1b-afe7-acad8efc6711","","262","
                <div class=""stimulus-container"">
                    <img src=""images/schematic_sequence/dinner_party_scheme/dinner_party_scheme_ten.png"" class=""exp-image"">
                    <div class=""question-area"">
                        <p style=""font-size: 20px; font-weight: bold; margin: 0;"">Is there a person in this image?</p>
                    </div>
                </div>","0","main_experiment_trial","ten","dinner_party_scheme","schematic_sequence","chronological","","","","","","",""
"","","","","","html-keyboard-response","142","468946","0.0-142.0","8FDF0D47B25D4A13B4085664588D99A1","019cfc89-7217-7015-a4bf-76669ab23d2c","019cfc7b-6c7b-7b1b-afe7-acad8efc6711","","null","<div style=""background-color: white; width: 100vw; height: 100vh;""></div>","null","","","","","","","","","","","",""
"","","","","","html-keyboard-response","143","473958","0.0-143.0","8FDF0D47B25D4A13B4085664588D99A1","019cfc89-7217-7015-a4bf-76669ab23d2c","019cfc7b-6c7b-7b1b-afe7-acad8efc6711","","null","
                <div class=""stimulus-container"">
                    <img src=""images/semantic_sequence/housework_semantic/housework_semantic_1.png"" class=""exp-image"">
                    <div class=""question-area""></div> 
                </div>","null","","","","","","","","","","","",""
"","","","","","html-button-response","144","474111","0.0-144.0","8FDF0D47B25D4A13B4085664588D99A1","019cfc89-7217-7015-a4bf-76669ab23d2c","019cfc7b-6c7b-7b1b-afe7-acad8efc6711","","151","
                <div class=""stimulus-container"">
                    <img src=""images/semantic_sequence/housework_semantic/housework_semantic_1.png"" class=""exp-image"">
                    <div class=""question-area"">
                        <p style=""font-size: 20px; font-weight: bold; margin: 0;"">Is there a person in this image?</p>
                    </div>
                </div>","0","main_experiment_trial","1","housework_semantic","semantic_sequence","chronological","","","","","","",""
"","","","","","html-keyboard-response","145","479125","0.0-145.0","8FDF0D47B25D4A13B4085664588D99A1","019cfc89-7217-7015-a4bf-76669ab23d2c","019cfc7b-6c7b-7b1b-afe7-acad8efc6711","","null","
                <div class=""stimulus-container"">
                    <img src=""images/semantic_sequence/housework_semantic/housework_semantic_2.png"" class=""exp-image"">
                    <div class=""question-area""></div> 
                </div>","null","","","","","","","","","","","",""
"","","","","","html-button-response","146","479276","0.0-146.0","8FDF0D47B25D4A13B4085664588D99A1","019cfc89-7217-7015-a4bf-76669ab23d2c","019cfc7b-6c7b-7b1b-afe7-acad8efc6711","","150","
                <div class=""stimulus-container"">
                    <img src=""images/semantic_sequence/housework_semantic/housework_semantic_2.png"" class=""exp-image"">
                    <div class=""question-area"">
                        <p style=""font-size: 20px; font-weight: bold; margin: 0;"">Is there a person in this image?</p>
                    </div>
                </div>","0","main_experiment_trial","2","housework_semantic","semantic_sequence","chronological","","","","","","",""
"","","","","","html-keyboard-response","147","484285","0.0-147.0","8FDF0D47B25D4A13B4085664588D99A1","019cfc89-7217-7015-a4bf-76669ab23d2c","019cfc7b-6c7b-7b1b-afe7-acad8efc6711","","null","
                <div class=""stimulus-container"">
                    <img src=""images/semantic_sequence/housework_semantic/housework_semantic_3.png"" class=""exp-image"">
                    <div class=""question-area""></div> 
                </div>","null","","","","","","","","","","","",""
"","","","","","html-button-response","148","484611","0.0-148.0","8FDF0D47B25D4A13B4085664588D99A1","019cfc89-7217-7015-a4bf-76669ab23d2c","019cfc7b-6c7b-7b1b-afe7-acad8efc6711","","326","
                <div class=""stimulus-container"">
                    <img src=""images/semantic_sequence/housework_semantic/housework_semantic_3.png"" class=""exp-image"">
                    <div class=""question-area"">
                        <p style=""font-size: 20px; font-weight: bold; margin: 0;"">Is there a person in this image?</p>
                    </div>
                </div>","0","main_experiment_trial","3","housework_semantic","semantic_sequence","chronological","","","","","","",""
"","","","","","html-keyboard-response","149","489625","0.0-149.0","8FDF0D47B25D4A13B4085664588D99A1","019cfc89-7217-7015-a4bf-76669ab23d2c","019cfc7b-6c7b-7b1b-afe7-acad8efc6711","","null","
                <div class=""stimulus-container"">
                    <img src=""images/semantic_sequence/housework_semantic/housework_semantic_4.png"" class=""exp-image"">
                    <div class=""question-area""></div> 
                </div>","null","","","","","","","","","","","",""
"","","","","","html-button-response","150","489797","0.0-150.0","8FDF0D47B25D4A13B4085664588D99A1","019cfc89-7217-7015-a4bf-76669ab23d2c","019cfc7b-6c7b-7b1b-afe7-acad8efc6711","","171","
                <div class=""stimulus-container"">
                    <img src=""images/semantic_sequence/housework_semantic/housework_semantic_4.png"" class=""exp-image"">
                    <div class=""question-area"">
                        <p style=""font-size: 20px; font-weight: bold; margin: 0;"">Is there a person in this image?</p>
                    </div>
                </div>","0","main_experiment_trial","4","housework_semantic","semantic_sequence","chronological","","","","","","",""
"","","","","","html-keyboard-response","151","494809","0.0-151.0","8FDF0D47B25D4A13B4085664588D99A1","019cfc89-7217-7015-a4bf-76669ab23d2c","019cfc7b-6c7b-7b1b-afe7-acad8efc6711","","null","
                <div class=""stimulus-container"">
                    <img src=""images/semantic_sequence/housework_semantic/housework_semantic_5.png"" class=""exp-image"">
                    <div class=""question-area""></div> 
                </div>","null","","","","","","","","","","","",""
"","","","","","html-button-response","152","495100","0.0-152.0","8FDF0D47B25D4A13B4085664588D99A1","019cfc89-7217-7015-a4bf-76669ab23d2c","019cfc7b-6c7b-7b1b-afe7-acad8efc6711","","290","
                <div class=""stimulus-container"">
                    <img src=""images/semantic_sequence/housework_semantic/housework_semantic_5.png"" class=""exp-image"">
                    <div class=""question-area"">
                        <p style=""font-size: 20px; font-weight: bold; margin: 0;"">Is there a person in this image?</p>
                    </div>
                </div>","0","main_experiment_trial","5","housework_semantic","semantic_sequence","chronological","","","","","","",""
"","","","","","html-keyboard-response","153","500108","0.0-153.0","8FDF0D47B25D4A13B4085664588D99A1","019cfc89-7217-7015-a4bf-76669ab23d2c","019cfc7b-6c7b-7b1b-afe7-acad8efc6711","","null","
                <div class=""stimulus-container"">
                    <img src=""images/semantic_sequence/housework_semantic/housework_semantic_6.png"" class=""exp-image"">
                    <div class=""question-area""></div> 
                </div>","null","","","","","","","","","","","",""
"","","","","","html-button-response","154","500240","0.0-154.0","8FDF0D47B25D4A13B4085664588D99A1","019cfc89-7217-7015-a4bf-76669ab23d2c","019cfc7b-6c7b-7b1b-afe7-acad8efc6711","","131","
                <div class=""stimulus-container"">
                    <img src=""images/semantic_sequence/housework_semantic/housework_semantic_6.png"" class=""exp-image"">
                    <div class=""question-area"">
                        <p style=""font-size: 20px; font-weight: bold; margin: 0;"">Is there a person in this image?</p>
                    </div>
                </div>","0","main_experiment_trial","6","housework_semantic","semantic_sequence","chronological","","","","","","",""
"","","","","","html-keyboard-response","155","505249","0.0-155.0","8FDF0D47B25D4A13B4085664588D99A1","019cfc89-7217-7015-a4bf-76669ab23d2c","019cfc7b-6c7b-7b1b-afe7-acad8efc6711","","null","
                <div class=""stimulus-container"">
                    <img src=""images/semantic_sequence/housework_semantic/housework_semantic_7.png"" class=""exp-image"">
                    <div class=""question-area""></div> 
                </div>","null","","","","","","","","","","","",""
"","","","","","html-button-response","156","505584","0.0-156.0","8FDF0D47B25D4A13B4085664588D99A1","019cfc89-7217-7015-a4bf-76669ab23d2c","019cfc7b-6c7b-7b1b-afe7-acad8efc6711","","334","
                <div class=""stimulus-container"">
                    <img src=""images/semantic_sequence/housework_semantic/housework_semantic_7.png"" class=""exp-image"">
                    <div class=""question-area"">
                        <p style=""font-size: 20px; font-weight: bold; margin: 0;"">Is there a person in this image?</p>
                    </div>
                </div>","0","main_experiment_trial","7","housework_semantic","semantic_sequence","chronological","","","","","","",""
"","","","","","html-keyboard-response","157","510589","0.0-157.0","8FDF0D47B25D4A13B4085664588D99A1","019cfc89-7217-7015-a4bf-76669ab23d2c","019cfc7b-6c7b-7b1b-afe7-acad8efc6711","","null","
                <div class=""stimulus-container"">
                    <img src=""images/semantic_sequence/housework_semantic/housework_semantic_8.png"" class=""exp-image"">
                    <div class=""question-area""></div> 
                </div>","null","","","","","","","","","","","",""
"","","","","","html-button-response","158","510799","0.0-158.0","8FDF0D47B25D4A13B4085664588D99A1","019cfc89-7217-7015-a4bf-76669ab23d2c","019cfc7b-6c7b-7b1b-afe7-acad8efc6711","","209","
                <div class=""stimulus-container"">
                    <img src=""images/semantic_sequence/housework_semantic/housework_semantic_8.png"" class=""exp-image"">
                    <div class=""question-area"">
                        <p style=""font-size: 20px; font-weight: bold; margin: 0;"">Is there a person in this image?</p>
                    </div>
                </div>","0","main_experiment_trial","8","housework_semantic","semantic_sequence","chronological","","","","","","",""
"","","","","","html-keyboard-response","159","515815","0.0-159.0","8FDF0D47B25D4A13B4085664588D99A1","019cfc89-7217-7015-a4bf-76669ab23d2c","019cfc7b-6c7b-7b1b-afe7-acad8efc6711","","null","
                <div class=""stimulus-container"">
                    <img src=""images/semantic_sequence/housework_semantic/housework_semantic_9.png"" class=""exp-image"">
                    <div class=""question-area""></div> 
                </div>","null","","","","","","","","","","","",""
"","","","","","html-button-response","160","516033","0.0-160.0","8FDF0D47B25D4A13B4085664588D99A1","019cfc89-7217-7015-a4bf-76669ab23d2c","019cfc7b-6c7b-7b1b-afe7-acad8efc6711","","217","
                <div class=""stimulus-container"">
                    <img src=""images/semantic_sequence/housework_semantic/housework_semantic_9.png"" class=""exp-image"">
                    <div class=""question-area"">
                        <p style=""font-size: 20px; font-weight: bold; margin: 0;"">Is there a person in this image?</p>
                    </div>
                </div>","0","main_experiment_trial","9","housework_semantic","semantic_sequence","chronological","","","","","","",""
"","","","","","html-keyboard-response","161","521038","0.0-161.0","8FDF0D47B25D4A13B4085664588D99A1","019cfc89-7217-7015-a4bf-76669ab23d2c","019cfc7b-6c7b-7b1b-afe7-acad8efc6711","","null","
                <div class=""stimulus-container"">
                    <img src=""images/semantic_sequence/housework_semantic/housework_semantic_ten.png"" class=""exp-image"">
                    <div class=""question-area""></div> 
                </div>","null","","","","","","","","","","","",""
"","","","","","html-button-response","162","521500","0.0-162.0","8FDF0D47B25D4A13B4085664588D99A1","019cfc89-7217-7015-a4bf-76669ab23d2c","019cfc7b-6c7b-7b1b-afe7-acad8efc6711","","461","
                <div class=""stimulus-container"">
                    <img src=""images/semantic_sequence/housework_semantic/housework_semantic_ten.png"" class=""exp-image"">
                    <div class=""question-area"">
                        <p style=""font-size: 20px; font-weight: bold; margin: 0;"">Is there a person in this image?</p>
                    </div>
                </div>","0","main_experiment_trial","ten","housework_semantic","semantic_sequence","chronological","","","","","","",""
"","","","","","html-keyboard-response","163","526509","0.0-163.0","8FDF0D47B25D4A13B4085664588D99A1","019cfc89-7217-7015-a4bf-76669ab23d2c","019cfc7b-6c7b-7b1b-afe7-acad8efc6711","","null","<div style=""background-color: white; width: 100vw; height: 100vh;""></div>","null","","","","","","","","","","","",""
"","","","","","html-keyboard-response","164","531522","0.0-164.0","8FDF0D47B25D4A13B4085664588D99A1","019cfc89-7217-7015-a4bf-76669ab23d2c","019cfc7b-6c7b-7b1b-afe7-acad8efc6711","","null","
                <div class=""stimulus-container"">
                    <img src=""images/semantic_sequence/visiting_cities_semantic/visiting_cities_semantic_1.png"" class=""exp-image"">
                    <div class=""question-area""></div> 
                </div>","null","","","","","","","","","","","",""
"","","","","","html-button-response","165","531742","0.0-165.0","8FDF0D47B25D4A13B4085664588D99A1","019cfc89-7217-7015-a4bf-76669ab23d2c","019cfc7b-6c7b-7b1b-afe7-acad8efc6711","","219","
                <div class=""stimulus-container"">
                    <img src=""images/semantic_sequence/visiting_cities_semantic/visiting_cities_semantic_1.png"" class=""exp-image"">
                    <div class=""question-area"">
                        <p style=""font-size: 20px; font-weight: bold; margin: 0;"">Is there a person in this image?</p>
                    </div>
                </div>","0","main_experiment_trial","1","visiting_cities_semantic","semantic_sequence","chronological","","","","","","",""
"","","","","","html-keyboard-response","166","536754","0.0-166.0","8FDF0D47B25D4A13B4085664588D99A1","019cfc89-7217-7015-a4bf-76669ab23d2c","019cfc7b-6c7b-7b1b-afe7-acad8efc6711","","null","
                <div class=""stimulus-container"">
                    <img src=""images/semantic_sequence/visiting_cities_semantic/visiting_cities_semantic_2.png"" class=""exp-image"">
                    <div class=""question-area""></div> 
                </div>","null","","","","","","","","","","","",""
"","","","","","html-button-response","167","537783","0.0-167.0","8FDF0D47B25D4A13B4085664588D99A1","019cfc89-7217-7015-a4bf-76669ab23d2c","019cfc7b-6c7b-7b1b-afe7-acad8efc6711","","1028","
                <div class=""stimulus-container"">
                    <img src=""images/semantic_sequence/visiting_cities_semantic/visiting_cities_semantic_2.png"" class=""exp-image"">
                    <div class=""question-area"">
                        <p style=""font-size: 20px; font-weight: bold; margin: 0;"">Is there a person in this image?</p>
                    </div>
                </div>","1","main_experiment_trial","2","visiting_cities_semantic","semantic_sequence","chronological","","","","","","",""
"","","","","","html-keyboard-response","168","542785","0.0-168.0","8FDF0D47B25D4A13B4085664588D99A1","019cfc89-7217-7015-a4bf-76669ab23d2c","019cfc7b-6c7b-7b1b-afe7-acad8efc6711","","null","
                <div class=""stimulus-container"">
                    <img src=""images/semantic_sequence/visiting_cities_semantic/visiting_cities_semantic_3.png"" class=""exp-image"">
                    <div class=""question-area""></div> 
                </div>","null","","","","","","","","","","","",""
"","","","","","html-button-response","169","543961","0.0-169.0","8FDF0D47B25D4A13B4085664588D99A1","019cfc89-7217-7015-a4bf-76669ab23d2c","019cfc7b-6c7b-7b1b-afe7-acad8efc6711","","1174","
                <div class=""stimulus-container"">
                    <img src=""images/semantic_sequence/visiting_cities_semantic/visiting_cities_semantic_3.png"" class=""exp-image"">
                    <div class=""question-area"">
                        <p style=""font-size: 20px; font-weight: bold; margin: 0;"">Is there a person in this image?</p>
                    </div>
                </div>","1","main_experiment_trial","3","visiting_cities_semantic","semantic_sequence","chronological","","","","","","",""
"","","","","","html-keyboard-response","170","548964","0.0-170.0","8FDF0D47B25D4A13B4085664588D99A1","019cfc89-7217-7015-a4bf-76669ab23d2c","019cfc7b-6c7b-7b1b-afe7-acad8efc6711","","null","
                <div class=""stimulus-container"">
                    <img src=""images/semantic_sequence/visiting_cities_semantic/visiting_cities_semantic_4.png"" class=""exp-image"">
                    <div class=""question-area""></div> 
                </div>","null","","","","","","","","","","","",""
"","","","","","html-button-response","171","549344","0.0-171.0","8FDF0D47B25D4A13B4085664588D99A1","019cfc89-7217-7015-a4bf-76669ab23d2c","019cfc7b-6c7b-7b1b-afe7-acad8efc6711","","379","
                <div class=""stimulus-container"">
                    <img src=""images/semantic_sequence/visiting_cities_semantic/visiting_cities_semantic_4.png"" class=""exp-image"">
                    <div class=""question-area"">
                        <p style=""font-size: 20px; font-weight: bold; margin: 0;"">Is there a person in this image?</p>
                    </div>
                </div>","1","main_experiment_trial","4","visiting_cities_semantic","semantic_sequence","chronological","","","","","","",""
"","","","","","html-keyboard-response","172","554351","0.0-172.0","8FDF0D47B25D4A13B4085664588D99A1","019cfc89-7217-7015-a4bf-76669ab23d2c","019cfc7b-6c7b-7b1b-afe7-acad8efc6711","","null","
                <div class=""stimulus-container"">
                    <img src=""images/semantic_sequence/visiting_cities_semantic/visiting_cities_semantic_5.png"" class=""exp-image"">
                    <div class=""question-area""></div> 
                </div>","null","","","","","","","","","","","",""
"","","","","","html-button-response","173","554958","0.0-173.0","8FDF0D47B25D4A13B4085664588D99A1","019cfc89-7217-7015-a4bf-76669ab23d2c","019cfc7b-6c7b-7b1b-afe7-acad8efc6711","","606","
                <div class=""stimulus-container"">
                    <img src=""images/semantic_sequence/visiting_cities_semantic/visiting_cities_semantic_5.png"" class=""exp-image"">
                    <div class=""question-area"">
                        <p style=""font-size: 20px; font-weight: bold; margin: 0;"">Is there a person in this image?</p>
                    </div>
                </div>","1","main_experiment_trial","5","visiting_cities_semantic","semantic_sequence","chronological","","","","","","",""
"","","","","","html-keyboard-response","174","559970","0.0-174.0","8FDF0D47B25D4A13B4085664588D99A1","019cfc89-7217-7015-a4bf-76669ab23d2c","019cfc7b-6c7b-7b1b-afe7-acad8efc6711","","null","
                <div class=""stimulus-container"">
                    <img src=""images/semantic_sequence/visiting_cities_semantic/visiting_cities_semantic_6.png"" class=""exp-image"">
                    <div class=""question-area""></div> 
                </div>","null","","","","","","","","","","","",""
"","","","","","html-button-response","175","560339","0.0-175.0","8FDF0D47B25D4A13B4085664588D99A1","019cfc89-7217-7015-a4bf-76669ab23d2c","019cfc7b-6c7b-7b1b-afe7-acad8efc6711","","368","
                <div class=""stimulus-container"">
                    <img src=""images/semantic_sequence/visiting_cities_semantic/visiting_cities_semantic_6.png"" class=""exp-image"">
                    <div class=""question-area"">
                        <p style=""font-size: 20px; font-weight: bold; margin: 0;"">Is there a person in this image?</p>
                    </div>
                </div>","1","main_experiment_trial","6","visiting_cities_semantic","semantic_sequence","chronological","","","","","","",""
"","","","","","html-keyboard-response","176","565343","0.0-176.0","8FDF0D47B25D4A13B4085664588D99A1","019cfc89-7217-7015-a4bf-76669ab23d2c","019cfc7b-6c7b-7b1b-afe7-acad8efc6711","","null","
                <div class=""stimulus-container"">
