"success","timeout","failed_images","failed_audio","failed_video","trial_type","trial_index","time_elapsed","internal_node_id","subject_id","study_id","session_id","view_history","rt","stimulus","response","task","image_index","folder","sequence_type","presentation_order","valuable_image_index","reward_type","distance_from_x","target_X","chosen_image_index","is_x_plus_dist","correct_choice"
"true","false","[]","[]","[]","preload","0","1937","0.0-0.0","AE8575E87DCF46DB9C086345F1D8748F","019cfc9b-ed8a-7aa3-9065-4eb0dc2b93fd","019cfc7b-6c7b-7b1b-afe7-acad8efc6711","","","","","","","","","","","","","","","",""
"","","","","","instructions","1","11999","0.0-1.0","AE8575E87DCF46DB9C086345F1D8748F","019cfc9b-ed8a-7aa3-9065-4eb0dc2b93fd","019cfc7b-6c7b-7b1b-afe7-acad8efc6711","[{""page_index"":0,""viewing_time"":10061}]","10061","","","","","","","","","","","","","",""
"","","","","","instructions","2","15062","0.0-2.0","AE8575E87DCF46DB9C086345F1D8748F","019cfc9b-ed8a-7aa3-9065-4eb0dc2b93fd","019cfc7b-6c7b-7b1b-afe7-acad8efc6711","[{""page_index"":0,""viewing_time"":3062}]","3062","","","","","","","","","","","","","",""
"true","","","","","fullscreen","3","18160","0.0-3.0","AE8575E87DCF46DB9C086345F1D8748F","019cfc9b-ed8a-7aa3-9065-4eb0dc2b93fd","019cfc7b-6c7b-7b1b-afe7-acad8efc6711","","2079","","","","","","","","","","","","","",""
"","","","","","instructions","4","23549","0.0-4.0","AE8575E87DCF46DB9C086345F1D8748F","019cfc9b-ed8a-7aa3-9065-4eb0dc2b93fd","019cfc7b-6c7b-7b1b-afe7-acad8efc6711","[{""page_index"":0,""viewing_time"":5389}]","5389","","","","","","","","","","","","","",""
"","","","","","instructions","5","28549","0.0-5.0","AE8575E87DCF46DB9C086345F1D8748F","019cfc9b-ed8a-7aa3-9065-4eb0dc2b93fd","019cfc7b-6c7b-7b1b-afe7-acad8efc6711","[{""page_index"":0,""viewing_time"":5000}]","5000","","","","","","","","","","","","","",""
"","","","","","html-keyboard-response","6","32558","0.0-6.0","AE8575E87DCF46DB9C086345F1D8748F","019cfc9b-ed8a-7aa3-9065-4eb0dc2b93fd","019cfc7b-6c7b-7b1b-afe7-acad8efc6711","","null","
                <div class=""stimulus-container"">
                    <img src=""images/instructions/movie_1.png"" class=""exp-image"">
                    <div class=""question-area""></div> 
                </div>","null","","","","","","","","","","","",""
"","","","","","html-button-response","7","34974","0.0-7.0","AE8575E87DCF46DB9C086345F1D8748F","019cfc9b-ed8a-7aa3-9065-4eb0dc2b93fd","019cfc7b-6c7b-7b1b-afe7-acad8efc6711","","2414","
                <div class=""stimulus-container"">
                    <img src=""images/instructions/movie_1.png"" class=""exp-image"">
                    <div class=""question-area"">
                        <p style=""font-size: 20px; font-weight: bold; margin: 0;"">Was there a person in this image?</p>
                    </div>
                </div>","0","example_question","1","","","","","","","","","",""
"","","","","","html-keyboard-response","8","38983","0.0-8.0","AE8575E87DCF46DB9C086345F1D8748F","019cfc9b-ed8a-7aa3-9065-4eb0dc2b93fd","019cfc7b-6c7b-7b1b-afe7-acad8efc6711","","null","
                <div class=""stimulus-container"">
                    <img src=""images/instructions/movie_2.png"" class=""exp-image"">
                    <div class=""question-area""></div> 
                </div>","null","","","","","","","","","","","",""
"","","","","","html-button-response","9","39870","0.0-9.0","AE8575E87DCF46DB9C086345F1D8748F","019cfc9b-ed8a-7aa3-9065-4eb0dc2b93fd","019cfc7b-6c7b-7b1b-afe7-acad8efc6711","","886","
                <div class=""stimulus-container"">
                    <img src=""images/instructions/movie_2.png"" class=""exp-image"">
                    <div class=""question-area"">
                        <p style=""font-size: 20px; font-weight: bold; margin: 0;"">Was there a person in this image?</p>
                    </div>
                </div>","0","example_question","2","","","","","","","","","",""
"","","","","","html-keyboard-response","10","43875","0.0-10.0","AE8575E87DCF46DB9C086345F1D8748F","019cfc9b-ed8a-7aa3-9065-4eb0dc2b93fd","019cfc7b-6c7b-7b1b-afe7-acad8efc6711","","null","
                <div class=""stimulus-container"">
                    <img src=""images/instructions/movie_3.png"" class=""exp-image"">
                    <div class=""question-area""></div> 
                </div>","null","","","","","","","","","","","",""
"","","","","","html-button-response","11","46878","0.0-11.0","AE8575E87DCF46DB9C086345F1D8748F","019cfc9b-ed8a-7aa3-9065-4eb0dc2b93fd","019cfc7b-6c7b-7b1b-afe7-acad8efc6711","","null","
                <div class=""stimulus-container"">
                    <img src=""images/instructions/movie_3.png"" class=""exp-image"">
                    <div class=""question-area"">
                        <p style=""font-size: 20px; font-weight: bold; margin: 0;"">Was there a person in this image?</p>
                    </div>
                </div>","null","example_question","3","","","","","","","","","",""
"","","","","","html-keyboard-response","12","50882","0.0-12.0","AE8575E87DCF46DB9C086345F1D8748F","019cfc9b-ed8a-7aa3-9065-4eb0dc2b93fd","019cfc7b-6c7b-7b1b-afe7-acad8efc6711","","null","
                <div class=""stimulus-container"">
                    <img src=""images/instructions/movie_4.png"" class=""exp-image"">
                    <div class=""question-area""></div> 
                </div>","null","","","","","","","","","","","",""
"","","","","","html-button-response","13","51413","0.0-13.0","AE8575E87DCF46DB9C086345F1D8748F","019cfc9b-ed8a-7aa3-9065-4eb0dc2b93fd","019cfc7b-6c7b-7b1b-afe7-acad8efc6711","","531","
                <div class=""stimulus-container"">
                    <img src=""images/instructions/movie_4.png"" class=""exp-image"">
                    <div class=""question-area"">
                        <p style=""font-size: 20px; font-weight: bold; margin: 0;"">Was there a person in this image?</p>
                    </div>
                </div>","0","example_question","4","","","","","","","","","",""
"","","","","","instructions","14","52694","0.0-14.0","AE8575E87DCF46DB9C086345F1D8748F","019cfc9b-ed8a-7aa3-9065-4eb0dc2b93fd","019cfc7b-6c7b-7b1b-afe7-acad8efc6711","[{""page_index"":0,""viewing_time"":1280}]","1280","","","","","","","","","","","","","",""
"","","","","","instructions","15","54069","0.0-15.0","AE8575E87DCF46DB9C086345F1D8748F","019cfc9b-ed8a-7aa3-9065-4eb0dc2b93fd","019cfc7b-6c7b-7b1b-afe7-acad8efc6711","[{""page_index"":0,""viewing_time"":1375}]","1375","","","","","","","","","","","","","",""
"","","","","","html-keyboard-response","16","59083","0.0-16.0","AE8575E87DCF46DB9C086345F1D8748F","019cfc9b-ed8a-7aa3-9065-4eb0dc2b93fd","019cfc7b-6c7b-7b1b-afe7-acad8efc6711","","null","<div style=""background-color: white; width: 100vw; height: 100vh;""></div>","null","","","","","","","","","","","",""
"","","","","","html-keyboard-response","17","64086","0.0-17.0","AE8575E87DCF46DB9C086345F1D8748F","019cfc9b-ed8a-7aa3-9065-4eb0dc2b93fd","019cfc7b-6c7b-7b1b-afe7-acad8efc6711","","null","
                <div class=""stimulus-container"">
                    <img src=""images/causal_sequence/dog_causal/dog_causal_1.png"" class=""exp-image"">
                    <div class=""question-area""></div> 
                </div>","null","","","","","","","","","","","",""
"","","","","","html-button-response","18","66197","0.0-18.0","AE8575E87DCF46DB9C086345F1D8748F","019cfc9b-ed8a-7aa3-9065-4eb0dc2b93fd","019cfc7b-6c7b-7b1b-afe7-acad8efc6711","","2110","
                <div class=""stimulus-container"">
                    <img src=""images/causal_sequence/dog_causal/dog_causal_1.png"" class=""exp-image"">
                    <div class=""question-area"">
                        <p style=""font-size: 20px; font-weight: bold; margin: 0;"">Is there a person in this image?</p>
                    </div>
                </div>","0","main_experiment_trial","1","dog_causal","causal_sequence","chronological","","","","","","",""
"","","","","","html-keyboard-response","19","71207","0.0-19.0","AE8575E87DCF46DB9C086345F1D8748F","019cfc9b-ed8a-7aa3-9065-4eb0dc2b93fd","019cfc7b-6c7b-7b1b-afe7-acad8efc6711","","null","
                <div class=""stimulus-container"">
                    <img src=""images/causal_sequence/dog_causal/dog_causal_2.png"" class=""exp-image"">
                    <div class=""question-area""></div> 
                </div>","null","","","","","","","","","","","",""
"","","","","","html-button-response","20","72398","0.0-20.0","AE8575E87DCF46DB9C086345F1D8748F","019cfc9b-ed8a-7aa3-9065-4eb0dc2b93fd","019cfc7b-6c7b-7b1b-afe7-acad8efc6711","","1190","
                <div class=""stimulus-container"">
                    <img src=""images/causal_sequence/dog_causal/dog_causal_2.png"" class=""exp-image"">
                    <div class=""question-area"">
                        <p style=""font-size: 20px; font-weight: bold; margin: 0;"">Is there a person in this image?</p>
                    </div>
                </div>","0","main_experiment_trial","2","dog_causal","causal_sequence","chronological","","","","","","",""
"","","","","","html-keyboard-response","21","77402","0.0-21.0","AE8575E87DCF46DB9C086345F1D8748F","019cfc9b-ed8a-7aa3-9065-4eb0dc2b93fd","019cfc7b-6c7b-7b1b-afe7-acad8efc6711","","null","
                <div class=""stimulus-container"">
                    <img src=""images/causal_sequence/dog_causal/dog_causal_3.png"" class=""exp-image"">
                    <div class=""question-area""></div> 
                </div>","null","","","","","","","","","","","",""
"","","","","","html-button-response","22","77952","0.0-22.0","AE8575E87DCF46DB9C086345F1D8748F","019cfc9b-ed8a-7aa3-9065-4eb0dc2b93fd","019cfc7b-6c7b-7b1b-afe7-acad8efc6711","","549","
                <div class=""stimulus-container"">
                    <img src=""images/causal_sequence/dog_causal/dog_causal_3.png"" class=""exp-image"">
                    <div class=""question-area"">
                        <p style=""font-size: 20px; font-weight: bold; margin: 0;"">Is there a person in this image?</p>
                    </div>
                </div>","0","main_experiment_trial","3","dog_causal","causal_sequence","chronological","","","","","","",""
"","","","","","html-keyboard-response","23","82958","0.0-23.0","AE8575E87DCF46DB9C086345F1D8748F","019cfc9b-ed8a-7aa3-9065-4eb0dc2b93fd","019cfc7b-6c7b-7b1b-afe7-acad8efc6711","","null","
                <div class=""stimulus-container"">
                    <img src=""images/causal_sequence/dog_causal/dog_causal_4.png"" class=""exp-image"">
                    <div class=""question-area""></div> 
                </div>","null","","","","","","","","","","","",""
"","","","","","html-button-response","24","84206","0.0-24.0","AE8575E87DCF46DB9C086345F1D8748F","019cfc9b-ed8a-7aa3-9065-4eb0dc2b93fd","019cfc7b-6c7b-7b1b-afe7-acad8efc6711","","1248","
                <div class=""stimulus-container"">
                    <img src=""images/causal_sequence/dog_causal/dog_causal_4.png"" class=""exp-image"">
                    <div class=""question-area"">
                        <p style=""font-size: 20px; font-weight: bold; margin: 0;"">Is there a person in this image?</p>
                    </div>
                </div>","0","main_experiment_trial","4","dog_causal","causal_sequence","chronological","","","","","","",""
"","","","","","html-keyboard-response","25","89217","0.0-25.0","AE8575E87DCF46DB9C086345F1D8748F","019cfc9b-ed8a-7aa3-9065-4eb0dc2b93fd","019cfc7b-6c7b-7b1b-afe7-acad8efc6711","","null","
                <div class=""stimulus-container"">
                    <img src=""images/causal_sequence/dog_causal/dog_causal_5.png"" class=""exp-image"">
                    <div class=""question-area""></div> 
                </div>","null","","","","","","","","","","","",""
"","","","","","html-button-response","26","90536","0.0-26.0","AE8575E87DCF46DB9C086345F1D8748F","019cfc9b-ed8a-7aa3-9065-4eb0dc2b93fd","019cfc7b-6c7b-7b1b-afe7-acad8efc6711","","1318","
                <div class=""stimulus-container"">
                    <img src=""images/causal_sequence/dog_causal/dog_causal_5.png"" class=""exp-image"">
                    <div class=""question-area"">
                        <p style=""font-size: 20px; font-weight: bold; margin: 0;"">Is there a person in this image?</p>
                    </div>
                </div>","0","main_experiment_trial","5","dog_causal","causal_sequence","chronological","","","","","","",""
"","","","","","html-keyboard-response","27","95551","0.0-27.0","AE8575E87DCF46DB9C086345F1D8748F","019cfc9b-ed8a-7aa3-9065-4eb0dc2b93fd","019cfc7b-6c7b-7b1b-afe7-acad8efc6711","","null","
                <div class=""stimulus-container"">
                    <img src=""images/causal_sequence/dog_causal/dog_causal_6.png"" class=""exp-image"">
                    <div class=""question-area""></div> 
                </div>","null","","","","","","","","","","","",""
"","","","","","html-button-response","28","95974","0.0-28.0","AE8575E87DCF46DB9C086345F1D8748F","019cfc9b-ed8a-7aa3-9065-4eb0dc2b93fd","019cfc7b-6c7b-7b1b-afe7-acad8efc6711","","422","
                <div class=""stimulus-container"">
                    <img src=""images/causal_sequence/dog_causal/dog_causal_6.png"" class=""exp-image"">
                    <div class=""question-area"">
                        <p style=""font-size: 20px; font-weight: bold; margin: 0;"">Is there a person in this image?</p>
                    </div>
                </div>","0","main_experiment_trial","6","dog_causal","causal_sequence","chronological","","","","","","",""
"","","","","","html-keyboard-response","29","100977","0.0-29.0","AE8575E87DCF46DB9C086345F1D8748F","019cfc9b-ed8a-7aa3-9065-4eb0dc2b93fd","019cfc7b-6c7b-7b1b-afe7-acad8efc6711","","null","
                <div class=""stimulus-container"">
                    <img src=""images/causal_sequence/dog_causal/dog_causal_7.png"" class=""exp-image"">
                    <div class=""question-area""></div> 
                </div>","null","","","","","","","","","","","",""
"","","","","","html-button-response","30","102615","0.0-30.0","AE8575E87DCF46DB9C086345F1D8748F","019cfc9b-ed8a-7aa3-9065-4eb0dc2b93fd","019cfc7b-6c7b-7b1b-afe7-acad8efc6711","","1637","
                <div class=""stimulus-container"">
                    <img src=""images/causal_sequence/dog_causal/dog_causal_7.png"" class=""exp-image"">
                    <div class=""question-area"">
                        <p style=""font-size: 20px; font-weight: bold; margin: 0;"">Is there a person in this image?</p>
                    </div>
                </div>","0","main_experiment_trial","7","dog_causal","causal_sequence","chronological","","","","","","",""
"","","","","","html-keyboard-response","31","107628","0.0-31.0","AE8575E87DCF46DB9C086345F1D8748F","019cfc9b-ed8a-7aa3-9065-4eb0dc2b93fd","019cfc7b-6c7b-7b1b-afe7-acad8efc6711","","null","
                <div class=""stimulus-container"">
                    <img src=""images/causal_sequence/dog_causal/dog_causal_8.png"" class=""exp-image"">
                    <div class=""question-area""></div> 
                </div>","null","","","","","","","","","","","",""
"","","","","","html-button-response","32","108135","0.0-32.0","AE8575E87DCF46DB9C086345F1D8748F","019cfc9b-ed8a-7aa3-9065-4eb0dc2b93fd","019cfc7b-6c7b-7b1b-afe7-acad8efc6711","","505","
                <div class=""stimulus-container"">
                    <img src=""images/causal_sequence/dog_causal/dog_causal_8.png"" class=""exp-image"">
                    <div class=""question-area"">
                        <p style=""font-size: 20px; font-weight: bold; margin: 0;"">Is there a person in this image?</p>
                    </div>
                </div>","0","main_experiment_trial","8","dog_causal","causal_sequence","chronological","","","","","","",""
"","","","","","html-keyboard-response","33","113150","0.0-33.0","AE8575E87DCF46DB9C086345F1D8748F","019cfc9b-ed8a-7aa3-9065-4eb0dc2b93fd","019cfc7b-6c7b-7b1b-afe7-acad8efc6711","","null","
                <div class=""stimulus-container"">
                    <img src=""images/causal_sequence/dog_causal/dog_causal_9.png"" class=""exp-image"">
                    <div class=""question-area""></div> 
                </div>","null","","","","","","","","","","","",""
"","","","","","html-button-response","34","113895","0.0-34.0","AE8575E87DCF46DB9C086345F1D8748F","019cfc9b-ed8a-7aa3-9065-4eb0dc2b93fd","019cfc7b-6c7b-7b1b-afe7-acad8efc6711","","744","
                <div class=""stimulus-container"">
                    <img src=""images/causal_sequence/dog_causal/dog_causal_9.png"" class=""exp-image"">
                    <div class=""question-area"">
                        <p style=""font-size: 20px; font-weight: bold; margin: 0;"">Is there a person in this image?</p>
                    </div>
                </div>","0","main_experiment_trial","9","dog_causal","causal_sequence","chronological","","","","","","",""
"","","","","","html-keyboard-response","35","118898","0.0-35.0","AE8575E87DCF46DB9C086345F1D8748F","019cfc9b-ed8a-7aa3-9065-4eb0dc2b93fd","019cfc7b-6c7b-7b1b-afe7-acad8efc6711","","null","
                <div class=""stimulus-container"">
                    <img src=""images/causal_sequence/dog_causal/dog_causal_ten.png"" class=""exp-image"">
                    <div class=""question-area""></div> 
                </div>","null","","","","","","","","","","","",""
"","","","","","html-button-response","36","119798","0.0-36.0","AE8575E87DCF46DB9C086345F1D8748F","019cfc9b-ed8a-7aa3-9065-4eb0dc2b93fd","019cfc7b-6c7b-7b1b-afe7-acad8efc6711","","899","
                <div class=""stimulus-container"">
                    <img src=""images/causal_sequence/dog_causal/dog_causal_ten.png"" class=""exp-image"">
                    <div class=""question-area"">
                        <p style=""font-size: 20px; font-weight: bold; margin: 0;"">Is there a person in this image?</p>
                    </div>
                </div>","0","main_experiment_trial","ten","dog_causal","causal_sequence","chronological","","","","","","",""
"","","","","","html-keyboard-response","37","124805","0.0-37.0","AE8575E87DCF46DB9C086345F1D8748F","019cfc9b-ed8a-7aa3-9065-4eb0dc2b93fd","019cfc7b-6c7b-7b1b-afe7-acad8efc6711","","null","<div style=""background-color: white; width: 100vw; height: 100vh;""></div>","null","","","","","","","","","","","",""
"","","","","","html-keyboard-response","38","129811","0.0-38.0","AE8575E87DCF46DB9C086345F1D8748F","019cfc9b-ed8a-7aa3-9065-4eb0dc2b93fd","019cfc7b-6c7b-7b1b-afe7-acad8efc6711","","null","
                <div class=""stimulus-container"">
                    <img src=""images/semantic_sequence/kitchen_operations_semantic/kitchen_operations_semantic_1.png"" class=""exp-image"">
                    <div class=""question-area""></div> 
                </div>","null","","","","","","","","","","","",""
"","","","","","html-button-response","39","130983","0.0-39.0","AE8575E87DCF46DB9C086345F1D8748F","019cfc9b-ed8a-7aa3-9065-4eb0dc2b93fd","019cfc7b-6c7b-7b1b-afe7-acad8efc6711","","1171","
                <div class=""stimulus-container"">
                    <img src=""images/semantic_sequence/kitchen_operations_semantic/kitchen_operations_semantic_1.png"" class=""exp-image"">
                    <div class=""question-area"">
                        <p style=""font-size: 20px; font-weight: bold; margin: 0;"">Is there a person in this image?</p>
                    </div>
                </div>","0","main_experiment_trial","1","kitchen_operations_semantic","semantic_sequence","chronological","","","","","","",""
"","","","","","html-keyboard-response","40","135994","0.0-40.0","AE8575E87DCF46DB9C086345F1D8748F","019cfc9b-ed8a-7aa3-9065-4eb0dc2b93fd","019cfc7b-6c7b-7b1b-afe7-acad8efc6711","","null","
                <div class=""stimulus-container"">
                    <img src=""images/semantic_sequence/kitchen_operations_semantic/kitchen_operations_semantic_2.png"" class=""exp-image"">
                    <div class=""question-area""></div> 
                </div>","null","","","","","","","","","","","",""
"","","","","","html-button-response","41","138271","0.0-41.0","AE8575E87DCF46DB9C086345F1D8748F","019cfc9b-ed8a-7aa3-9065-4eb0dc2b93fd","019cfc7b-6c7b-7b1b-afe7-acad8efc6711","","2275","
                <div class=""stimulus-container"">
                    <img src=""images/semantic_sequence/kitchen_operations_semantic/kitchen_operations_semantic_2.png"" class=""exp-image"">
                    <div class=""question-area"">
                        <p style=""font-size: 20px; font-weight: bold; margin: 0;"">Is there a person in this image?</p>
                    </div>
                </div>","0","main_experiment_trial","2","kitchen_operations_semantic","semantic_sequence","chronological","","","","","","",""
"","","","","","html-keyboard-response","42","143275","0.0-42.0","AE8575E87DCF46DB9C086345F1D8748F","019cfc9b-ed8a-7aa3-9065-4eb0dc2b93fd","019cfc7b-6c7b-7b1b-afe7-acad8efc6711","","null","
                <div class=""stimulus-container"">
                    <img src=""images/semantic_sequence/kitchen_operations_semantic/kitchen_operations_semantic_3.png"" class=""exp-image"">
                    <div class=""question-area""></div> 
                </div>","null","","","","","","","","","","","",""
"","","","","","html-button-response","43","145303","0.0-43.0","AE8575E87DCF46DB9C086345F1D8748F","019cfc9b-ed8a-7aa3-9065-4eb0dc2b93fd","019cfc7b-6c7b-7b1b-afe7-acad8efc6711","","2026","
                <div class=""stimulus-container"">
                    <img src=""images/semantic_sequence/kitchen_operations_semantic/kitchen_operations_semantic_3.png"" class=""exp-image"">
                    <div class=""question-area"">
                        <p style=""font-size: 20px; font-weight: bold; margin: 0;"">Is there a person in this image?</p>
                    </div>
                </div>","0","main_experiment_trial","3","kitchen_operations_semantic","semantic_sequence","chronological","","","","","","",""
"","","","","","html-keyboard-response","44","150315","0.0-44.0","AE8575E87DCF46DB9C086345F1D8748F","019cfc9b-ed8a-7aa3-9065-4eb0dc2b93fd","019cfc7b-6c7b-7b1b-afe7-acad8efc6711","","null","
                <div class=""stimulus-container"">
                    <img src=""images/semantic_sequence/kitchen_operations_semantic/kitchen_operations_semantic_4.png"" class=""exp-image"">
                    <div class=""question-area""></div> 
                </div>","null","","","","","","","","","","","",""
"","","","","","html-button-response","45","153317","0.0-45.0","AE8575E87DCF46DB9C086345F1D8748F","019cfc9b-ed8a-7aa3-9065-4eb0dc2b93fd","019cfc7b-6c7b-7b1b-afe7-acad8efc6711","","null","
                <div class=""stimulus-container"">
                    <img src=""images/semantic_sequence/kitchen_operations_semantic/kitchen_operations_semantic_4.png"" class=""exp-image"">
                    <div class=""question-area"">
                        <p style=""font-size: 20px; font-weight: bold; margin: 0;"">Is there a person in this image?</p>
                    </div>
                </div>","null","main_experiment_trial","4","kitchen_operations_semantic","semantic_sequence","chronological","","","","","","",""
"","","","","","html-keyboard-response","46","158324","0.0-46.0","AE8575E87DCF46DB9C086345F1D8748F","019cfc9b-ed8a-7aa3-9065-4eb0dc2b93fd","019cfc7b-6c7b-7b1b-afe7-acad8efc6711","","null","
                <div class=""stimulus-container"">
                    <img src=""images/semantic_sequence/kitchen_operations_semantic/kitchen_operations_semantic_5.png"" class=""exp-image"">
                    <div class=""question-area""></div> 
                </div>","null","","","","","","","","","","","",""
"","","","","","html-button-response","47","158759","0.0-47.0","AE8575E87DCF46DB9C086345F1D8748F","019cfc9b-ed8a-7aa3-9065-4eb0dc2b93fd","019cfc7b-6c7b-7b1b-afe7-acad8efc6711","","434","
                <div class=""stimulus-container"">
                    <img src=""images/semantic_sequence/kitchen_operations_semantic/kitchen_operations_semantic_5.png"" class=""exp-image"">
                    <div class=""question-area"">
                        <p style=""font-size: 20px; font-weight: bold; margin: 0;"">Is there a person in this image?</p>
                    </div>
                </div>","0","main_experiment_trial","5","kitchen_operations_semantic","semantic_sequence","chronological","","","","","","",""
"","","","","","html-keyboard-response","48","163766","0.0-48.0","AE8575E87DCF46DB9C086345F1D8748F","019cfc9b-ed8a-7aa3-9065-4eb0dc2b93fd","019cfc7b-6c7b-7b1b-afe7-acad8efc6711","","null","
                <div class=""stimulus-container"">
                    <img src=""images/semantic_sequence/kitchen_operations_semantic/kitchen_operations_semantic_6.png"" class=""exp-image"">
                    <div class=""question-area""></div> 
                </div>","null","","","","","","","","","","","",""
"","","","","","html-button-response","49","164535","0.0-49.0","AE8575E87DCF46DB9C086345F1D8748F","019cfc9b-ed8a-7aa3-9065-4eb0dc2b93fd","019cfc7b-6c7b-7b1b-afe7-acad8efc6711","","768","
                <div class=""stimulus-container"">
                    <img src=""images/semantic_sequence/kitchen_operations_semantic/kitchen_operations_semantic_6.png"" class=""exp-image"">
                    <div class=""question-area"">
                        <p style=""font-size: 20px; font-weight: bold; margin: 0;"">Is there a person in this image?</p>
                    </div>
                </div>","0","main_experiment_trial","6","kitchen_operations_semantic","semantic_sequence","chronological","","","","","","",""
"","","","","","html-keyboard-response","50","169544","0.0-50.0","AE8575E87DCF46DB9C086345F1D8748F","019cfc9b-ed8a-7aa3-9065-4eb0dc2b93fd","019cfc7b-6c7b-7b1b-afe7-acad8efc6711","","null","
                <div class=""stimulus-container"">
                    <img src=""images/semantic_sequence/kitchen_operations_semantic/kitchen_operations_semantic_7.png"" class=""exp-image"">
                    <div class=""question-area""></div> 
                </div>","null","","","","","","","","","","","",""
"","","","","","html-button-response","51","170223","0.0-51.0","AE8575E87DCF46DB9C086345F1D8748F","019cfc9b-ed8a-7aa3-9065-4eb0dc2b93fd","019cfc7b-6c7b-7b1b-afe7-acad8efc6711","","679","
                <div class=""stimulus-container"">
                    <img src=""images/semantic_sequence/kitchen_operations_semantic/kitchen_operations_semantic_7.png"" class=""exp-image"">
                    <div class=""question-area"">
                        <p style=""font-size: 20px; font-weight: bold; margin: 0;"">Is there a person in this image?</p>
                    </div>
                </div>","0","main_experiment_trial","7","kitchen_operations_semantic","semantic_sequence","chronological","","","","","","",""
"","","","","","html-keyboard-response","52","175226","0.0-52.0","AE8575E87DCF46DB9C086345F1D8748F","019cfc9b-ed8a-7aa3-9065-4eb0dc2b93fd","019cfc7b-6c7b-7b1b-afe7-acad8efc6711","","null","
                <div class=""stimulus-container"">
                    <img src=""images/semantic_sequence/kitchen_operations_semantic/kitchen_operations_semantic_8.png"" class=""exp-image"">
                    <div class=""question-area""></div> 
                </div>","null","","","","","","","","","","","",""
"","","","","","html-button-response","53","176047","0.0-53.0","AE8575E87DCF46DB9C086345F1D8748F","019cfc9b-ed8a-7aa3-9065-4eb0dc2b93fd","019cfc7b-6c7b-7b1b-afe7-acad8efc6711","","820","
                <div class=""stimulus-container"">
                    <img src=""images/semantic_sequence/kitchen_operations_semantic/kitchen_operations_semantic_8.png"" class=""exp-image"">
                    <div class=""question-area"">
                        <p style=""font-size: 20px; font-weight: bold; margin: 0;"">Is there a person in this image?</p>
                    </div>
                </div>","0","main_experiment_trial","8","kitchen_operations_semantic","semantic_sequence","chronological","","","","","","",""
"","","","","","html-keyboard-response","54","181053","0.0-54.0","AE8575E87DCF46DB9C086345F1D8748F","019cfc9b-ed8a-7aa3-9065-4eb0dc2b93fd","019cfc7b-6c7b-7b1b-afe7-acad8efc6711","","null","
                <div class=""stimulus-container"">
                    <img src=""images/semantic_sequence/kitchen_operations_semantic/kitchen_operations_semantic_9.png"" class=""exp-image"">
                    <div class=""question-area""></div> 
                </div>","null","","","","","","","","","","","",""
"","","","","","html-button-response","55","182495","0.0-55.0","AE8575E87DCF46DB9C086345F1D8748F","019cfc9b-ed8a-7aa3-9065-4eb0dc2b93fd","019cfc7b-6c7b-7b1b-afe7-acad8efc6711","","1441","
                <div class=""stimulus-container"">
                    <img src=""images/semantic_sequence/kitchen_operations_semantic/kitchen_operations_semantic_9.png"" class=""exp-image"">
                    <div class=""question-area"">
                        <p style=""font-size: 20px; font-weight: bold; margin: 0;"">Is there a person in this image?</p>
                    </div>
                </div>","0","main_experiment_trial","9","kitchen_operations_semantic","semantic_sequence","chronological","","","","","","",""
"","","","","","html-keyboard-response","56","187508","0.0-56.0","AE8575E87DCF46DB9C086345F1D8748F","019cfc9b-ed8a-7aa3-9065-4eb0dc2b93fd","019cfc7b-6c7b-7b1b-afe7-acad8efc6711","","null","
                <div class=""stimulus-container"">
                    <img src=""images/semantic_sequence/kitchen_operations_semantic/kitchen_operations_semantic_ten.png"" class=""exp-image"">
                    <div class=""question-area""></div> 
                </div>","null","","","","","","","","","","","",""
"","","","","","html-button-response","57","190399","0.0-57.0","AE8575E87DCF46DB9C086345F1D8748F","019cfc9b-ed8a-7aa3-9065-4eb0dc2b93fd","019cfc7b-6c7b-7b1b-afe7-acad8efc6711","","2890","
                <div class=""stimulus-container"">
                    <img src=""images/semantic_sequence/kitchen_operations_semantic/kitchen_operations_semantic_ten.png"" class=""exp-image"">
                    <div class=""question-area"">
                        <p style=""font-size: 20px; font-weight: bold; margin: 0;"">Is there a person in this image?</p>
                    </div>
                </div>","0","main_experiment_trial","ten","kitchen_operations_semantic","semantic_sequence","chronological","","","","","","",""
"","","","","","html-keyboard-response","58","195405","0.0-58.0","AE8575E87DCF46DB9C086345F1D8748F","019cfc9b-ed8a-7aa3-9065-4eb0dc2b93fd","019cfc7b-6c7b-7b1b-afe7-acad8efc6711","","null","<div style=""background-color: white; width: 100vw; height: 100vh;""></div>","null","","","","","","","","","","","",""
"","","","","","html-keyboard-response","59","200411","0.0-59.0","AE8575E87DCF46DB9C086345F1D8748F","019cfc9b-ed8a-7aa3-9065-4eb0dc2b93fd","019cfc7b-6c7b-7b1b-afe7-acad8efc6711","","null","
                <div class=""stimulus-container"">
                    <img src=""images/semantic_sequence/physical_activity_semantic/physical_activity_semantic_1.png"" class=""exp-image"">
                    <div class=""question-area""></div> 
                </div>","null","","","","","","","","","","","",""
"","","","","","html-button-response","60","202695","0.0-60.0","AE8575E87DCF46DB9C086345F1D8748F","019cfc9b-ed8a-7aa3-9065-4eb0dc2b93fd","019cfc7b-6c7b-7b1b-afe7-acad8efc6711","","2283","
                <div class=""stimulus-container"">
                    <img src=""images/semantic_sequence/physical_activity_semantic/physical_activity_semantic_1.png"" class=""exp-image"">
                    <div class=""question-area"">
                        <p style=""font-size: 20px; font-weight: bold; margin: 0;"">Is there a person in this image?</p>
                    </div>
                </div>","0","main_experiment_trial","1","physical_activity_semantic","semantic_sequence","chronological","","","","","","",""
"","","","","","html-keyboard-response","61","207704","0.0-61.0","AE8575E87DCF46DB9C086345F1D8748F","019cfc9b-ed8a-7aa3-9065-4eb0dc2b93fd","019cfc7b-6c7b-7b1b-afe7-acad8efc6711","","null","
                <div class=""stimulus-container"">
                    <img src=""images/semantic_sequence/physical_activity_semantic/physical_activity_semantic_2.png"" class=""exp-image"">
                    <div class=""question-area""></div> 
                </div>","null","","","","","","","","","","","",""
"","","","","","html-button-response","62","208439","0.0-62.0","AE8575E87DCF46DB9C086345F1D8748F","019cfc9b-ed8a-7aa3-9065-4eb0dc2b93fd","019cfc7b-6c7b-7b1b-afe7-acad8efc6711","","734","
                <div class=""stimulus-container"">
                    <img src=""images/semantic_sequence/physical_activity_semantic/physical_activity_semantic_2.png"" class=""exp-image"">
                    <div class=""question-area"">
                        <p style=""font-size: 20px; font-weight: bold; margin: 0;"">Is there a person in this image?</p>
                    </div>
                </div>","0","main_experiment_trial","2","physical_activity_semantic","semantic_sequence","chronological","","","","","","",""
"","","","","","html-keyboard-response","63","213444","0.0-63.0","AE8575E87DCF46DB9C086345F1D8748F","019cfc9b-ed8a-7aa3-9065-4eb0dc2b93fd","019cfc7b-6c7b-7b1b-afe7-acad8efc6711","","null","
                <div class=""stimulus-container"">
                    <img src=""images/semantic_sequence/physical_activity_semantic/physical_activity_semantic_3.png"" class=""exp-image"">
                    <div class=""question-area""></div> 
                </div>","null","","","","","","","","","","","",""
"","","","","","html-button-response","64","214576","0.0-64.0","AE8575E87DCF46DB9C086345F1D8748F","019cfc9b-ed8a-7aa3-9065-4eb0dc2b93fd","019cfc7b-6c7b-7b1b-afe7-acad8efc6711","","1130","
                <div class=""stimulus-container"">
                    <img src=""images/semantic_sequence/physical_activity_semantic/physical_activity_semantic_3.png"" class=""exp-image"">
                    <div class=""question-area"">
                        <p style=""font-size: 20px; font-weight: bold; margin: 0;"">Is there a person in this image?</p>
                    </div>
                </div>","0","main_experiment_trial","3","physical_activity_semantic","semantic_sequence","chronological","","","","","","",""
"","","","","","html-keyboard-response","65","219582","0.0-65.0","AE8575E87DCF46DB9C086345F1D8748F","019cfc9b-ed8a-7aa3-9065-4eb0dc2b93fd","019cfc7b-6c7b-7b1b-afe7-acad8efc6711","","null","
                <div class=""stimulus-container"">
                    <img src=""images/semantic_sequence/physical_activity_semantic/physical_activity_semantic_4.png"" class=""exp-image"">
                    <div class=""question-area""></div> 
                </div>","null","","","","","","","","","","","",""
"","","","","","html-button-response","66","220191","0.0-66.0","AE8575E87DCF46DB9C086345F1D8748F","019cfc9b-ed8a-7aa3-9065-4eb0dc2b93fd","019cfc7b-6c7b-7b1b-afe7-acad8efc6711","","608","
                <div class=""stimulus-container"">
                    <img src=""images/semantic_sequence/physical_activity_semantic/physical_activity_semantic_4.png"" class=""exp-image"">
                    <div class=""question-area"">
                        <p style=""font-size: 20px; font-weight: bold; margin: 0;"">Is there a person in this image?</p>
                    </div>
                </div>","0","main_experiment_trial","4","physical_activity_semantic","semantic_sequence","chronological","","","","","","",""
"","","","","","html-keyboard-response","67","225192","0.0-67.0","AE8575E87DCF46DB9C086345F1D8748F","019cfc9b-ed8a-7aa3-9065-4eb0dc2b93fd","019cfc7b-6c7b-7b1b-afe7-acad8efc6711","","null","
                <div class=""stimulus-container"">
                    <img src=""images/semantic_sequence/physical_activity_semantic/physical_activity_semantic_5.png"" class=""exp-image"">
                    <div class=""question-area""></div> 
                </div>","null","","","","","","","","","","","",""
"","","","","","html-button-response","68","225712","0.0-68.0","AE8575E87DCF46DB9C086345F1D8748F","019cfc9b-ed8a-7aa3-9065-4eb0dc2b93fd","019cfc7b-6c7b-7b1b-afe7-acad8efc6711","","520","
                <div class=""stimulus-container"">
                    <img src=""images/semantic_sequence/physical_activity_semantic/physical_activity_semantic_5.png"" class=""exp-image"">
                    <div class=""question-area"">
                        <p style=""font-size: 20px; font-weight: bold; margin: 0;"">Is there a person in this image?</p>
                    </div>
                </div>","0","main_experiment_trial","5","physical_activity_semantic","semantic_sequence","chronological","","","","","","",""
"","","","","","html-keyboard-response","69","230728","0.0-69.0","AE8575E87DCF46DB9C086345F1D8748F","019cfc9b-ed8a-7aa3-9065-4eb0dc2b93fd","019cfc7b-6c7b-7b1b-afe7-acad8efc6711","","null","
                <div class=""stimulus-container"">
                    <img src=""images/semantic_sequence/physical_activity_semantic/physical_activity_semantic_6.png"" class=""exp-image"">
                    <div class=""question-area""></div> 
                </div>","null","","","","","","","","","","","",""
"","","","","","html-button-response","70","233733","0.0-70.0","AE8575E87DCF46DB9C086345F1D8748F","019cfc9b-ed8a-7aa3-9065-4eb0dc2b93fd","019cfc7b-6c7b-7b1b-afe7-acad8efc6711","","null","
                <div class=""stimulus-container"">
                    <img src=""images/semantic_sequence/physical_activity_semantic/physical_activity_semantic_6.png"" class=""exp-image"">
                    <div class=""question-area"">
                        <p style=""font-size: 20px; font-weight: bold; margin: 0;"">Is there a person in this image?</p>
                    </div>
                </div>","null","main_experiment_trial","6","physical_activity_semantic","semantic_sequence","chronological","","","","","","",""
"","","","","","html-keyboard-response","71","238734","0.0-71.0","AE8575E87DCF46DB9C086345F1D8748F","019cfc9b-ed8a-7aa3-9065-4eb0dc2b93fd","019cfc7b-6c7b-7b1b-afe7-acad8efc6711","","null","
                <div class=""stimulus-container"">
                    <img src=""images/semantic_sequence/physical_activity_semantic/physical_activity_semantic_7.png"" class=""exp-image"">
                    <div class=""question-area""></div> 
                </div>","null","","","","","","","","","","","",""
"","","","","","html-button-response","72","239976","0.0-72.0","AE8575E87DCF46DB9C086345F1D8748F","019cfc9b-ed8a-7aa3-9065-4eb0dc2b93fd","019cfc7b-6c7b-7b1b-afe7-acad8efc6711","","1240","
                <div class=""stimulus-container"">
                    <img src=""images/semantic_sequence/physical_activity_semantic/physical_activity_semantic_7.png"" class=""exp-image"">
                    <div class=""question-area"">
                        <p style=""font-size: 20px; font-weight: bold; margin: 0;"">Is there a person in this image?</p>
                    </div>
                </div>","0","main_experiment_trial","7","physical_activity_semantic","semantic_sequence","chronological","","","","","","",""
"","","","","","html-keyboard-response","73","244984","0.0-73.0","AE8575E87DCF46DB9C086345F1D8748F","019cfc9b-ed8a-7aa3-9065-4eb0dc2b93fd","019cfc7b-6c7b-7b1b-afe7-acad8efc6711","","null","
                <div class=""stimulus-container"">
                    <img src=""images/semantic_sequence/physical_activity_semantic/physical_activity_semantic_8.png"" class=""exp-image"">
                    <div class=""question-area""></div> 
                </div>","null","","","","","","","","","","","",""
"","","","","","html-button-response","74","246223","0.0-74.0","AE8575E87DCF46DB9C086345F1D8748F","019cfc9b-ed8a-7aa3-9065-4eb0dc2b93fd","019cfc7b-6c7b-7b1b-afe7-acad8efc6711","","1239","
                <div class=""stimulus-container"">
                    <img src=""images/semantic_sequence/physical_activity_semantic/physical_activity_semantic_8.png"" class=""exp-image"">
                    <div class=""question-area"">
                        <p style=""font-size: 20px; font-weight: bold; margin: 0;"">Is there a person in this image?</p>
                    </div>
                </div>","0","main_experiment_trial","8","physical_activity_semantic","semantic_sequence","chronological","","","","","","",""
"","","","","","html-keyboard-response","75","251232","0.0-75.0","AE8575E87DCF46DB9C086345F1D8748F","019cfc9b-ed8a-7aa3-9065-4eb0dc2b93fd","019cfc7b-6c7b-7b1b-afe7-acad8efc6711","","null","
                <div class=""stimulus-container"">
                    <img src=""images/semantic_sequence/physical_activity_semantic/physical_activity_semantic_9.png"" class=""exp-image"">
                    <div class=""question-area""></div> 
                </div>","null","","","","","","","","","","","",""
"","","","","","html-button-response","76","252208","0.0-76.0","AE8575E87DCF46DB9C086345F1D8748F","019cfc9b-ed8a-7aa3-9065-4eb0dc2b93fd","019cfc7b-6c7b-7b1b-afe7-acad8efc6711","","975","
                <div class=""stimulus-container"">
                    <img src=""images/semantic_sequence/physical_activity_semantic/physical_activity_semantic_9.png"" class=""exp-image"">
                    <div class=""question-area"">
                        <p style=""font-size: 20px; font-weight: bold; margin: 0;"">Is there a person in this image?</p>
                    </div>
                </div>","0","main_experiment_trial","9","physical_activity_semantic","semantic_sequence","chronological","","","","","","",""
"","","","","","html-keyboard-response","77","257222","0.0-77.0","AE8575E87DCF46DB9C086345F1D8748F","019cfc9b-ed8a-7aa3-9065-4eb0dc2b93fd","019cfc7b-6c7b-7b1b-afe7-acad8efc6711","","null","
                <div class=""stimulus-container"">
                    <img src=""images/semantic_sequence/physical_activity_semantic/physical_activity_semantic_ten.png"" class=""exp-image"">
                    <div class=""question-area""></div> 
                </div>","null","","","","","","","","","","","",""
"","","","","","html-button-response","78","258528","0.0-78.0","AE8575E87DCF46DB9C086345F1D8748F","019cfc9b-ed8a-7aa3-9065-4eb0dc2b93fd","019cfc7b-6c7b-7b1b-afe7-acad8efc6711","","1305","
                <div class=""stimulus-container"">
                    <img src=""images/semantic_sequence/physical_activity_semantic/physical_activity_semantic_ten.png"" class=""exp-image"">
                    <div class=""question-area"">
                        <p style=""font-size: 20px; font-weight: bold; margin: 0;"">Is there a person in this image?</p>
                    </div>
                </div>","0","main_experiment_trial","ten","physical_activity_semantic","semantic_sequence","chronological","","","","","","",""
"","","","","","html-keyboard-response","79","263534","0.0-79.0","AE8575E87DCF46DB9C086345F1D8748F","019cfc9b-ed8a-7aa3-9065-4eb0dc2b93fd","019cfc7b-6c7b-7b1b-afe7-acad8efc6711","","null","<div style=""background-color: white; width: 100vw; height: 100vh;""></div>","null","","","","","","","","","","","",""
"","","","","","html-keyboard-response","80","268535","0.0-80.0","AE8575E87DCF46DB9C086345F1D8748F","019cfc9b-ed8a-7aa3-9065-4eb0dc2b93fd","019cfc7b-6c7b-7b1b-afe7-acad8efc6711","","null","
                <div class=""stimulus-container"">
                    <img src=""images/schematic_sequence/restaurant_scheme/restaurant_scheme_1.png"" class=""exp-image"">
                    <div class=""question-area""></div> 
                </div>","null","","","","","","","","","","","",""
"","","","","","html-button-response","81","270112","0.0-81.0","AE8575E87DCF46DB9C086345F1D8748F","019cfc9b-ed8a-7aa3-9065-4eb0dc2b93fd","019cfc7b-6c7b-7b1b-afe7-acad8efc6711","","1576","
                <div class=""stimulus-container"">
                    <img src=""images/schematic_sequence/restaurant_scheme/restaurant_scheme_1.png"" class=""exp-image"">
                    <div class=""question-area"">
                        <p style=""font-size: 20px; font-weight: bold; margin: 0;"">Is there a person in this image?</p>
                    </div>
                </div>","0","main_experiment_trial","1","restaurant_scheme","schematic_sequence","chronological","","","","","","",""
"","","","","","html-keyboard-response","82","275125","0.0-82.0","AE8575E87DCF46DB9C086345F1D8748F","019cfc9b-ed8a-7aa3-9065-4eb0dc2b93fd","019cfc7b-6c7b-7b1b-afe7-acad8efc6711","","null","
                <div class=""stimulus-container"">
                    <img src=""images/schematic_sequence/restaurant_scheme/restaurant_scheme_2.png"" class=""exp-image"">
                    <div class=""question-area""></div> 
                </div>","null","","","","","","","","","","","",""
"","","","","","html-button-response","83","277487","0.0-83.0","AE8575E87DCF46DB9C086345F1D8748F","019cfc9b-ed8a-7aa3-9065-4eb0dc2b93fd","019cfc7b-6c7b-7b1b-afe7-acad8efc6711","","2361","
                <div class=""stimulus-container"">
                    <img src=""images/schematic_sequence/restaurant_scheme/restaurant_scheme_2.png"" class=""exp-image"">
                    <div class=""question-area"">
                        <p style=""font-size: 20px; font-weight: bold; margin: 0;"">Is there a person in this image?</p>
                    </div>
                </div>","1","main_experiment_trial","2","restaurant_scheme","schematic_sequence","chronological","","","","","","",""
"","","","","","html-keyboard-response","84","282503","0.0-84.0","AE8575E87DCF46DB9C086345F1D8748F","019cfc9b-ed8a-7aa3-9065-4eb0dc2b93fd","019cfc7b-6c7b-7b1b-afe7-acad8efc6711","","null","
                <div class=""stimulus-container"">
                    <img src=""images/schematic_sequence/restaurant_scheme/restaurant_scheme_3.png"" class=""exp-image"">
                    <div class=""question-area""></div> 
                </div>","null","","","","","","","","","","","",""
"","","","","","html-button-response","85","283872","0.0-85.0","AE8575E87DCF46DB9C086345F1D8748F","019cfc9b-ed8a-7aa3-9065-4eb0dc2b93fd","019cfc7b-6c7b-7b1b-afe7-acad8efc6711","","1368","
                <div class=""stimulus-container"">
                    <img src=""images/schematic_sequence/restaurant_scheme/restaurant_scheme_3.png"" class=""exp-image"">
                    <div class=""question-area"">
                        <p style=""font-size: 20px; font-weight: bold; margin: 0;"">Is there a person in this image?</p>
                    </div>
                </div>","1","main_experiment_trial","3","restaurant_scheme","schematic_sequence","chronological","","","","","","",""
"","","","","","html-keyboard-response","86","288880","0.0-86.0","AE8575E87DCF46DB9C086345F1D8748F","019cfc9b-ed8a-7aa3-9065-4eb0dc2b93fd","019cfc7b-6c7b-7b1b-afe7-acad8efc6711","","null","
                <div class=""stimulus-container"">
                    <img src=""images/schematic_sequence/restaurant_scheme/restaurant_scheme_4.png"" class=""exp-image"">
                    <div class=""question-area""></div> 
                </div>","null","","","","","","","","","","","",""
"","","","","","html-button-response","87","290425","0.0-87.0","AE8575E87DCF46DB9C086345F1D8748F","019cfc9b-ed8a-7aa3-9065-4eb0dc2b93fd","019cfc7b-6c7b-7b1b-afe7-acad8efc6711","","1544","
                <div class=""stimulus-container"">
                    <img src=""images/schematic_sequence/restaurant_scheme/restaurant_scheme_4.png"" class=""exp-image"">
                    <div class=""question-area"">
                        <p style=""font-size: 20px; font-weight: bold; margin: 0;"">Is there a person in this image?</p>
                    </div>
                </div>","0","main_experiment_trial","4","restaurant_scheme","schematic_sequence","chronological","","","","","","",""
"","","","","","html-keyboard-response","88","295434","0.0-88.0","AE8575E87DCF46DB9C086345F1D8748F","019cfc9b-ed8a-7aa3-9065-4eb0dc2b93fd","019cfc7b-6c7b-7b1b-afe7-acad8efc6711","","null","
                <div class=""stimulus-container"">
                    <img src=""images/schematic_sequence/restaurant_scheme/restaurant_scheme_5.png"" class=""exp-image"">
                    <div class=""question-area""></div> 
                </div>","null","","","","","","","","","","","",""
"","","","","","html-button-response","89","297008","0.0-89.0","AE8575E87DCF46DB9C086345F1D8748F","019cfc9b-ed8a-7aa3-9065-4eb0dc2b93fd","019cfc7b-6c7b-7b1b-afe7-acad8efc6711","","1573","
                <div class=""stimulus-container"">
                    <img src=""images/schematic_sequence/restaurant_scheme/restaurant_scheme_5.png"" class=""exp-image"">
                    <div class=""question-area"">
                        <p style=""font-size: 20px; font-weight: bold; margin: 0;"">Is there a person in this image?</p>
                    </div>
                </div>","0","main_experiment_trial","5","restaurant_scheme","schematic_sequence","chronological","","","","","","",""
"","","","","","html-keyboard-response","90","302018","0.0-90.0","AE8575E87DCF46DB9C086345F1D8748F","019cfc9b-ed8a-7aa3-9065-4eb0dc2b93fd","019cfc7b-6c7b-7b1b-afe7-acad8efc6711","","null","
                <div class=""stimulus-container"">
                    <img src=""images/schematic_sequence/restaurant_scheme/restaurant_scheme_6.png"" class=""exp-image"">
                    <div class=""question-area""></div> 
                </div>","null","","","","","","","","","","","",""
"","","","","","html-button-response","91","303407","0.0-91.0","AE8575E87DCF46DB9C086345F1D8748F","019cfc9b-ed8a-7aa3-9065-4eb0dc2b93fd","019cfc7b-6c7b-7b1b-afe7-acad8efc6711","","1388","
                <div class=""stimulus-container"">
                    <img src=""images/schematic_sequence/restaurant_scheme/restaurant_scheme_6.png"" class=""exp-image"">
                    <div class=""question-area"">
                        <p style=""font-size: 20px; font-weight: bold; margin: 0;"">Is there a person in this image?</p>
                    </div>
                </div>","1","main_experiment_trial","6","restaurant_scheme","schematic_sequence","chronological","","","","","","",""
"","","","","","html-keyboard-response","92","308413","0.0-92.0","AE8575E87DCF46DB9C086345F1D8748F","019cfc9b-ed8a-7aa3-9065-4eb0dc2b93fd","019cfc7b-6c7b-7b1b-afe7-acad8efc6711","","null","
                <div class=""stimulus-container"">
                    <img src=""images/schematic_sequence/restaurant_scheme/restaurant_scheme_7.png"" class=""exp-image"">
                    <div class=""question-area""></div> 
                </div>","null","","","","","","","","","","","",""
"","","","","","html-button-response","93","309535","0.0-93.0","AE8575E87DCF46DB9C086345F1D8748F","019cfc9b-ed8a-7aa3-9065-4eb0dc2b93fd","019cfc7b-6c7b-7b1b-afe7-acad8efc6711","","1121","
                <div class=""stimulus-container"">
                    <img src=""images/schematic_sequence/restaurant_scheme/restaurant_scheme_7.png"" class=""exp-image"">
                    <div class=""question-area"">
                        <p style=""font-size: 20px; font-weight: bold; margin: 0;"">Is there a person in this image?</p>
                    </div>
                </div>","1","main_experiment_trial","7","restaurant_scheme","schematic_sequence","chronological","","","","","","",""
"","","","","","html-keyboard-response","94","314550","0.0-94.0","AE8575E87DCF46DB9C086345F1D8748F","019cfc9b-ed8a-7aa3-9065-4eb0dc2b93fd","019cfc7b-6c7b-7b1b-afe7-acad8efc6711","","null","
                <div class=""stimulus-container"">
                    <img src=""images/schematic_sequence/restaurant_scheme/restaurant_scheme_8.png"" class=""exp-image"">
                    <div class=""question-area""></div> 
                </div>","null","","","","","","","","","","","",""
"","","","","","html-button-response","95","315904","0.0-95.0","AE8575E87DCF46DB9C086345F1D8748F","019cfc9b-ed8a-7aa3-9065-4eb0dc2b93fd","019cfc7b-6c7b-7b1b-afe7-acad8efc6711","","1353","
                <div class=""stimulus-container"">
                    <img src=""images/schematic_sequence/restaurant_scheme/restaurant_scheme_8.png"" class=""exp-image"">
                    <div class=""question-area"">
                        <p style=""font-size: 20px; font-weight: bold; margin: 0;"">Is there a person in this image?</p>
                    </div>
                </div>","1","main_experiment_trial","8","restaurant_scheme","schematic_sequence","chronological","","","","","","",""
"","","","","","html-keyboard-response","96","320907","0.0-96.0","AE8575E87DCF46DB9C086345F1D8748F","019cfc9b-ed8a-7aa3-9065-4eb0dc2b93fd","019cfc7b-6c7b-7b1b-afe7-acad8efc6711","","null","
                <div class=""stimulus-container"">
                    <img src=""images/schematic_sequence/restaurant_scheme/restaurant_scheme_9.png"" class=""exp-image"">
                    <div class=""question-area""></div> 
                </div>","null","","","","","","","","","","","",""
"","","","","","html-button-response","97","322370","0.0-97.0","AE8575E87DCF46DB9C086345F1D8748F","019cfc9b-ed8a-7aa3-9065-4eb0dc2b93fd","019cfc7b-6c7b-7b1b-afe7-acad8efc6711","","1462","
                <div class=""stimulus-container"">
                    <img src=""images/schematic_sequence/restaurant_scheme/restaurant_scheme_9.png"" class=""exp-image"">
                    <div class=""question-area"">
                        <p style=""font-size: 20px; font-weight: bold; margin: 0;"">Is there a person in this image?</p>
                    </div>
                </div>","0","main_experiment_trial","9","restaurant_scheme","schematic_sequence","chronological","","","","","","",""
"","","","","","html-keyboard-response","98","327385","0.0-98.0","AE8575E87DCF46DB9C086345F1D8748F","019cfc9b-ed8a-7aa3-9065-4eb0dc2b93fd","019cfc7b-6c7b-7b1b-afe7-acad8efc6711","","null","
                <div class=""stimulus-container"">
                    <img src=""images/schematic_sequence/restaurant_scheme/restaurant_scheme_ten.png"" class=""exp-image"">
                    <div class=""question-area""></div> 
                </div>","null","","","","","","","","","","","",""
"","","","","","html-button-response","99","328784","0.0-99.0","AE8575E87DCF46DB9C086345F1D8748F","019cfc9b-ed8a-7aa3-9065-4eb0dc2b93fd","019cfc7b-6c7b-7b1b-afe7-acad8efc6711","","1399","
                <div class=""stimulus-container"">
                    <img src=""images/schematic_sequence/restaurant_scheme/restaurant_scheme_ten.png"" class=""exp-image"">
                    <div class=""question-area"">
                        <p style=""font-size: 20px; font-weight: bold; margin: 0;"">Is there a person in this image?</p>
                    </div>
                </div>","0","main_experiment_trial","ten","restaurant_scheme","schematic_sequence","chronological","","","","","","",""
"","","","","","html-keyboard-response","100","333792","0.0-100.0","AE8575E87DCF46DB9C086345F1D8748F","019cfc9b-ed8a-7aa3-9065-4eb0dc2b93fd","019cfc7b-6c7b-7b1b-afe7-acad8efc6711","","null","<div style=""background-color: white; width: 100vw; height: 100vh;""></div>","null","","","","","","","","","","","",""
"","","","","","html-keyboard-response","101","338798","0.0-101.0","AE8575E87DCF46DB9C086345F1D8748F","019cfc9b-ed8a-7aa3-9065-4eb0dc2b93fd","019cfc7b-6c7b-7b1b-afe7-acad8efc6711","","null","
                <div class=""stimulus-container"">
                    <img src=""images/causal_sequence/museum_causal/museum_causal_1.png"" class=""exp-image"">
                    <div class=""question-area""></div> 
                </div>","null","","","","","","","","","","","",""
"","","","","","html-button-response","102","339905","0.0-102.0","AE8575E87DCF46DB9C086345F1D8748F","019cfc9b-ed8a-7aa3-9065-4eb0dc2b93fd","019cfc7b-6c7b-7b1b-afe7-acad8efc6711","","1106","
                <div class=""stimulus-container"">
                    <img src=""images/causal_sequence/museum_causal/museum_causal_1.png"" class=""exp-image"">
                    <div class=""question-area"">
                        <p style=""font-size: 20px; font-weight: bold; margin: 0;"">Is there a person in this image?</p>
                    </div>
                </div>","0","main_experiment_trial","1","museum_causal","causal_sequence","chronological","","","","","","",""
"","","","","","html-keyboard-response","103","344918","0.0-103.0","AE8575E87DCF46DB9C086345F1D8748F","019cfc9b-ed8a-7aa3-9065-4eb0dc2b93fd","019cfc7b-6c7b-7b1b-afe7-acad8efc6711","","null","
                <div class=""stimulus-container"">
                    <img src=""images/causal_sequence/museum_causal/museum_causal_2.png"" class=""exp-image"">
                    <div class=""question-area""></div> 
                </div>","null","","","","","","","","","","","",""
"","","","","","html-button-response","104","345448","0.0-104.0","AE8575E87DCF46DB9C086345F1D8748F","019cfc9b-ed8a-7aa3-9065-4eb0dc2b93fd","019cfc7b-6c7b-7b1b-afe7-acad8efc6711","","529","
                <div class=""stimulus-container"">
                    <img src=""images/causal_sequence/museum_causal/museum_causal_2.png"" class=""exp-image"">
                    <div class=""question-area"">
                        <p style=""font-size: 20px; font-weight: bold; margin: 0;"">Is there a person in this image?</p>
                    </div>
                </div>","0","main_experiment_trial","2","museum_causal","causal_sequence","chronological","","","","","","",""
"","","","","","html-keyboard-response","105","350457","0.0-105.0","AE8575E87DCF46DB9C086345F1D8748F","019cfc9b-ed8a-7aa3-9065-4eb0dc2b93fd","019cfc7b-6c7b-7b1b-afe7-acad8efc6711","","null","
                <div class=""stimulus-container"">
                    <img src=""images/causal_sequence/museum_causal/museum_causal_3.png"" class=""exp-image"">
                    <div class=""question-area""></div> 
                </div>","null","","","","","","","","","","","",""
"","","","","","html-button-response","106","352929","0.0-106.0","AE8575E87DCF46DB9C086345F1D8748F","019cfc9b-ed8a-7aa3-9065-4eb0dc2b93fd","019cfc7b-6c7b-7b1b-afe7-acad8efc6711","","2471","
                <div class=""stimulus-container"">
                    <img src=""images/causal_sequence/museum_causal/museum_causal_3.png"" class=""exp-image"">
                    <div class=""question-area"">
                        <p style=""font-size: 20px; font-weight: bold; margin: 0;"">Is there a person in this image?</p>
                    </div>
                </div>","0","main_experiment_trial","3","museum_causal","causal_sequence","chronological","","","","","","",""
"","","","","","html-keyboard-response","107","357930","0.0-107.0","AE8575E87DCF46DB9C086345F1D8748F","019cfc9b-ed8a-7aa3-9065-4eb0dc2b93fd","019cfc7b-6c7b-7b1b-afe7-acad8efc6711","","null","
                <div class=""stimulus-container"">
                    <img src=""images/causal_sequence/museum_causal/museum_causal_4.png"" class=""exp-image"">
                    <div class=""question-area""></div> 
                </div>","null","","","","","","","","","","","",""
"","","","","","html-button-response","108","359441","0.0-108.0","AE8575E87DCF46DB9C086345F1D8748F","019cfc9b-ed8a-7aa3-9065-4eb0dc2b93fd","019cfc7b-6c7b-7b1b-afe7-acad8efc6711","","1510","
                <div class=""stimulus-container"">
                    <img src=""images/causal_sequence/museum_causal/museum_causal_4.png"" class=""exp-image"">
                    <div class=""question-area"">
                        <p style=""font-size: 20px; font-weight: bold; margin: 0;"">Is there a person in this image?</p>
                    </div>
                </div>","1","main_experiment_trial","4","museum_causal","causal_sequence","chronological","","","","","","",""
"","","","","","html-keyboard-response","109","364449","0.0-109.0","AE8575E87DCF46DB9C086345F1D8748F","019cfc9b-ed8a-7aa3-9065-4eb0dc2b93fd","019cfc7b-6c7b-7b1b-afe7-acad8efc6711","","null","
                <div class=""stimulus-container"">
                    <img src=""images/causal_sequence/museum_causal/museum_causal_5.png"" class=""exp-image"">
                    <div class=""question-area""></div> 
                </div>","null","","","","","","","","","","","",""
"","","","","","html-button-response","110","365873","0.0-110.0","AE8575E87DCF46DB9C086345F1D8748F","019cfc9b-ed8a-7aa3-9065-4eb0dc2b93fd","019cfc7b-6c7b-7b1b-afe7-acad8efc6711","","1423","
                <div class=""stimulus-container"">
                    <img src=""images/causal_sequence/museum_causal/museum_causal_5.png"" class=""exp-image"">
                    <div class=""question-area"">
                        <p style=""font-size: 20px; font-weight: bold; margin: 0;"">Is there a person in this image?</p>
                    </div>
                </div>","0","main_experiment_trial","5","museum_causal","causal_sequence","chronological","","","","","","",""
"","","","","","html-keyboard-response","111","370880","0.0-111.0","AE8575E87DCF46DB9C086345F1D8748F","019cfc9b-ed8a-7aa3-9065-4eb0dc2b93fd","019cfc7b-6c7b-7b1b-afe7-acad8efc6711","","null","
                <div class=""stimulus-container"">
                    <img src=""images/causal_sequence/museum_causal/museum_causal_6.png"" class=""exp-image"">
                    <div class=""question-area""></div> 
                </div>","null","","","","","","","","","","","",""
"","","","","","html-button-response","112","371545","0.0-112.0","AE8575E87DCF46DB9C086345F1D8748F","019cfc9b-ed8a-7aa3-9065-4eb0dc2b93fd","019cfc7b-6c7b-7b1b-afe7-acad8efc6711","","664","
                <div class=""stimulus-container"">
                    <img src=""images/causal_sequence/museum_causal/museum_causal_6.png"" class=""exp-image"">
                    <div class=""question-area"">
                        <p style=""font-size: 20px; font-weight: bold; margin: 0;"">Is there a person in this image?</p>
                    </div>
                </div>","0","main_experiment_trial","6","museum_causal","causal_sequence","chronological","","","","","","",""
"","","","","","html-keyboard-response","113","376546","0.0-113.0","AE8575E87DCF46DB9C086345F1D8748F","019cfc9b-ed8a-7aa3-9065-4eb0dc2b93fd","019cfc7b-6c7b-7b1b-afe7-acad8efc6711","","null","
                <div class=""stimulus-container"">
                    <img src=""images/causal_sequence/museum_causal/museum_causal_7.png"" class=""exp-image"">
                    <div class=""question-area""></div> 
                </div>","null","","","","","","","","","","","",""
"","","","","","html-button-response","114","377392","0.0-114.0","AE8575E87DCF46DB9C086345F1D8748F","019cfc9b-ed8a-7aa3-9065-4eb0dc2b93fd","019cfc7b-6c7b-7b1b-afe7-acad8efc6711","","846","
                <div class=""stimulus-container"">
                    <img src=""images/causal_sequence/museum_causal/museum_causal_7.png"" class=""exp-image"">
                    <div class=""question-area"">
                        <p style=""font-size: 20px; font-weight: bold; margin: 0;"">Is there a person in this image?</p>
                    </div>
                </div>","1","main_experiment_trial","7","museum_causal","causal_sequence","chronological","","","","","","",""
"","","","","","html-keyboard-response","115","382404","0.0-115.0","AE8575E87DCF46DB9C086345F1D8748F","019cfc9b-ed8a-7aa3-9065-4eb0dc2b93fd","019cfc7b-6c7b-7b1b-afe7-acad8efc6711","","null","
                <div class=""stimulus-container"">
                    <img src=""images/causal_sequence/museum_causal/museum_causal_8.png"" class=""exp-image"">
                    <div class=""question-area""></div> 
                </div>","null","","","","","","","","","","","",""
"","","","","","html-button-response","116","383944","0.0-116.0","AE8575E87DCF46DB9C086345F1D8748F","019cfc9b-ed8a-7aa3-9065-4eb0dc2b93fd","019cfc7b-6c7b-7b1b-afe7-acad8efc6711","","1540","
                <div class=""stimulus-container"">
                    <img src=""images/causal_sequence/museum_causal/museum_causal_8.png"" class=""exp-image"">
                    <div class=""question-area"">
                        <p style=""font-size: 20px; font-weight: bold; margin: 0;"">Is there a person in this image?</p>
                    </div>
                </div>","0","main_experiment_trial","8","museum_causal","causal_sequence","chronological","","","","","","",""
"","","","","","html-keyboard-response","117","388960","0.0-117.0","AE8575E87DCF46DB9C086345F1D8748F","019cfc9b-ed8a-7aa3-9065-4eb0dc2b93fd","019cfc7b-6c7b-7b1b-afe7-acad8efc6711","","null","
                <div class=""stimulus-container"">
                    <img src=""images/causal_sequence/museum_causal/museum_causal_9.png"" class=""exp-image"">
                    <div class=""question-area""></div> 
                </div>","null","","","","","","","","","","","",""
"","","","","","html-button-response","118","389872","0.0-118.0","AE8575E87DCF46DB9C086345F1D8748F","019cfc9b-ed8a-7aa3-9065-4eb0dc2b93fd","019cfc7b-6c7b-7b1b-afe7-acad8efc6711","","912","
                <div class=""stimulus-container"">
                    <img src=""images/causal_sequence/museum_causal/museum_causal_9.png"" class=""exp-image"">
                    <div class=""question-area"">
                        <p style=""font-size: 20px; font-weight: bold; margin: 0;"">Is there a person in this image?</p>
                    </div>
                </div>","1","main_experiment_trial","9","museum_causal","causal_sequence","chronological","","","","","","",""
"","","","","","html-keyboard-response","119","394879","0.0-119.0","AE8575E87DCF46DB9C086345F1D8748F","019cfc9b-ed8a-7aa3-9065-4eb0dc2b93fd","019cfc7b-6c7b-7b1b-afe7-acad8efc6711","","null","
                <div class=""stimulus-container"">
                    <img src=""images/causal_sequence/museum_causal/museum_causal_ten.png"" class=""exp-image"">
                    <div class=""question-area""></div> 
                </div>","null","","","","","","","","","","","",""
"","","","","","html-button-response","120","395313","0.0-120.0","AE8575E87DCF46DB9C086345F1D8748F","019cfc9b-ed8a-7aa3-9065-4eb0dc2b93fd","019cfc7b-6c7b-7b1b-afe7-acad8efc6711","","433","
                <div class=""stimulus-container"">
                    <img src=""images/causal_sequence/museum_causal/museum_causal_ten.png"" class=""exp-image"">
                    <div class=""question-area"">
                        <p style=""font-size: 20px; font-weight: bold; margin: 0;"">Is there a person in this image?</p>
                    </div>
                </div>","0","main_experiment_trial","ten","museum_causal","causal_sequence","chronological","","","","","","",""
"","","","","","html-keyboard-response","121","400325","0.0-121.0","AE8575E87DCF46DB9C086345F1D8748F","019cfc9b-ed8a-7aa3-9065-4eb0dc2b93fd","019cfc7b-6c7b-7b1b-afe7-acad8efc6711","","null","<div style=""background-color: white; width: 100vw; height: 100vh;""></div>","null","","","","","","","","","","","",""
"","","","","","html-keyboard-response","122","405331","0.0-122.0","AE8575E87DCF46DB9C086345F1D8748F","019cfc9b-ed8a-7aa3-9065-4eb0dc2b93fd","019cfc7b-6c7b-7b1b-afe7-acad8efc6711","","null","
                <div class=""stimulus-container"">
                    <img src=""images/semantic_sequence/housework_semantic/housework_semantic_1.png"" class=""exp-image"">
                    <div class=""question-area""></div> 
                </div>","null","","","","","","","","","","","",""
"","","","","","html-button-response","123","406249","0.0-123.0","AE8575E87DCF46DB9C086345F1D8748F","019cfc9b-ed8a-7aa3-9065-4eb0dc2b93fd","019cfc7b-6c7b-7b1b-afe7-acad8efc6711","","917","
                <div class=""stimulus-container"">
                    <img src=""images/semantic_sequence/housework_semantic/housework_semantic_1.png"" class=""exp-image"">
                    <div class=""question-area"">
                        <p style=""font-size: 20px; font-weight: bold; margin: 0;"">Is there a person in this image?</p>
                    </div>
                </div>","0","main_experiment_trial","1","housework_semantic","semantic_sequence","chronological","","","","","","",""
"","","","","","html-keyboard-response","124","411262","0.0-124.0","AE8575E87DCF46DB9C086345F1D8748F","019cfc9b-ed8a-7aa3-9065-4eb0dc2b93fd","019cfc7b-6c7b-7b1b-afe7-acad8efc6711","","null","
                <div class=""stimulus-container"">
                    <img src=""images/semantic_sequence/housework_semantic/housework_semantic_2.png"" class=""exp-image"">
                    <div class=""question-area""></div> 
                </div>","null","","","","","","","","","","","",""
"","","","","","html-button-response","125","412880","0.0-125.0","AE8575E87DCF46DB9C086345F1D8748F","019cfc9b-ed8a-7aa3-9065-4eb0dc2b93fd","019cfc7b-6c7b-7b1b-afe7-acad8efc6711","","1617","
                <div class=""stimulus-container"">
                    <img src=""images/semantic_sequence/housework_semantic/housework_semantic_2.png"" class=""exp-image"">
                    <div class=""question-area"">
                        <p style=""font-size: 20px; font-weight: bold; margin: 0;"">Is there a person in this image?</p>
                    </div>
                </div>","0","main_experiment_trial","2","housework_semantic","semantic_sequence","chronological","","","","","","",""
"","","","","","html-keyboard-response","126","417886","0.0-126.0","AE8575E87DCF46DB9C086345F1D8748F","019cfc9b-ed8a-7aa3-9065-4eb0dc2b93fd","019cfc7b-6c7b-7b1b-afe7-acad8efc6711","","null","
                <div class=""stimulus-container"">
                    <img src=""images/semantic_sequence/housework_semantic/housework_semantic_3.png"" class=""exp-image"">
                    <div class=""question-area""></div> 
                </div>","null","","","","","","","","","","","",""
"","","","","","html-button-response","127","418400","0.0-127.0","AE8575E87DCF46DB9C086345F1D8748F","019cfc9b-ed8a-7aa3-9065-4eb0dc2b93fd","019cfc7b-6c7b-7b1b-afe7-acad8efc6711","","513","
                <div class=""stimulus-container"">
                    <img src=""images/semantic_sequence/housework_semantic/housework_semantic_3.png"" class=""exp-image"">
                    <div class=""question-area"">
                        <p style=""font-size: 20px; font-weight: bold; margin: 0;"">Is there a person in this image?</p>
                    </div>
                </div>","0","main_experiment_trial","3","housework_semantic","semantic_sequence","chronological","","","","","","",""
"","","","","","html-keyboard-response","128","423412","0.0-128.0","AE8575E87DCF46DB9C086345F1D8748F","019cfc9b-ed8a-7aa3-9065-4eb0dc2b93fd","019cfc7b-6c7b-7b1b-afe7-acad8efc6711","","null","
                <div class=""stimulus-container"">
                    <img src=""images/semantic_sequence/housework_semantic/housework_semantic_4.png"" class=""exp-image"">
                    <div class=""question-area""></div> 
                </div>","null","","","","","","","","","","","",""
"","","","","","html-button-response","129","425041","0.0-129.0","AE8575E87DCF46DB9C086345F1D8748F","019cfc9b-ed8a-7aa3-9065-4eb0dc2b93fd","019cfc7b-6c7b-7b1b-afe7-acad8efc6711","","1628","
                <div class=""stimulus-container"">
                    <img src=""images/semantic_sequence/housework_semantic/housework_semantic_4.png"" class=""exp-image"">
                    <div class=""question-area"">
                        <p style=""font-size: 20px; font-weight: bold; margin: 0;"">Is there a person in this image?</p>
                    </div>
                </div>","0","main_experiment_trial","4","housework_semantic","semantic_sequence","chronological","","","","","","",""
"","","","","","html-keyboard-response","130","430051","0.0-130.0","AE8575E87DCF46DB9C086345F1D8748F","019cfc9b-ed8a-7aa3-9065-4eb0dc2b93fd","019cfc7b-6c7b-7b1b-afe7-acad8efc6711","","null","
                <div class=""stimulus-container"">
                    <img src=""images/semantic_sequence/housework_semantic/housework_semantic_5.png"" class=""exp-image"">
                    <div class=""question-area""></div> 
                </div>","null","","","","","","","","","","","",""
"","","","","","html-button-response","131","433053","0.0-131.0","AE8575E87DCF46DB9C086345F1D8748F","019cfc9b-ed8a-7aa3-9065-4eb0dc2b93fd","019cfc7b-6c7b-7b1b-afe7-acad8efc6711","","null","
                <div class=""stimulus-container"">
                    <img src=""images/semantic_sequence/housework_semantic/housework_semantic_5.png"" class=""exp-image"">
                    <div class=""question-area"">
                        <p style=""font-size: 20px; font-weight: bold; margin: 0;"">Is there a person in this image?</p>
                    </div>
                </div>","null","main_experiment_trial","5","housework_semantic","semantic_sequence","chronological","","","","","","",""
"","","","","","html-keyboard-response","132","438066","0.0-132.0","AE8575E87DCF46DB9C086345F1D8748F","019cfc9b-ed8a-7aa3-9065-4eb0dc2b93fd","019cfc7b-6c7b-7b1b-afe7-acad8efc6711","","null","
                <div class=""stimulus-container"">
                    <img src=""images/semantic_sequence/housework_semantic/housework_semantic_6.png"" class=""exp-image"">
                    <div class=""question-area""></div> 
                </div>","null","","","","","","","","","","","",""
"","","","","","html-button-response","133","439225","0.0-133.0","AE8575E87DCF46DB9C086345F1D8748F","019cfc9b-ed8a-7aa3-9065-4eb0dc2b93fd","019cfc7b-6c7b-7b1b-afe7-acad8efc6711","","1158","
                <div class=""stimulus-container"">
                    <img src=""images/semantic_sequence/housework_semantic/housework_semantic_6.png"" class=""exp-image"">
                    <div class=""question-area"">
                        <p style=""font-size: 20px; font-weight: bold; margin: 0;"">Is there a person in this image?</p>
                    </div>
                </div>","0","main_experiment_trial","6","housework_semantic","semantic_sequence","chronological","","","","","","",""
"","","","","","html-keyboard-response","134","444239","0.0-134.0","AE8575E87DCF46DB9C086345F1D8748F","019cfc9b-ed8a-7aa3-9065-4eb0dc2b93fd","019cfc7b-6c7b-7b1b-afe7-acad8efc6711","","null","
                <div class=""stimulus-container"">
                    <img src=""images/semantic_sequence/housework_semantic/housework_semantic_7.png"" class=""exp-image"">
                    <div class=""question-area""></div> 
                </div>","null","","","","","","","","","","","",""
"","","","","","html-button-response","135","445098","0.0-135.0","AE8575E87DCF46DB9C086345F1D8748F","019cfc9b-ed8a-7aa3-9065-4eb0dc2b93fd","019cfc7b-6c7b-7b1b-afe7-acad8efc6711","","858","
                <div class=""stimulus-container"">
                    <img src=""images/semantic_sequence/housework_semantic/housework_semantic_7.png"" class=""exp-image"">
                    <div class=""question-area"">
                        <p style=""font-size: 20px; font-weight: bold; margin: 0;"">Is there a person in this image?</p>
                    </div>
                </div>","0","main_experiment_trial","7","housework_semantic","semantic_sequence","chronological","","","","","","",""
"","","","","","html-keyboard-response","136","450098","0.0-136.0","AE8575E87DCF46DB9C086345F1D8748F","019cfc9b-ed8a-7aa3-9065-4eb0dc2b93fd","019cfc7b-6c7b-7b1b-afe7-acad8efc6711","","null","
                <div class=""stimulus-container"">
                    <img src=""images/semantic_sequence/housework_semantic/housework_semantic_8.png"" class=""exp-image"">
                    <div class=""question-area""></div> 
                </div>","null","","","","","","","","","","","",""
"","","","","","html-button-response","137","453103","0.0-137.0","AE8575E87DCF46DB9C086345F1D8748F","019cfc9b-ed8a-7aa3-9065-4eb0dc2b93fd","019cfc7b-6c7b-7b1b-afe7-acad8efc6711","","null","
                <div class=""stimulus-container"">
                    <img src=""images/semantic_sequence/housework_semantic/housework_semantic_8.png"" class=""exp-image"">
                    <div class=""question-area"">
                        <p style=""font-size: 20px; font-weight: bold; margin: 0;"">Is there a person in this image?</p>
                    </div>
                </div>","null","main_experiment_trial","8","housework_semantic","semantic_sequence","chronological","","","","","","",""
"","","","","","html-keyboard-response","138","458121","0.0-138.0","AE8575E87DCF46DB9C086345F1D8748F","019cfc9b-ed8a-7aa3-9065-4eb0dc2b93fd","019cfc7b-6c7b-7b1b-afe7-acad8efc6711","","null","
                <div class=""stimulus-container"">
                    <img src=""images/semantic_sequence/housework_semantic/housework_semantic_9.png"" class=""exp-image"">
                    <div class=""question-area""></div> 
                </div>","null","","","","","","","","","","","",""
"","","","","","html-button-response","139","461127","0.0-139.0","AE8575E87DCF46DB9C086345F1D8748F","019cfc9b-ed8a-7aa3-9065-4eb0dc2b93fd","019cfc7b-6c7b-7b1b-afe7-acad8efc6711","","null","
                <div class=""stimulus-container"">
                    <img src=""images/semantic_sequence/housework_semantic/housework_semantic_9.png"" class=""exp-image"">
                    <div class=""question-area"">
                        <p style=""font-size: 20px; font-weight: bold; margin: 0;"">Is there a person in this image?</p>
                    </div>
                </div>","null","main_experiment_trial","9","housework_semantic","semantic_sequence","chronological","","","","","","",""
"","","","","","html-keyboard-response","140","466133","0.0-140.0","AE8575E87DCF46DB9C086345F1D8748F","019cfc9b-ed8a-7aa3-9065-4eb0dc2b93fd","019cfc7b-6c7b-7b1b-afe7-acad8efc6711","","null","
                <div class=""stimulus-container"">
                    <img src=""images/semantic_sequence/housework_semantic/housework_semantic_ten.png"" class=""exp-image"">
                    <div class=""question-area""></div> 
                </div>","null","","","","","","","","","","","",""
"","","","","","html-button-response","141","466626","0.0-141.0","AE8575E87DCF46DB9C086345F1D8748F","019cfc9b-ed8a-7aa3-9065-4eb0dc2b93fd","019cfc7b-6c7b-7b1b-afe7-acad8efc6711","","492","
                <div class=""stimulus-container"">
                    <img src=""images/semantic_sequence/housework_semantic/housework_semantic_ten.png"" class=""exp-image"">
                    <div class=""question-area"">
                        <p style=""font-size: 20px; font-weight: bold; margin: 0;"">Is there a person in this image?</p>
                    </div>
                </div>","0","main_experiment_trial","ten","housework_semantic","semantic_sequence","chronological","","","","","","",""
"","","","","","html-keyboard-response","142","471639","0.0-142.0","AE8575E87DCF46DB9C086345F1D8748F","019cfc9b-ed8a-7aa3-9065-4eb0dc2b93fd","019cfc7b-6c7b-7b1b-afe7-acad8efc6711","","null","<div style=""background-color: white; width: 100vw; height: 100vh;""></div>","null","","","","","","","","","","","",""
"","","","","","html-keyboard-response","143","476641","0.0-143.0","AE8575E87DCF46DB9C086345F1D8748F","019cfc9b-ed8a-7aa3-9065-4eb0dc2b93fd","019cfc7b-6c7b-7b1b-afe7-acad8efc6711","","null","
                <div class=""stimulus-container"">
                    <img src=""images/causal_sequence/the_performance_causal/the_performance_causal_1.png"" class=""exp-image"">
                    <div class=""question-area""></div> 
                </div>","null","","","","","","","","","","","",""
"","","","","","html-button-response","144","479346","0.0-144.0","AE8575E87DCF46DB9C086345F1D8748F","019cfc9b-ed8a-7aa3-9065-4eb0dc2b93fd","019cfc7b-6c7b-7b1b-afe7-acad8efc6711","","2703","
                <div class=""stimulus-container"">
                    <img src=""images/causal_sequence/the_performance_causal/the_performance_causal_1.png"" class=""exp-image"">
                    <div class=""question-area"">
                        <p style=""font-size: 20px; font-weight: bold; margin: 0;"">Is there a person in this image?</p>
                    </div>
                </div>","0","main_experiment_trial","1","the_performance_causal","causal_sequence","chronological","","","","","","",""
"","","","","","html-keyboard-response","145","484362","0.0-145.0","AE8575E87DCF46DB9C086345F1D8748F","019cfc9b-ed8a-7aa3-9065-4eb0dc2b93fd","019cfc7b-6c7b-7b1b-afe7-acad8efc6711","","null","
                <div class=""stimulus-container"">
                    <img src=""images/causal_sequence/the_performance_causal/the_performance_causal_2.png"" class=""exp-image"">
                    <div class=""question-area""></div> 
                </div>","null","","","","","","","","","","","",""
"","","","","","html-button-response","146","485593","0.0-146.0","AE8575E87DCF46DB9C086345F1D8748F","019cfc9b-ed8a-7aa3-9065-4eb0dc2b93fd","019cfc7b-6c7b-7b1b-afe7-acad8efc6711","","1231","
                <div class=""stimulus-container"">
                    <img src=""images/causal_sequence/the_performance_causal/the_performance_causal_2.png"" class=""exp-image"">
                    <div class=""question-area"">
                        <p style=""font-size: 20px; font-weight: bold; margin: 0;"">Is there a person in this image?</p>
                    </div>
                </div>","0","main_experiment_trial","2","the_performance_causal","causal_sequence","chronological","","","","","","",""
"","","","","","html-keyboard-response","147","490607","0.0-147.0","AE8575E87DCF46DB9C086345F1D8748F","019cfc9b-ed8a-7aa3-9065-4eb0dc2b93fd","019cfc7b-6c7b-7b1b-afe7-acad8efc6711","","null","
                <div class=""stimulus-container"">
                    <img src=""images/causal_sequence/the_performance_causal/the_performance_causal_3.png"" class=""exp-image"">
                    <div class=""question-area""></div> 
                </div>","null","","","","","","","","","","","",""
"","","","","","html-button-response","148","493612","0.0-148.0","AE8575E87DCF46DB9C086345F1D8748F","019cfc9b-ed8a-7aa3-9065-4eb0dc2b93fd","019cfc7b-6c7b-7b1b-afe7-acad8efc6711","","null","
                <div class=""stimulus-container"">
                    <img src=""images/causal_sequence/the_performance_causal/the_performance_causal_3.png"" class=""exp-image"">
                    <div class=""question-area"">
                        <p style=""font-size: 20px; font-weight: bold; margin: 0;"">Is there a person in this image?</p>
                    </div>
                </div>","null","main_experiment_trial","3","the_performance_causal","causal_sequence","chronological","","","","","","",""
"","","","","","html-keyboard-response","149","498620","0.0-149.0","AE8575E87DCF46DB9C086345F1D8748F","019cfc9b-ed8a-7aa3-9065-4eb0dc2b93fd","019cfc7b-6c7b-7b1b-afe7-acad8efc6711","","null","
                <div class=""stimulus-container"">
                    <img src=""images/causal_sequence/the_performance_causal/the_performance_causal_4.png"" class=""exp-image"">
                    <div class=""question-area""></div> 
                </div>","null","","","","","","","","","","","",""
"","","","","","html-button-response","150","499186","0.0-150.0","AE8575E87DCF46DB9C086345F1D8748F","019cfc9b-ed8a-7aa3-9065-4eb0dc2b93fd","019cfc7b-6c7b-7b1b-afe7-acad8efc6711","","565","
                <div class=""stimulus-container"">
                    <img src=""images/causal_sequence/the_performance_causal/the_performance_causal_4.png"" class=""exp-image"">
                    <div class=""question-area"">
                        <p style=""font-size: 20px; font-weight: bold; margin: 0;"">Is there a person in this image?</p>
                    </div>
                </div>","0","main_experiment_trial","4","the_performance_causal","causal_sequence","chronological","","","","","","",""
"","","","","","html-keyboard-response","151","504188","0.0-151.0","AE8575E87DCF46DB9C086345F1D8748F","019cfc9b-ed8a-7aa3-9065-4eb0dc2b93fd","019cfc7b-6c7b-7b1b-afe7-acad8efc6711","","null","
                <div class=""stimulus-container"">
                    <img src=""images/causal_sequence/the_performance_causal/the_performance_causal_5.png"" class=""exp-image"">
                    <div class=""question-area""></div> 
                </div>","null","","","","","","","","","","","",""
"","","","","","html-button-response","152","506698","0.0-152.0","AE8575E87DCF46DB9C086345F1D8748F","019cfc9b-ed8a-7aa3-9065-4eb0dc2b93fd","019cfc7b-6c7b-7b1b-afe7-acad8efc6711","","2509","
                <div class=""stimulus-container"">
                    <img src=""images/causal_sequence/the_performance_causal/the_performance_causal_5.png"" class=""exp-image"">
                    <div class=""question-area"">
                        <p style=""font-size: 20px; font-weight: bold; margin: 0;"">Is there a person in this image?</p>
                    </div>
                </div>","0","main_experiment_trial","5","the_performance_causal","causal_sequence","chronological","","","","","","",""
"","","","","","html-keyboard-response","153","511706","0.0-153.0","AE8575E87DCF46DB9C086345F1D8748F","019cfc9b-ed8a-7aa3-9065-4eb0dc2b93fd","019cfc7b-6c7b-7b1b-afe7-acad8efc6711","","null","
                <div class=""stimulus-container"">
                    <img src=""images/causal_sequence/the_performance_causal/the_performance_causal_6.png"" class=""exp-image"">
                    <div class=""question-area""></div> 
                </div>","null","","","","","","","","","","","",""
"","","","","","html-button-response","154","512832","0.0-154.0","AE8575E87DCF46DB9C086345F1D8748F","019cfc9b-ed8a-7aa3-9065-4eb0dc2b93fd","019cfc7b-6c7b-7b1b-afe7-acad8efc6711","","1125","
                <div class=""stimulus-container"">
                    <img src=""images/causal_sequence/the_performance_causal/the_performance_causal_6.png"" class=""exp-image"">
                    <div class=""question-area"">
                        <p style=""font-size: 20px; font-weight: bold; margin: 0;"">Is there a person in this image?</p>
                    </div>
                </div>","0","main_experiment_trial","6","the_performance_causal","causal_sequence","chronological","","","","","","",""
"","","","","","html-keyboard-response","155","517842","0.0-155.0","AE8575E87DCF46DB9C086345F1D8748F","019cfc9b-ed8a-7aa3-9065-4eb0dc2b93fd","019cfc7b-6c7b-7b1b-afe7-acad8efc6711","","null","
                <div class=""stimulus-container"">
                    <img src=""images/causal_sequence/the_performance_causal/the_performance_causal_7.png"" class=""exp-image"">
                    <div class=""question-area""></div> 
                </div>","null","","","","","","","","","","","",""
"","","","","","html-button-response","156","518521","0.0-156.0","AE8575E87DCF46DB9C086345F1D8748F","019cfc9b-ed8a-7aa3-9065-4eb0dc2b93fd","019cfc7b-6c7b-7b1b-afe7-acad8efc6711","","678","
                <div class=""stimulus-container"">
                    <img src=""images/causal_sequence/the_performance_causal/the_performance_causal_7.png"" class=""exp-image"">
                    <div class=""question-area"">
                        <p style=""font-size: 20px; font-weight: bold; margin: 0;"">Is there a person in this image?</p>
                    </div>
                </div>","0","main_experiment_trial","7","the_performance_causal","causal_sequence","chronological","","","","","","",""
"","","","","","html-keyboard-response","157","523525","0.0-157.0","AE8575E87DCF46DB9C086345F1D8748F","019cfc9b-ed8a-7aa3-9065-4eb0dc2b93fd","019cfc7b-6c7b-7b1b-afe7-acad8efc6711","","null","
                <div class=""stimulus-container"">
                    <img src=""images/causal_sequence/the_performance_causal/the_performance_causal_8.png"" class=""exp-image"">
                    <div class=""question-area""></div> 
                </div>","null","","","","","","","","","","","",""
"","","","","","html-button-response","158","524482","0.0-158.0","AE8575E87DCF46DB9C086345F1D8748F","019cfc9b-ed8a-7aa3-9065-4eb0dc2b93fd","019cfc7b-6c7b-7b1b-afe7-acad8efc6711","","956","
                <div class=""stimulus-container"">
                    <img src=""images/causal_sequence/the_performance_causal/the_performance_causal_8.png"" class=""exp-image"">
                    <div class=""question-area"">
                        <p style=""font-size: 20px; font-weight: bold; margin: 0;"">Is there a person in this image?</p>
                    </div>
                </div>","0","main_experiment_trial","8","the_performance_causal","causal_sequence","chronological","","","","","","",""
"","","","","","html-keyboard-response","159","529486","0.0-159.0","AE8575E87DCF46DB9C086345F1D8748F","019cfc9b-ed8a-7aa3-9065-4eb0dc2b93fd","019cfc7b-6c7b-7b1b-afe7-acad8efc6711","","null","
                <div class=""stimulus-container"">
                    <img src=""images/causal_sequence/the_performance_causal/the_performance_causal_9.png"" class=""exp-image"">
                    <div class=""question-area""></div> 
                </div>","null","","","","","","","","","","","",""
"","","","","","html-button-response","160","530706","0.0-160.0","AE8575E87DCF46DB9C086345F1D8748F","019cfc9b-ed8a-7aa3-9065-4eb0dc2b93fd","019cfc7b-6c7b-7b1b-afe7-acad8efc6711","","1219","
                <div class=""stimulus-container"">
                    <img src=""images/causal_sequence/the_performance_causal/the_performance_causal_9.png"" class=""exp-image"">
                    <div class=""question-area"">
                        <p style=""font-size: 20px; font-weight: bold; margin: 0;"">Is there a person in this image?</p>
                    </div>
                </div>","0","main_experiment_trial","9","the_performance_causal","causal_sequence","chronological","","","","","","",""
"","","","","","html-keyboard-response","161","535717","0.0-161.0","AE8575E87DCF46DB9C086345F1D8748F","019cfc9b-ed8a-7aa3-9065-4eb0dc2b93fd","019cfc7b-6c7b-7b1b-afe7-acad8efc6711","","null","
                <div class=""stimulus-container"">
                    <img src=""images/causal_sequence/the_performance_causal/the_performance_causal_ten.png"" class=""exp-image"">
                    <div class=""question-area""></div> 
                </div>","null","","","","","","","","","","","",""
"","","","","","html-button-response","162","538722","0.0-162.0","AE8575E87DCF46DB9C086345F1D8748F","019cfc9b-ed8a-7aa3-9065-4eb0dc2b93fd","019cfc7b-6c7b-7b1b-afe7-acad8efc6711","","null","
                <div class=""stimulus-container"">
                    <img src=""images/causal_sequence/the_performance_causal/the_performance_causal_ten.png"" class=""exp-image"">
                    <div class=""question-area"">
                        <p style=""font-size: 20px; font-weight: bold; margin: 0;"">Is there a person in this image?</p>
                    </div>
                </div>","null","main_experiment_trial","ten","the_performance_causal","causal_sequence","chronological","","","","","","",""
"","","","","","html-keyboard-response","163","543725","0.0-163.0","AE8575E87DCF46DB9C086345F1D8748F","019cfc9b-ed8a-7aa3-9065-4eb0dc2b93fd","019cfc7b-6c7b-7b1b-afe7-acad8efc6711","","null","<div style=""background-color: white; width: 100vw; height: 100vh;""></div>","null","","","","","","","","","","","",""
"","","","","","html-keyboard-response","164","548732","0.0-164.0","AE8575E87DCF46DB9C086345F1D8748F","019cfc9b-ed8a-7aa3-9065-4eb0dc2b93fd","019cfc7b-6c7b-7b1b-afe7-acad8efc6711","","null","
                <div class=""stimulus-container"">
                    <img src=""images/causal_sequence/coin_causal/coin_causal_1.png"" class=""exp-image"">
                    <div class=""question-area""></div> 
                </div>","null","","","","","","","","","","","",""
"","","","","","html-button-response","165","550113","0.0-165.0","AE8575E87DCF46DB9C086345F1D8748F","019cfc9b-ed8a-7aa3-9065-4eb0dc2b93fd","019cfc7b-6c7b-7b1b-afe7-acad8efc6711","","1381","
                <div class=""stimulus-container"">
                    <img src=""images/causal_sequence/coin_causal/coin_causal_1.png"" class=""exp-image"">
                    <div class=""question-area"">
                        <p style=""font-size: 20px; font-weight: bold; margin: 0;"">Is there a person in this image?</p>
                    </div>
                </div>","0","main_experiment_trial","1","coin_causal","causal_sequence","chronological","","","","","","",""
"","","","","","html-keyboard-response","166","555125","0.0-166.0","AE8575E87DCF46DB9C086345F1D8748F","019cfc9b-ed8a-7aa3-9065-4eb0dc2b93fd","019cfc7b-6c7b-7b1b-afe7-acad8efc6711","","null","
                <div class=""stimulus-container"">
                    <img src=""images/causal_sequence/coin_causal/coin_causal_2.png"" class=""exp-image"">
                    <div class=""question-area""></div> 
                </div>","null","","","","","","","","","","","",""
"","","","","","html-button-response","167","555898","0.0-167.0","AE8575E87DCF46DB9C086345F1D8748F","019cfc9b-ed8a-7aa3-9065-4eb0dc2b93fd","019cfc7b-6c7b-7b1b-afe7-acad8efc6711","","772","
                <div class=""stimulus-container"">
                    <img src=""images/causal_sequence/coin_causal/coin_causal_2.png"" class=""exp-image"">
                    <div class=""question-area"">
                        <p style=""font-size: 20px; font-weight: bold; margin: 0;"">Is there a person in this image?</p>
                    </div>
                </div>","0","main_experiment_trial","2","coin_causal","causal_sequence","chronological","","","","","","",""
"","","","","","html-keyboard-response","168","560904","0.0-168.0","AE8575E87DCF46DB9C086345F1D8748F","019cfc9b-ed8a-7aa3-9065-4eb0dc2b93fd","019cfc7b-6c7b-7b1b-afe7-acad8efc6711","","null","
                <div class=""stimulus-container"">
                    <img src=""images/causal_sequence/coin_causal/coin_causal_3.png"" class=""exp-image"">
                    <div class=""question-area""></div> 
                </div>","null","","","","","","","","","","","",""
"","","","","","html-button-response","169","561626","0.0-169.0","AE8575E87DCF46DB9C086345F1D8748F","019cfc9b-ed8a-7aa3-9065-4eb0dc2b93fd","019cfc7b-6c7b-7b1b-afe7-acad8efc6711","","721","
                <div class=""stimulus-container"">
                    <img src=""images/causal_sequence/coin_causal/coin_causal_3.png"" class=""exp-image"">
                    <div class=""question-area"">
                        <p style=""font-size: 20px; font-weight: bold; margin: 0;"">Is there a person in this image?</p>
                    </div>
                </div>","0","main_experiment_trial","3","coin_causal","causal_sequence","chronological","","","","","","",""
"","","","","","html-keyboard-response","170","566634","0.0-170.0","AE8575E87DCF46DB9C086345F1D8748F","019cfc9b-ed8a-7aa3-9065-4eb0dc2b93fd","019cfc7b-6c7b-7b1b-afe7-acad8efc6711","","null","
                <div class=""stimulus-container"">
                    <img src=""images/causal_sequence/coin_causal/coin_causal_4.png"" class=""exp-image"">
                    <div class=""question-area""></div> 
                </div>","null","","","","","","","","","","","",""
"","","","","","html-button-response","171","568105","0.0-171.0","AE8575E87DCF46DB9C086345F1D8748F","019cfc9b-ed8a-7aa3-9065-4eb0dc2b93fd","019cfc7b-6c7b-7b1b-afe7-acad8efc6711","","1470","
                <div class=""stimulus-container"">
                    <img src=""images/causal_sequence/coin_causal/coin_causal_4.png"" class=""exp-image"">
                    <div class=""question-area"">
                        <p style=""font-size: 20px; font-weight: bold; margin: 0;"">Is there a person in this image?</p>
                    </div>
                </div>","0","main_experiment_trial","4","coin_causal","causal_sequence","chronological","","","","","","",""
"","","","","","html-keyboard-response","172","573109","0.0-172.0","AE8575E87DCF46DB9C086345F1D8748F","019cfc9b-ed8a-7aa3-9065-4eb0dc2b93fd","019cfc7b-6c7b-7b1b-afe7-acad8efc6711","","null","
                <div class=""stimulus-container"">
                    <img src=""images/causal_sequence/coin_causal/coin_causal_5.png"" class=""exp-image"">
                    <div class=""question-area""></div> 
                </div>","null","","","","","","","","","","","",""
"","","","","","html-button-response","173","574626","0.0-173.0","AE8575E87DCF46DB9C086345F1D8748F","019cfc9b-ed8a-7aa3-9065-4eb0dc2b93fd","019cfc7b-6c7b-7b1b-afe7-acad8efc6711","","1517","
                <div class=""stimulus-container"">
                    <img src=""images/causal_sequence/coin_causal/coin_causal_5.png"" class=""exp-image"">
                    <div class=""question-area"">
                        <p style=""font-size: 20px; font-weight: bold; margin: 0;"">Is there a person in this image?</p>
                    </div>
                </div>","0","main_experiment_trial","5","coin_causal","causal_sequence","chronological","","","","","","",""
"","","","","","html-keyboard-response","174","579633","0.0-174.0","AE8575E87DCF46DB9C086345F1D8748F","019cfc9b-ed8a-7aa3-9065-4eb0dc2b93fd","019cfc7b-6c7b-7b1b-afe7-acad8efc6711","","null","
                <div class=""stimulus-container"">
                    <img src=""images/causal_sequence/coin_causal/coin_causal_6.png"" class=""exp-image"">
                    <div class=""question-area""></div> 
                </div>","null","","","","","","","","","","","",""
"","","","","","html-button-response","175","580371","0.0-175.0","AE8575E87DCF46DB9C086345F1D8748F","019cfc9b-ed8a-7aa3-9065-4eb0dc2b93fd","019cfc7b-6c7b-7b1b-afe7-acad8efc6711","","737","
                <div class=""stimulus-container"">
                    <img src=""images/causal_sequence/coin_causal/coin_causal_6.png"" class=""exp-image"">
                    <div class=""question-area"">
                        <p style=""font-size: 20px; font-weight: bold; margin: 0;"">Is there a person in this image?</p>
                    </div>
                </div>","0","main_experiment_trial","6","coin_causal","causal_sequence","chronological","","","","","","",""
"","","","","","html-keyboard-response","176","585377","0.0-176.0","AE8575E87DCF46DB9C086345F1D8748F","019cfc9b-ed8a-7aa3-9065-4eb0dc2b93fd","019cfc7b-6c7b-7b1b-afe7-acad8efc6711","","null","
                <div class=""stimulus-container"">
                    <img src=""images/causal_sequence/coin_causal/coin_causal_7.png"" class=""exp-image"">
                    <div class=""question-area""></div> 
                </div>","null","","","","","","","","","","","",""
"","","","","","html-button-response","177","585803","0.0-177.0","AE8575E87DCF46DB9C086345F1D8748F","019cfc9b-ed8a-7aa3-9065-4eb0dc2b93fd","019cfc7b-6c7b-7b1b-afe7-acad8efc6711","","425","
                <div class=""stimulus-container"">
