"success","timeout","failed_images","failed_audio","failed_video","trial_type","trial_index","time_elapsed","internal_node_id","subject_id","study_id","session_id","view_history","rt","stimulus","response","task","image_index","folder","sequence_type","presentation_order","valuable_image_index","reward_type","correct_choice","chosen_image_index","target_X"
"true","false","[]","[]","[]","preload","0","4946","0.0-0.0","45E4350FB3BD4822A222C9615DB454A6","019cf9ca-c06b-7bf6-94a4-1c97b51bf173","019cf9ba-391a-7c7b-96b9-3757895c469c","","","","","","","","","","","","","",""
"","","","","","instructions","1","6670","0.0-1.0","45E4350FB3BD4822A222C9615DB454A6","019cf9ca-c06b-7bf6-94a4-1c97b51bf173","019cf9ba-391a-7c7b-96b9-3757895c469c","[{""page_index"":0,""viewing_time"":1723}]","1723","","","","","","","","","","","",""
"","","","","","instructions","2","8765","0.0-2.0","45E4350FB3BD4822A222C9615DB454A6","019cf9ca-c06b-7bf6-94a4-1c97b51bf173","019cf9ba-391a-7c7b-96b9-3757895c469c","[{""page_index"":0,""viewing_time"":2093}]","2094","","","","","","","","","","","",""
"true","","","","","fullscreen","3","11057","0.0-3.0","45E4350FB3BD4822A222C9615DB454A6","019cf9ca-c06b-7bf6-94a4-1c97b51bf173","019cf9ba-391a-7c7b-96b9-3757895c469c","","1286","","","","","","","","","","","",""
"","","","","","instructions","4","16709","0.0-4.0","45E4350FB3BD4822A222C9615DB454A6","019cf9ca-c06b-7bf6-94a4-1c97b51bf173","019cf9ba-391a-7c7b-96b9-3757895c469c","[{""page_index"":0,""viewing_time"":5651}]","5651","","","","","","","","","","","",""
"","","","","","instructions","5","21822","0.0-5.0","45E4350FB3BD4822A222C9615DB454A6","019cf9ca-c06b-7bf6-94a4-1c97b51bf173","019cf9ba-391a-7c7b-96b9-3757895c469c","[{""page_index"":0,""viewing_time"":5113}]","5113","","","","","","","","","","","",""
"","","","","","html-keyboard-response","6","25825","0.0-6.0","45E4350FB3BD4822A222C9615DB454A6","019cf9ca-c06b-7bf6-94a4-1c97b51bf173","019cf9ba-391a-7c7b-96b9-3757895c469c","","null","
                <div class=""stimulus-container"">
                    <img src=""images/instructions/movie_1.png"" class=""exp-image"">
                    <div class=""question-area""></div> 
                </div>","null","","","","","","","","","",""
"","","","","","html-button-response","7","28402","0.0-7.0","45E4350FB3BD4822A222C9615DB454A6","019cf9ca-c06b-7bf6-94a4-1c97b51bf173","019cf9ba-391a-7c7b-96b9-3757895c469c","","2575","
                <div class=""stimulus-container"">
                    <img src=""images/instructions/movie_1.png"" class=""exp-image"">
                    <div class=""question-area"">
                        <p style=""font-size: 20px; font-weight: bold; margin: 0;"">Was there a person in this image?</p>
                    </div>
                </div>","0","example_question","1","","","","","","","",""
"","","","","","html-keyboard-response","8","32404","0.0-8.0","45E4350FB3BD4822A222C9615DB454A6","019cf9ca-c06b-7bf6-94a4-1c97b51bf173","019cf9ba-391a-7c7b-96b9-3757895c469c","","null","
                <div class=""stimulus-container"">
                    <img src=""images/instructions/movie_2.png"" class=""exp-image"">
                    <div class=""question-area""></div> 
                </div>","null","","","","","","","","","",""
"","","","","","html-button-response","9","33599","0.0-9.0","45E4350FB3BD4822A222C9615DB454A6","019cf9ca-c06b-7bf6-94a4-1c97b51bf173","019cf9ba-391a-7c7b-96b9-3757895c469c","","1194","
                <div class=""stimulus-container"">
                    <img src=""images/instructions/movie_2.png"" class=""exp-image"">
                    <div class=""question-area"">
                        <p style=""font-size: 20px; font-weight: bold; margin: 0;"">Was there a person in this image?</p>
                    </div>
                </div>","1","example_question","2","","","","","","","",""
"","","","","","html-keyboard-response","10","37601","0.0-10.0","45E4350FB3BD4822A222C9615DB454A6","019cf9ca-c06b-7bf6-94a4-1c97b51bf173","019cf9ba-391a-7c7b-96b9-3757895c469c","","null","
                <div class=""stimulus-container"">
                    <img src=""images/instructions/movie_3.png"" class=""exp-image"">
                    <div class=""question-area""></div> 
                </div>","null","","","","","","","","","",""
"","","","","","html-button-response","11","38809","0.0-11.0","45E4350FB3BD4822A222C9615DB454A6","019cf9ca-c06b-7bf6-94a4-1c97b51bf173","019cf9ba-391a-7c7b-96b9-3757895c469c","","1206","
                <div class=""stimulus-container"">
                    <img src=""images/instructions/movie_3.png"" class=""exp-image"">
                    <div class=""question-area"">
                        <p style=""font-size: 20px; font-weight: bold; margin: 0;"">Was there a person in this image?</p>
                    </div>
                </div>","0","example_question","3","","","","","","","",""
"","","","","","html-keyboard-response","12","42810","0.0-12.0","45E4350FB3BD4822A222C9615DB454A6","019cf9ca-c06b-7bf6-94a4-1c97b51bf173","019cf9ba-391a-7c7b-96b9-3757895c469c","","null","
                <div class=""stimulus-container"">
                    <img src=""images/instructions/movie_4.png"" class=""exp-image"">
                    <div class=""question-area""></div> 
                </div>","null","","","","","","","","","",""
"","","","","","html-button-response","13","43429","0.0-13.0","45E4350FB3BD4822A222C9615DB454A6","019cf9ca-c06b-7bf6-94a4-1c97b51bf173","019cf9ba-391a-7c7b-96b9-3757895c469c","","617","
                <div class=""stimulus-container"">
                    <img src=""images/instructions/movie_4.png"" class=""exp-image"">
                    <div class=""question-area"">
                        <p style=""font-size: 20px; font-weight: bold; margin: 0;"">Was there a person in this image?</p>
                    </div>
                </div>","0","example_question","4","","","","","","","",""
"","","","","","instructions","14","44951","0.0-14.0","45E4350FB3BD4822A222C9615DB454A6","019cf9ca-c06b-7bf6-94a4-1c97b51bf173","019cf9ba-391a-7c7b-96b9-3757895c469c","[{""page_index"":0,""viewing_time"":1521}]","1522","","","","","","","","","","","",""
"","","","","","instructions","15","53397","0.0-15.0","45E4350FB3BD4822A222C9615DB454A6","019cf9ca-c06b-7bf6-94a4-1c97b51bf173","019cf9ba-391a-7c7b-96b9-3757895c469c","[{""page_index"":0,""viewing_time"":8443}]","8443","","","","","","","","","","","",""
"","","","","","html-keyboard-response","16","58400","0.0-16.0","45E4350FB3BD4822A222C9615DB454A6","019cf9ca-c06b-7bf6-94a4-1c97b51bf173","019cf9ba-391a-7c7b-96b9-3757895c469c","","null","<div style=""background-color: white; width: 100vw; height: 100vh;""></div>","null","","","","","","","","","",""
"","","","","","html-keyboard-response","17","59402","0.0-17.0","45E4350FB3BD4822A222C9615DB454A6","019cf9ca-c06b-7bf6-94a4-1c97b51bf173","019cf9ba-391a-7c7b-96b9-3757895c469c","","null","
                <div class=""stimulus-container"">
                    <img src=""images/causal_sequence/saving_a_cat_causal/saving_a_cat_causal_2.png"" class=""exp-image"">
                    <div class=""question-area""></div> 
                </div>","null","","","","","","","","","",""
"","","","","","html-button-response","18","62405","0.0-18.0","45E4350FB3BD4822A222C9615DB454A6","019cf9ca-c06b-7bf6-94a4-1c97b51bf173","019cf9ba-391a-7c7b-96b9-3757895c469c","","null","
                <div class=""stimulus-container"">
                    <img src=""images/causal_sequence/saving_a_cat_causal/saving_a_cat_causal_2.png"" class=""exp-image"">
                    <div class=""question-area"">
                        <p style=""font-size: 20px; font-weight: bold; margin: 0;"">Is there a person in this image?</p>
                    </div>
                </div>","null","main_experiment_trial","2","saving_a_cat_causal","causal_sequence","randomized","","","","",""
"","","","","","html-keyboard-response","19","63406","0.0-19.0","45E4350FB3BD4822A222C9615DB454A6","019cf9ca-c06b-7bf6-94a4-1c97b51bf173","019cf9ba-391a-7c7b-96b9-3757895c469c","","null","
                <div class=""stimulus-container"">
                    <img src=""images/causal_sequence/saving_a_cat_causal/saving_a_cat_causal_ten.png"" class=""exp-image"">
                    <div class=""question-area""></div> 
                </div>","null","","","","","","","","","",""
"","","","","","html-button-response","20","64187","0.0-20.0","45E4350FB3BD4822A222C9615DB454A6","019cf9ca-c06b-7bf6-94a4-1c97b51bf173","019cf9ba-391a-7c7b-96b9-3757895c469c","","779","
                <div class=""stimulus-container"">
                    <img src=""images/causal_sequence/saving_a_cat_causal/saving_a_cat_causal_ten.png"" class=""exp-image"">
                    <div class=""question-area"">
                        <p style=""font-size: 20px; font-weight: bold; margin: 0;"">Is there a person in this image?</p>
                    </div>
                </div>","0","main_experiment_trial","ten","saving_a_cat_causal","causal_sequence","randomized","","","","",""
"","","","","","html-keyboard-response","21","65189","0.0-21.0","45E4350FB3BD4822A222C9615DB454A6","019cf9ca-c06b-7bf6-94a4-1c97b51bf173","019cf9ba-391a-7c7b-96b9-3757895c469c","","null","
                <div class=""stimulus-container"">
                    <img src=""images/causal_sequence/saving_a_cat_causal/saving_a_cat_causal_5.png"" class=""exp-image"">
                    <div class=""question-area""></div> 
                </div>","null","","","","","","","","","",""
"","","","","","html-button-response","22","65629","0.0-22.0","45E4350FB3BD4822A222C9615DB454A6","019cf9ca-c06b-7bf6-94a4-1c97b51bf173","019cf9ba-391a-7c7b-96b9-3757895c469c","","439","
                <div class=""stimulus-container"">
                    <img src=""images/causal_sequence/saving_a_cat_causal/saving_a_cat_causal_5.png"" class=""exp-image"">
                    <div class=""question-area"">
                        <p style=""font-size: 20px; font-weight: bold; margin: 0;"">Is there a person in this image?</p>
                    </div>
                </div>","0","main_experiment_trial","5","saving_a_cat_causal","causal_sequence","randomized","","","","",""
"","","","","","html-keyboard-response","23","66632","0.0-23.0","45E4350FB3BD4822A222C9615DB454A6","019cf9ca-c06b-7bf6-94a4-1c97b51bf173","019cf9ba-391a-7c7b-96b9-3757895c469c","","null","
                <div class=""stimulus-container"">
                    <img src=""images/causal_sequence/saving_a_cat_causal/saving_a_cat_causal_8.png"" class=""exp-image"">
                    <div class=""question-area""></div> 
                </div>","null","","","","","","","","","",""
"","","","","","html-button-response","24","67387","0.0-24.0","45E4350FB3BD4822A222C9615DB454A6","019cf9ca-c06b-7bf6-94a4-1c97b51bf173","019cf9ba-391a-7c7b-96b9-3757895c469c","","753","
                <div class=""stimulus-container"">
                    <img src=""images/causal_sequence/saving_a_cat_causal/saving_a_cat_causal_8.png"" class=""exp-image"">
                    <div class=""question-area"">
                        <p style=""font-size: 20px; font-weight: bold; margin: 0;"">Is there a person in this image?</p>
                    </div>
                </div>","0","main_experiment_trial","8","saving_a_cat_causal","causal_sequence","randomized","","","","",""
"","","","","","html-keyboard-response","25","68390","0.0-25.0","45E4350FB3BD4822A222C9615DB454A6","019cf9ca-c06b-7bf6-94a4-1c97b51bf173","019cf9ba-391a-7c7b-96b9-3757895c469c","","null","
                <div class=""stimulus-container"">
                    <img src=""images/causal_sequence/saving_a_cat_causal/saving_a_cat_causal_6.png"" class=""exp-image"">
                    <div class=""question-area""></div> 
                </div>","null","","","","","","","","","",""
"","","","","","html-button-response","26","71392","0.0-26.0","45E4350FB3BD4822A222C9615DB454A6","019cf9ca-c06b-7bf6-94a4-1c97b51bf173","019cf9ba-391a-7c7b-96b9-3757895c469c","","null","
                <div class=""stimulus-container"">
                    <img src=""images/causal_sequence/saving_a_cat_causal/saving_a_cat_causal_6.png"" class=""exp-image"">
                    <div class=""question-area"">
                        <p style=""font-size: 20px; font-weight: bold; margin: 0;"">Is there a person in this image?</p>
                    </div>
                </div>","null","main_experiment_trial","6","saving_a_cat_causal","causal_sequence","randomized","","","","",""
"","","","","","html-keyboard-response","27","72393","0.0-27.0","45E4350FB3BD4822A222C9615DB454A6","019cf9ca-c06b-7bf6-94a4-1c97b51bf173","019cf9ba-391a-7c7b-96b9-3757895c469c","","null","
                <div class=""stimulus-container"">
                    <img src=""images/causal_sequence/saving_a_cat_causal/saving_a_cat_causal_1.png"" class=""exp-image"">
                    <div class=""question-area""></div> 
                </div>","null","","","","","","","","","",""
"","","","","","html-button-response","28","73368","0.0-28.0","45E4350FB3BD4822A222C9615DB454A6","019cf9ca-c06b-7bf6-94a4-1c97b51bf173","019cf9ba-391a-7c7b-96b9-3757895c469c","","974","
                <div class=""stimulus-container"">
                    <img src=""images/causal_sequence/saving_a_cat_causal/saving_a_cat_causal_1.png"" class=""exp-image"">
                    <div class=""question-area"">
                        <p style=""font-size: 20px; font-weight: bold; margin: 0;"">Is there a person in this image?</p>
                    </div>
                </div>","0","main_experiment_trial","1","saving_a_cat_causal","causal_sequence","randomized","","","","",""
"","","","","","html-keyboard-response","29","74370","0.0-29.0","45E4350FB3BD4822A222C9615DB454A6","019cf9ca-c06b-7bf6-94a4-1c97b51bf173","019cf9ba-391a-7c7b-96b9-3757895c469c","","null","
                <div class=""stimulus-container"">
                    <img src=""images/causal_sequence/saving_a_cat_causal/saving_a_cat_causal_4.png"" class=""exp-image"">
                    <div class=""question-area""></div> 
                </div>","null","","","","","","","","","",""
"","","","","","html-button-response","30","76394","0.0-30.0","45E4350FB3BD4822A222C9615DB454A6","019cf9ca-c06b-7bf6-94a4-1c97b51bf173","019cf9ba-391a-7c7b-96b9-3757895c469c","","2023","
                <div class=""stimulus-container"">
                    <img src=""images/causal_sequence/saving_a_cat_causal/saving_a_cat_causal_4.png"" class=""exp-image"">
                    <div class=""question-area"">
                        <p style=""font-size: 20px; font-weight: bold; margin: 0;"">Is there a person in this image?</p>
                    </div>
                </div>","0","main_experiment_trial","4","saving_a_cat_causal","causal_sequence","randomized","","","","",""
"","","","","","html-keyboard-response","31","77397","0.0-31.0","45E4350FB3BD4822A222C9615DB454A6","019cf9ca-c06b-7bf6-94a4-1c97b51bf173","019cf9ba-391a-7c7b-96b9-3757895c469c","","null","
                <div class=""stimulus-container"">
                    <img src=""images/causal_sequence/saving_a_cat_causal/saving_a_cat_causal_9.png"" class=""exp-image"">
                    <div class=""question-area""></div> 
                </div>","null","","","","","","","","","",""
"","","","","","html-button-response","32","78036","0.0-32.0","45E4350FB3BD4822A222C9615DB454A6","019cf9ca-c06b-7bf6-94a4-1c97b51bf173","019cf9ba-391a-7c7b-96b9-3757895c469c","","638","
                <div class=""stimulus-container"">
                    <img src=""images/causal_sequence/saving_a_cat_causal/saving_a_cat_causal_9.png"" class=""exp-image"">
                    <div class=""question-area"">
                        <p style=""font-size: 20px; font-weight: bold; margin: 0;"">Is there a person in this image?</p>
                    </div>
                </div>","0","main_experiment_trial","9","saving_a_cat_causal","causal_sequence","randomized","","","","",""
"","","","","","html-keyboard-response","33","79037","0.0-33.0","45E4350FB3BD4822A222C9615DB454A6","019cf9ca-c06b-7bf6-94a4-1c97b51bf173","019cf9ba-391a-7c7b-96b9-3757895c469c","","null","
                <div class=""stimulus-container"">
                    <img src=""images/causal_sequence/saving_a_cat_causal/saving_a_cat_causal_7.png"" class=""exp-image"">
                    <div class=""question-area""></div> 
                </div>","null","","","","","","","","","",""
"","","","","","html-button-response","34","80314","0.0-34.0","45E4350FB3BD4822A222C9615DB454A6","019cf9ca-c06b-7bf6-94a4-1c97b51bf173","019cf9ba-391a-7c7b-96b9-3757895c469c","","1275","
                <div class=""stimulus-container"">
                    <img src=""images/causal_sequence/saving_a_cat_causal/saving_a_cat_causal_7.png"" class=""exp-image"">
                    <div class=""question-area"">
                        <p style=""font-size: 20px; font-weight: bold; margin: 0;"">Is there a person in this image?</p>
                    </div>
                </div>","0","main_experiment_trial","7","saving_a_cat_causal","causal_sequence","randomized","","","","",""
"","","","","","html-keyboard-response","35","81317","0.0-35.0","45E4350FB3BD4822A222C9615DB454A6","019cf9ca-c06b-7bf6-94a4-1c97b51bf173","019cf9ba-391a-7c7b-96b9-3757895c469c","","null","
                <div class=""stimulus-container"">
                    <img src=""images/causal_sequence/saving_a_cat_causal/saving_a_cat_causal_3.png"" class=""exp-image"">
                    <div class=""question-area""></div> 
                </div>","null","","","","","","","","","",""
"","","","","","html-button-response","36","82561","0.0-36.0","45E4350FB3BD4822A222C9615DB454A6","019cf9ca-c06b-7bf6-94a4-1c97b51bf173","019cf9ba-391a-7c7b-96b9-3757895c469c","","1242","
                <div class=""stimulus-container"">
                    <img src=""images/causal_sequence/saving_a_cat_causal/saving_a_cat_causal_3.png"" class=""exp-image"">
                    <div class=""question-area"">
                        <p style=""font-size: 20px; font-weight: bold; margin: 0;"">Is there a person in this image?</p>
                    </div>
                </div>","1","main_experiment_trial","3","saving_a_cat_causal","causal_sequence","randomized","","","","",""
"","","","","","html-keyboard-response","37","87563","0.0-37.0","45E4350FB3BD4822A222C9615DB454A6","019cf9ca-c06b-7bf6-94a4-1c97b51bf173","019cf9ba-391a-7c7b-96b9-3757895c469c","","null","<div style=""background-color: white; width: 100vw; height: 100vh;""></div>","null","","","","","","","","","",""
"","","","","","html-keyboard-response","38","88565","0.0-38.0","45E4350FB3BD4822A222C9615DB454A6","019cf9ca-c06b-7bf6-94a4-1c97b51bf173","019cf9ba-391a-7c7b-96b9-3757895c469c","","null","
                <div class=""stimulus-container"">
                    <img src=""images/semantic_sequence/maintaining_a_car_semantic/maintaining_a_car_semantic_2.png"" class=""exp-image"">
                    <div class=""question-area""></div> 
                </div>","null","","","","","","","","","",""
"","","","","","html-button-response","39","89682","0.0-39.0","45E4350FB3BD4822A222C9615DB454A6","019cf9ca-c06b-7bf6-94a4-1c97b51bf173","019cf9ba-391a-7c7b-96b9-3757895c469c","","1116","
                <div class=""stimulus-container"">
                    <img src=""images/semantic_sequence/maintaining_a_car_semantic/maintaining_a_car_semantic_2.png"" class=""exp-image"">
                    <div class=""question-area"">
                        <p style=""font-size: 20px; font-weight: bold; margin: 0;"">Is there a person in this image?</p>
                    </div>
                </div>","0","main_experiment_trial","2","maintaining_a_car_semantic","semantic_sequence","randomized","","","","",""
"","","","","","html-keyboard-response","40","90685","0.0-40.0","45E4350FB3BD4822A222C9615DB454A6","019cf9ca-c06b-7bf6-94a4-1c97b51bf173","019cf9ba-391a-7c7b-96b9-3757895c469c","","null","
                <div class=""stimulus-container"">
                    <img src=""images/semantic_sequence/maintaining_a_car_semantic/maintaining_a_car_semantic_8.png"" class=""exp-image"">
                    <div class=""question-area""></div> 
                </div>","null","","","","","","","","","",""
"","","","","","html-button-response","41","91686","0.0-41.0","45E4350FB3BD4822A222C9615DB454A6","019cf9ca-c06b-7bf6-94a4-1c97b51bf173","019cf9ba-391a-7c7b-96b9-3757895c469c","","1000","
                <div class=""stimulus-container"">
                    <img src=""images/semantic_sequence/maintaining_a_car_semantic/maintaining_a_car_semantic_8.png"" class=""exp-image"">
                    <div class=""question-area"">
                        <p style=""font-size: 20px; font-weight: bold; margin: 0;"">Is there a person in this image?</p>
                    </div>
                </div>","0","main_experiment_trial","8","maintaining_a_car_semantic","semantic_sequence","randomized","","","","",""
"","","","","","html-keyboard-response","42","92688","0.0-42.0","45E4350FB3BD4822A222C9615DB454A6","019cf9ca-c06b-7bf6-94a4-1c97b51bf173","019cf9ba-391a-7c7b-96b9-3757895c469c","","null","
                <div class=""stimulus-container"">
                    <img src=""images/semantic_sequence/maintaining_a_car_semantic/maintaining_a_car_semantic_4.png"" class=""exp-image"">
                    <div class=""question-area""></div> 
                </div>","null","","","","","","","","","",""
"","","","","","html-button-response","43","93479","0.0-43.0","45E4350FB3BD4822A222C9615DB454A6","019cf9ca-c06b-7bf6-94a4-1c97b51bf173","019cf9ba-391a-7c7b-96b9-3757895c469c","","790","
                <div class=""stimulus-container"">
                    <img src=""images/semantic_sequence/maintaining_a_car_semantic/maintaining_a_car_semantic_4.png"" class=""exp-image"">
                    <div class=""question-area"">
                        <p style=""font-size: 20px; font-weight: bold; margin: 0;"">Is there a person in this image?</p>
                    </div>
                </div>","0","main_experiment_trial","4","maintaining_a_car_semantic","semantic_sequence","randomized","","","","",""
"","","","","","html-keyboard-response","44","94482","0.0-44.0","45E4350FB3BD4822A222C9615DB454A6","019cf9ca-c06b-7bf6-94a4-1c97b51bf173","019cf9ba-391a-7c7b-96b9-3757895c469c","","null","
                <div class=""stimulus-container"">
                    <img src=""images/semantic_sequence/maintaining_a_car_semantic/maintaining_a_car_semantic_7.png"" class=""exp-image"">
                    <div class=""question-area""></div> 
                </div>","null","","","","","","","","","",""
"","","","","","html-button-response","45","95638","0.0-45.0","45E4350FB3BD4822A222C9615DB454A6","019cf9ca-c06b-7bf6-94a4-1c97b51bf173","019cf9ba-391a-7c7b-96b9-3757895c469c","","1154","
                <div class=""stimulus-container"">
                    <img src=""images/semantic_sequence/maintaining_a_car_semantic/maintaining_a_car_semantic_7.png"" class=""exp-image"">
                    <div class=""question-area"">
                        <p style=""font-size: 20px; font-weight: bold; margin: 0;"">Is there a person in this image?</p>
                    </div>
                </div>","0","main_experiment_trial","7","maintaining_a_car_semantic","semantic_sequence","randomized","","","","",""
"","","","","","html-keyboard-response","46","96640","0.0-46.0","45E4350FB3BD4822A222C9615DB454A6","019cf9ca-c06b-7bf6-94a4-1c97b51bf173","019cf9ba-391a-7c7b-96b9-3757895c469c","","null","
                <div class=""stimulus-container"">
                    <img src=""images/semantic_sequence/maintaining_a_car_semantic/maintaining_a_car_semantic_5.png"" class=""exp-image"">
                    <div class=""question-area""></div> 
                </div>","null","","","","","","","","","",""
"","","","","","html-button-response","47","97578","0.0-47.0","45E4350FB3BD4822A222C9615DB454A6","019cf9ca-c06b-7bf6-94a4-1c97b51bf173","019cf9ba-391a-7c7b-96b9-3757895c469c","","937","
                <div class=""stimulus-container"">
                    <img src=""images/semantic_sequence/maintaining_a_car_semantic/maintaining_a_car_semantic_5.png"" class=""exp-image"">
                    <div class=""question-area"">
                        <p style=""font-size: 20px; font-weight: bold; margin: 0;"">Is there a person in this image?</p>
                    </div>
                </div>","0","main_experiment_trial","5","maintaining_a_car_semantic","semantic_sequence","randomized","","","","",""
"","","","","","html-keyboard-response","48","98582","0.0-48.0","45E4350FB3BD4822A222C9615DB454A6","019cf9ca-c06b-7bf6-94a4-1c97b51bf173","019cf9ba-391a-7c7b-96b9-3757895c469c","","null","
                <div class=""stimulus-container"">
                    <img src=""images/semantic_sequence/maintaining_a_car_semantic/maintaining_a_car_semantic_3.png"" class=""exp-image"">
                    <div class=""question-area""></div> 
                </div>","null","","","","","","","","","",""
"","","","","","html-button-response","49","99870","0.0-49.0","45E4350FB3BD4822A222C9615DB454A6","019cf9ca-c06b-7bf6-94a4-1c97b51bf173","019cf9ba-391a-7c7b-96b9-3757895c469c","","1287","
                <div class=""stimulus-container"">
                    <img src=""images/semantic_sequence/maintaining_a_car_semantic/maintaining_a_car_semantic_3.png"" class=""exp-image"">
                    <div class=""question-area"">
                        <p style=""font-size: 20px; font-weight: bold; margin: 0;"">Is there a person in this image?</p>
                    </div>
                </div>","0","main_experiment_trial","3","maintaining_a_car_semantic","semantic_sequence","randomized","","","","",""
"","","","","","html-keyboard-response","50","100873","0.0-50.0","45E4350FB3BD4822A222C9615DB454A6","019cf9ca-c06b-7bf6-94a4-1c97b51bf173","019cf9ba-391a-7c7b-96b9-3757895c469c","","null","
                <div class=""stimulus-container"">
                    <img src=""images/semantic_sequence/maintaining_a_car_semantic/maintaining_a_car_semantic_ten.png"" class=""exp-image"">
                    <div class=""question-area""></div> 
                </div>","null","","","","","","","","","",""
"","","","","","html-button-response","51","102352","0.0-51.0","45E4350FB3BD4822A222C9615DB454A6","019cf9ca-c06b-7bf6-94a4-1c97b51bf173","019cf9ba-391a-7c7b-96b9-3757895c469c","","1477","
                <div class=""stimulus-container"">
                    <img src=""images/semantic_sequence/maintaining_a_car_semantic/maintaining_a_car_semantic_ten.png"" class=""exp-image"">
                    <div class=""question-area"">
                        <p style=""font-size: 20px; font-weight: bold; margin: 0;"">Is there a person in this image?</p>
                    </div>
                </div>","0","main_experiment_trial","ten","maintaining_a_car_semantic","semantic_sequence","randomized","","","","",""
"","","","","","html-keyboard-response","52","103355","0.0-52.0","45E4350FB3BD4822A222C9615DB454A6","019cf9ca-c06b-7bf6-94a4-1c97b51bf173","019cf9ba-391a-7c7b-96b9-3757895c469c","","null","
                <div class=""stimulus-container"">
                    <img src=""images/semantic_sequence/maintaining_a_car_semantic/maintaining_a_car_semantic_9.png"" class=""exp-image"">
                    <div class=""question-area""></div> 
                </div>","null","","","","","","","","","",""
"","","","","","html-button-response","53","103925","0.0-53.0","45E4350FB3BD4822A222C9615DB454A6","019cf9ca-c06b-7bf6-94a4-1c97b51bf173","019cf9ba-391a-7c7b-96b9-3757895c469c","","569","
                <div class=""stimulus-container"">
                    <img src=""images/semantic_sequence/maintaining_a_car_semantic/maintaining_a_car_semantic_9.png"" class=""exp-image"">
                    <div class=""question-area"">
                        <p style=""font-size: 20px; font-weight: bold; margin: 0;"">Is there a person in this image?</p>
                    </div>
                </div>","0","main_experiment_trial","9","maintaining_a_car_semantic","semantic_sequence","randomized","","","","",""
"","","","","","html-keyboard-response","54","104927","0.0-54.0","45E4350FB3BD4822A222C9615DB454A6","019cf9ca-c06b-7bf6-94a4-1c97b51bf173","019cf9ba-391a-7c7b-96b9-3757895c469c","","null","
                <div class=""stimulus-container"">
                    <img src=""images/semantic_sequence/maintaining_a_car_semantic/maintaining_a_car_semantic_1.png"" class=""exp-image"">
                    <div class=""question-area""></div> 
                </div>","null","","","","","","","","","",""
"","","","","","html-button-response","55","105405","0.0-55.0","45E4350FB3BD4822A222C9615DB454A6","019cf9ca-c06b-7bf6-94a4-1c97b51bf173","019cf9ba-391a-7c7b-96b9-3757895c469c","","476","
                <div class=""stimulus-container"">
                    <img src=""images/semantic_sequence/maintaining_a_car_semantic/maintaining_a_car_semantic_1.png"" class=""exp-image"">
                    <div class=""question-area"">
                        <p style=""font-size: 20px; font-weight: bold; margin: 0;"">Is there a person in this image?</p>
                    </div>
                </div>","0","main_experiment_trial","1","maintaining_a_car_semantic","semantic_sequence","randomized","","","","",""
"","","","","","html-keyboard-response","56","106407","0.0-56.0","45E4350FB3BD4822A222C9615DB454A6","019cf9ca-c06b-7bf6-94a4-1c97b51bf173","019cf9ba-391a-7c7b-96b9-3757895c469c","","null","
                <div class=""stimulus-container"">
                    <img src=""images/semantic_sequence/maintaining_a_car_semantic/maintaining_a_car_semantic_6.png"" class=""exp-image"">
                    <div class=""question-area""></div> 
                </div>","null","","","","","","","","","",""
"","","","","","html-button-response","57","106848","0.0-57.0","45E4350FB3BD4822A222C9615DB454A6","019cf9ca-c06b-7bf6-94a4-1c97b51bf173","019cf9ba-391a-7c7b-96b9-3757895c469c","","439","
                <div class=""stimulus-container"">
                    <img src=""images/semantic_sequence/maintaining_a_car_semantic/maintaining_a_car_semantic_6.png"" class=""exp-image"">
                    <div class=""question-area"">
                        <p style=""font-size: 20px; font-weight: bold; margin: 0;"">Is there a person in this image?</p>
                    </div>
                </div>","0","main_experiment_trial","6","maintaining_a_car_semantic","semantic_sequence","randomized","","","","",""
"","","","","","html-keyboard-response","58","111850","0.0-58.0","45E4350FB3BD4822A222C9615DB454A6","019cf9ca-c06b-7bf6-94a4-1c97b51bf173","019cf9ba-391a-7c7b-96b9-3757895c469c","","null","<div style=""background-color: white; width: 100vw; height: 100vh;""></div>","null","","","","","","","","","",""
"","","","","","html-keyboard-response","59","112852","0.0-59.0","45E4350FB3BD4822A222C9615DB454A6","019cf9ca-c06b-7bf6-94a4-1c97b51bf173","019cf9ba-391a-7c7b-96b9-3757895c469c","","null","
                <div class=""stimulus-container"">
                    <img src=""images/causal_sequence/package_causal/package_causal_6.png"" class=""exp-image"">
                    <div class=""question-area""></div> 
                </div>","null","","","","","","","","","",""
"","","","","","html-button-response","60","114357","0.0-60.0","45E4350FB3BD4822A222C9615DB454A6","019cf9ca-c06b-7bf6-94a4-1c97b51bf173","019cf9ba-391a-7c7b-96b9-3757895c469c","","1503","
                <div class=""stimulus-container"">
                    <img src=""images/causal_sequence/package_causal/package_causal_6.png"" class=""exp-image"">
                    <div class=""question-area"">
                        <p style=""font-size: 20px; font-weight: bold; margin: 0;"">Is there a person in this image?</p>
                    </div>
                </div>","0","main_experiment_trial","6","package_causal","causal_sequence","randomized","","","","",""
"","","","","","html-keyboard-response","61","115358","0.0-61.0","45E4350FB3BD4822A222C9615DB454A6","019cf9ca-c06b-7bf6-94a4-1c97b51bf173","019cf9ba-391a-7c7b-96b9-3757895c469c","","null","
                <div class=""stimulus-container"">
                    <img src=""images/causal_sequence/package_causal/package_causal_7.png"" class=""exp-image"">
                    <div class=""question-area""></div> 
                </div>","null","","","","","","","","","",""
"","","","","","html-button-response","62","116195","0.0-62.0","45E4350FB3BD4822A222C9615DB454A6","019cf9ca-c06b-7bf6-94a4-1c97b51bf173","019cf9ba-391a-7c7b-96b9-3757895c469c","","835","
                <div class=""stimulus-container"">
                    <img src=""images/causal_sequence/package_causal/package_causal_7.png"" class=""exp-image"">
                    <div class=""question-area"">
                        <p style=""font-size: 20px; font-weight: bold; margin: 0;"">Is there a person in this image?</p>
                    </div>
                </div>","0","main_experiment_trial","7","package_causal","causal_sequence","randomized","","","","",""
"","","","","","html-keyboard-response","63","117197","0.0-63.0","45E4350FB3BD4822A222C9615DB454A6","019cf9ca-c06b-7bf6-94a4-1c97b51bf173","019cf9ba-391a-7c7b-96b9-3757895c469c","","null","
                <div class=""stimulus-container"">
                    <img src=""images/causal_sequence/package_causal/package_causal_9.png"" class=""exp-image"">
                    <div class=""question-area""></div> 
                </div>","null","","","","","","","","","",""
"","","","","","html-button-response","64","117670","0.0-64.0","45E4350FB3BD4822A222C9615DB454A6","019cf9ca-c06b-7bf6-94a4-1c97b51bf173","019cf9ba-391a-7c7b-96b9-3757895c469c","","471","
                <div class=""stimulus-container"">
                    <img src=""images/causal_sequence/package_causal/package_causal_9.png"" class=""exp-image"">
                    <div class=""question-area"">
                        <p style=""font-size: 20px; font-weight: bold; margin: 0;"">Is there a person in this image?</p>
                    </div>
                </div>","0","main_experiment_trial","9","package_causal","causal_sequence","randomized","","","","",""
"","","","","","html-keyboard-response","65","118674","0.0-65.0","45E4350FB3BD4822A222C9615DB454A6","019cf9ca-c06b-7bf6-94a4-1c97b51bf173","019cf9ba-391a-7c7b-96b9-3757895c469c","","null","
                <div class=""stimulus-container"">
                    <img src=""images/causal_sequence/package_causal/package_causal_2.png"" class=""exp-image"">
                    <div class=""question-area""></div> 
                </div>","null","","","","","","","","","",""
"","","","","","html-button-response","66","119576","0.0-66.0","45E4350FB3BD4822A222C9615DB454A6","019cf9ca-c06b-7bf6-94a4-1c97b51bf173","019cf9ba-391a-7c7b-96b9-3757895c469c","","900","
                <div class=""stimulus-container"">
                    <img src=""images/causal_sequence/package_causal/package_causal_2.png"" class=""exp-image"">
                    <div class=""question-area"">
                        <p style=""font-size: 20px; font-weight: bold; margin: 0;"">Is there a person in this image?</p>
                    </div>
                </div>","1","main_experiment_trial","2","package_causal","causal_sequence","randomized","","","","",""
"","","","","","html-keyboard-response","67","120578","0.0-67.0","45E4350FB3BD4822A222C9615DB454A6","019cf9ca-c06b-7bf6-94a4-1c97b51bf173","019cf9ba-391a-7c7b-96b9-3757895c469c","","null","
                <div class=""stimulus-container"">
                    <img src=""images/causal_sequence/package_causal/package_causal_ten.png"" class=""exp-image"">
                    <div class=""question-area""></div> 
                </div>","null","","","","","","","","","",""
"","","","","","html-button-response","68","121170","0.0-68.0","45E4350FB3BD4822A222C9615DB454A6","019cf9ca-c06b-7bf6-94a4-1c97b51bf173","019cf9ba-391a-7c7b-96b9-3757895c469c","","591","
                <div class=""stimulus-container"">
                    <img src=""images/causal_sequence/package_causal/package_causal_ten.png"" class=""exp-image"">
                    <div class=""question-area"">
                        <p style=""font-size: 20px; font-weight: bold; margin: 0;"">Is there a person in this image?</p>
                    </div>
                </div>","0","main_experiment_trial","ten","package_causal","causal_sequence","randomized","","","","",""
"","","","","","html-keyboard-response","69","122172","0.0-69.0","45E4350FB3BD4822A222C9615DB454A6","019cf9ca-c06b-7bf6-94a4-1c97b51bf173","019cf9ba-391a-7c7b-96b9-3757895c469c","","null","
                <div class=""stimulus-container"">
                    <img src=""images/causal_sequence/package_causal/package_causal_5.png"" class=""exp-image"">
                    <div class=""question-area""></div> 
                </div>","null","","","","","","","","","",""
"","","","","","html-button-response","70","122574","0.0-70.0","45E4350FB3BD4822A222C9615DB454A6","019cf9ca-c06b-7bf6-94a4-1c97b51bf173","019cf9ba-391a-7c7b-96b9-3757895c469c","","401","
                <div class=""stimulus-container"">
                    <img src=""images/causal_sequence/package_causal/package_causal_5.png"" class=""exp-image"">
                    <div class=""question-area"">
                        <p style=""font-size: 20px; font-weight: bold; margin: 0;"">Is there a person in this image?</p>
                    </div>
                </div>","0","main_experiment_trial","5","package_causal","causal_sequence","randomized","","","","",""
"","","","","","html-keyboard-response","71","123577","0.0-71.0","45E4350FB3BD4822A222C9615DB454A6","019cf9ca-c06b-7bf6-94a4-1c97b51bf173","019cf9ba-391a-7c7b-96b9-3757895c469c","","null","
                <div class=""stimulus-container"">
                    <img src=""images/causal_sequence/package_causal/package_causal_1.png"" class=""exp-image"">
                    <div class=""question-area""></div> 
                </div>","null","","","","","","","","","",""
"","","","","","html-button-response","72","123968","0.0-72.0","45E4350FB3BD4822A222C9615DB454A6","019cf9ca-c06b-7bf6-94a4-1c97b51bf173","019cf9ba-391a-7c7b-96b9-3757895c469c","","390","
                <div class=""stimulus-container"">
                    <img src=""images/causal_sequence/package_causal/package_causal_1.png"" class=""exp-image"">
                    <div class=""question-area"">
                        <p style=""font-size: 20px; font-weight: bold; margin: 0;"">Is there a person in this image?</p>
                    </div>
                </div>","0","main_experiment_trial","1","package_causal","causal_sequence","randomized","","","","",""
"","","","","","html-keyboard-response","73","124970","0.0-73.0","45E4350FB3BD4822A222C9615DB454A6","019cf9ca-c06b-7bf6-94a4-1c97b51bf173","019cf9ba-391a-7c7b-96b9-3757895c469c","","null","
                <div class=""stimulus-container"">
                    <img src=""images/causal_sequence/package_causal/package_causal_4.png"" class=""exp-image"">
                    <div class=""question-area""></div> 
                </div>","null","","","","","","","","","",""
"","","","","","html-button-response","74","126222","0.0-74.0","45E4350FB3BD4822A222C9615DB454A6","019cf9ca-c06b-7bf6-94a4-1c97b51bf173","019cf9ba-391a-7c7b-96b9-3757895c469c","","1251","
                <div class=""stimulus-container"">
                    <img src=""images/causal_sequence/package_causal/package_causal_4.png"" class=""exp-image"">
                    <div class=""question-area"">
                        <p style=""font-size: 20px; font-weight: bold; margin: 0;"">Is there a person in this image?</p>
                    </div>
                </div>","1","main_experiment_trial","4","package_causal","causal_sequence","randomized","","","","",""
"","","","","","html-keyboard-response","75","127223","0.0-75.0","45E4350FB3BD4822A222C9615DB454A6","019cf9ca-c06b-7bf6-94a4-1c97b51bf173","019cf9ba-391a-7c7b-96b9-3757895c469c","","null","
                <div class=""stimulus-container"">
                    <img src=""images/causal_sequence/package_causal/package_causal_8.png"" class=""exp-image"">
                    <div class=""question-area""></div> 
                </div>","null","","","","","","","","","",""
"","","","","","html-button-response","76","127663","0.0-76.0","45E4350FB3BD4822A222C9615DB454A6","019cf9ca-c06b-7bf6-94a4-1c97b51bf173","019cf9ba-391a-7c7b-96b9-3757895c469c","","439","
                <div class=""stimulus-container"">
                    <img src=""images/causal_sequence/package_causal/package_causal_8.png"" class=""exp-image"">
                    <div class=""question-area"">
                        <p style=""font-size: 20px; font-weight: bold; margin: 0;"">Is there a person in this image?</p>
                    </div>
                </div>","0","main_experiment_trial","8","package_causal","causal_sequence","randomized","","","","",""
"","","","","","html-keyboard-response","77","128665","0.0-77.0","45E4350FB3BD4822A222C9615DB454A6","019cf9ca-c06b-7bf6-94a4-1c97b51bf173","019cf9ba-391a-7c7b-96b9-3757895c469c","","null","
                <div class=""stimulus-container"">
                    <img src=""images/causal_sequence/package_causal/package_causal_3.png"" class=""exp-image"">
                    <div class=""question-area""></div> 
                </div>","null","","","","","","","","","",""
"","","","","","html-button-response","78","129222","0.0-78.0","45E4350FB3BD4822A222C9615DB454A6","019cf9ca-c06b-7bf6-94a4-1c97b51bf173","019cf9ba-391a-7c7b-96b9-3757895c469c","","556","
                <div class=""stimulus-container"">
                    <img src=""images/causal_sequence/package_causal/package_causal_3.png"" class=""exp-image"">
                    <div class=""question-area"">
                        <p style=""font-size: 20px; font-weight: bold; margin: 0;"">Is there a person in this image?</p>
                    </div>
                </div>","0","main_experiment_trial","3","package_causal","causal_sequence","randomized","","","","",""
"","","","","","html-keyboard-response","79","134224","0.0-79.0","45E4350FB3BD4822A222C9615DB454A6","019cf9ca-c06b-7bf6-94a4-1c97b51bf173","019cf9ba-391a-7c7b-96b9-3757895c469c","","null","<div style=""background-color: white; width: 100vw; height: 100vh;""></div>","null","","","","","","","","","",""
"","","","","","html-keyboard-response","80","135227","0.0-80.0","45E4350FB3BD4822A222C9615DB454A6","019cf9ca-c06b-7bf6-94a4-1c97b51bf173","019cf9ba-391a-7c7b-96b9-3757895c469c","","null","
                <div class=""stimulus-container"">
                    <img src=""images/causal_sequence/coin_causal/coin_causal_4.png"" class=""exp-image"">
                    <div class=""question-area""></div> 
                </div>","null","","","","","","","","","",""
"","","","","","html-button-response","81","136363","0.0-81.0","45E4350FB3BD4822A222C9615DB454A6","019cf9ca-c06b-7bf6-94a4-1c97b51bf173","019cf9ba-391a-7c7b-96b9-3757895c469c","","1134","
                <div class=""stimulus-container"">
                    <img src=""images/causal_sequence/coin_causal/coin_causal_4.png"" class=""exp-image"">
                    <div class=""question-area"">
                        <p style=""font-size: 20px; font-weight: bold; margin: 0;"">Is there a person in this image?</p>
                    </div>
                </div>","0","main_experiment_trial","4","coin_causal","causal_sequence","randomized","","","","",""
"","","","","","html-keyboard-response","82","137365","0.0-82.0","45E4350FB3BD4822A222C9615DB454A6","019cf9ca-c06b-7bf6-94a4-1c97b51bf173","019cf9ba-391a-7c7b-96b9-3757895c469c","","null","
                <div class=""stimulus-container"">
                    <img src=""images/causal_sequence/coin_causal/coin_causal_1.png"" class=""exp-image"">
                    <div class=""question-area""></div> 
                </div>","null","","","","","","","","","",""
"","","","","","html-button-response","83","139151","0.0-83.0","45E4350FB3BD4822A222C9615DB454A6","019cf9ca-c06b-7bf6-94a4-1c97b51bf173","019cf9ba-391a-7c7b-96b9-3757895c469c","","1785","
                <div class=""stimulus-container"">
                    <img src=""images/causal_sequence/coin_causal/coin_causal_1.png"" class=""exp-image"">
                    <div class=""question-area"">
                        <p style=""font-size: 20px; font-weight: bold; margin: 0;"">Is there a person in this image?</p>
                    </div>
                </div>","0","main_experiment_trial","1","coin_causal","causal_sequence","randomized","","","","",""
"","","","","","html-keyboard-response","84","140153","0.0-84.0","45E4350FB3BD4822A222C9615DB454A6","019cf9ca-c06b-7bf6-94a4-1c97b51bf173","019cf9ba-391a-7c7b-96b9-3757895c469c","","null","
                <div class=""stimulus-container"">
                    <img src=""images/causal_sequence/coin_causal/coin_causal_2.png"" class=""exp-image"">
                    <div class=""question-area""></div> 
                </div>","null","","","","","","","","","",""
"","","","","","html-button-response","85","140843","0.0-85.0","45E4350FB3BD4822A222C9615DB454A6","019cf9ca-c06b-7bf6-94a4-1c97b51bf173","019cf9ba-391a-7c7b-96b9-3757895c469c","","688","
                <div class=""stimulus-container"">
                    <img src=""images/causal_sequence/coin_causal/coin_causal_2.png"" class=""exp-image"">
                    <div class=""question-area"">
                        <p style=""font-size: 20px; font-weight: bold; margin: 0;"">Is there a person in this image?</p>
                    </div>
                </div>","0","main_experiment_trial","2","coin_causal","causal_sequence","randomized","","","","",""
"","","","","","html-keyboard-response","86","141846","0.0-86.0","45E4350FB3BD4822A222C9615DB454A6","019cf9ca-c06b-7bf6-94a4-1c97b51bf173","019cf9ba-391a-7c7b-96b9-3757895c469c","","null","
                <div class=""stimulus-container"">
                    <img src=""images/causal_sequence/coin_causal/coin_causal_6.png"" class=""exp-image"">
                    <div class=""question-area""></div> 
                </div>","null","","","","","","","","","",""
"","","","","","html-button-response","87","142408","0.0-87.0","45E4350FB3BD4822A222C9615DB454A6","019cf9ca-c06b-7bf6-94a4-1c97b51bf173","019cf9ba-391a-7c7b-96b9-3757895c469c","","560","
                <div class=""stimulus-container"">
                    <img src=""images/causal_sequence/coin_causal/coin_causal_6.png"" class=""exp-image"">
                    <div class=""question-area"">
                        <p style=""font-size: 20px; font-weight: bold; margin: 0;"">Is there a person in this image?</p>
                    </div>
                </div>","0","main_experiment_trial","6","coin_causal","causal_sequence","randomized","","","","",""
"","","","","","html-keyboard-response","88","143411","0.0-88.0","45E4350FB3BD4822A222C9615DB454A6","019cf9ca-c06b-7bf6-94a4-1c97b51bf173","019cf9ba-391a-7c7b-96b9-3757895c469c","","null","
                <div class=""stimulus-container"">
                    <img src=""images/causal_sequence/coin_causal/coin_causal_8.png"" class=""exp-image"">
                    <div class=""question-area""></div> 
                </div>","null","","","","","","","","","",""
"","","","","","html-button-response","89","143982","0.0-89.0","45E4350FB3BD4822A222C9615DB454A6","019cf9ca-c06b-7bf6-94a4-1c97b51bf173","019cf9ba-391a-7c7b-96b9-3757895c469c","","570","
                <div class=""stimulus-container"">
                    <img src=""images/causal_sequence/coin_causal/coin_causal_8.png"" class=""exp-image"">
                    <div class=""question-area"">
                        <p style=""font-size: 20px; font-weight: bold; margin: 0;"">Is there a person in this image?</p>
                    </div>
                </div>","0","main_experiment_trial","8","coin_causal","causal_sequence","randomized","","","","",""
"","","","","","html-keyboard-response","90","144985","0.0-90.0","45E4350FB3BD4822A222C9615DB454A6","019cf9ca-c06b-7bf6-94a4-1c97b51bf173","019cf9ba-391a-7c7b-96b9-3757895c469c","","null","
                <div class=""stimulus-container"">
                    <img src=""images/causal_sequence/coin_causal/coin_causal_5.png"" class=""exp-image"">
                    <div class=""question-area""></div> 
                </div>","null","","","","","","","","","",""
"","","","","","html-button-response","91","145389","0.0-91.0","45E4350FB3BD4822A222C9615DB454A6","019cf9ca-c06b-7bf6-94a4-1c97b51bf173","019cf9ba-391a-7c7b-96b9-3757895c469c","","403","
                <div class=""stimulus-container"">
                    <img src=""images/causal_sequence/coin_causal/coin_causal_5.png"" class=""exp-image"">
                    <div class=""question-area"">
                        <p style=""font-size: 20px; font-weight: bold; margin: 0;"">Is there a person in this image?</p>
                    </div>
                </div>","0","main_experiment_trial","5","coin_causal","causal_sequence","randomized","","","","",""
"","","","","","html-keyboard-response","92","146391","0.0-92.0","45E4350FB3BD4822A222C9615DB454A6","019cf9ca-c06b-7bf6-94a4-1c97b51bf173","019cf9ba-391a-7c7b-96b9-3757895c469c","","null","
                <div class=""stimulus-container"">
                    <img src=""images/causal_sequence/coin_causal/coin_causal_3.png"" class=""exp-image"">
                    <div class=""question-area""></div> 
                </div>","null","","","","","","","","","",""
"","","","","","html-button-response","93","147201","0.0-93.0","45E4350FB3BD4822A222C9615DB454A6","019cf9ca-c06b-7bf6-94a4-1c97b51bf173","019cf9ba-391a-7c7b-96b9-3757895c469c","","809","
                <div class=""stimulus-container"">
                    <img src=""images/causal_sequence/coin_causal/coin_causal_3.png"" class=""exp-image"">
                    <div class=""question-area"">
                        <p style=""font-size: 20px; font-weight: bold; margin: 0;"">Is there a person in this image?</p>
                    </div>
                </div>","0","main_experiment_trial","3","coin_causal","causal_sequence","randomized","","","","",""
"","","","","","html-keyboard-response","94","148203","0.0-94.0","45E4350FB3BD4822A222C9615DB454A6","019cf9ca-c06b-7bf6-94a4-1c97b51bf173","019cf9ba-391a-7c7b-96b9-3757895c469c","","null","
                <div class=""stimulus-container"">
                    <img src=""images/causal_sequence/coin_causal/coin_causal_7.png"" class=""exp-image"">
                    <div class=""question-area""></div> 
                </div>","null","","","","","","","","","",""
"","","","","","html-button-response","95","148842","0.0-95.0","45E4350FB3BD4822A222C9615DB454A6","019cf9ca-c06b-7bf6-94a4-1c97b51bf173","019cf9ba-391a-7c7b-96b9-3757895c469c","","637","
                <div class=""stimulus-container"">
                    <img src=""images/causal_sequence/coin_causal/coin_causal_7.png"" class=""exp-image"">
                    <div class=""question-area"">
                        <p style=""font-size: 20px; font-weight: bold; margin: 0;"">Is there a person in this image?</p>
                    </div>
                </div>","1","main_experiment_trial","7","coin_causal","causal_sequence","randomized","","","","",""
"","","","","","html-keyboard-response","96","149844","0.0-96.0","45E4350FB3BD4822A222C9615DB454A6","019cf9ca-c06b-7bf6-94a4-1c97b51bf173","019cf9ba-391a-7c7b-96b9-3757895c469c","","null","
                <div class=""stimulus-container"">
                    <img src=""images/causal_sequence/coin_causal/coin_causal_9.png"" class=""exp-image"">
                    <div class=""question-area""></div> 
                </div>","null","","","","","","","","","",""
"","","","","","html-button-response","97","150318","0.0-97.0","45E4350FB3BD4822A222C9615DB454A6","019cf9ca-c06b-7bf6-94a4-1c97b51bf173","019cf9ba-391a-7c7b-96b9-3757895c469c","","471","
                <div class=""stimulus-container"">
                    <img src=""images/causal_sequence/coin_causal/coin_causal_9.png"" class=""exp-image"">
                    <div class=""question-area"">
                        <p style=""font-size: 20px; font-weight: bold; margin: 0;"">Is there a person in this image?</p>
                    </div>
                </div>","0","main_experiment_trial","9","coin_causal","causal_sequence","randomized","","","","",""
"","","","","","html-keyboard-response","98","151320","0.0-98.0","45E4350FB3BD4822A222C9615DB454A6","019cf9ca-c06b-7bf6-94a4-1c97b51bf173","019cf9ba-391a-7c7b-96b9-3757895c469c","","null","
                <div class=""stimulus-container"">
                    <img src=""images/causal_sequence/coin_causal/coin_causal_ten.png"" class=""exp-image"">
                    <div class=""question-area""></div> 
                </div>","null","","","","","","","","","",""
"","","","","","html-button-response","99","151710","0.0-99.0","45E4350FB3BD4822A222C9615DB454A6","019cf9ca-c06b-7bf6-94a4-1c97b51bf173","019cf9ba-391a-7c7b-96b9-3757895c469c","","388","
                <div class=""stimulus-container"">
                    <img src=""images/causal_sequence/coin_causal/coin_causal_ten.png"" class=""exp-image"">
                    <div class=""question-area"">
                        <p style=""font-size: 20px; font-weight: bold; margin: 0;"">Is there a person in this image?</p>
                    </div>
                </div>","0","main_experiment_trial","ten","coin_causal","causal_sequence","randomized","","","","",""
"","","","","","html-keyboard-response","100","156712","0.0-100.0","45E4350FB3BD4822A222C9615DB454A6","019cf9ca-c06b-7bf6-94a4-1c97b51bf173","019cf9ba-391a-7c7b-96b9-3757895c469c","","null","<div style=""background-color: white; width: 100vw; height: 100vh;""></div>","null","","","","","","","","","",""
"","","","","","html-keyboard-response","101","157714","0.0-101.0","45E4350FB3BD4822A222C9615DB454A6","019cf9ca-c06b-7bf6-94a4-1c97b51bf173","019cf9ba-391a-7c7b-96b9-3757895c469c","","null","
                <div class=""stimulus-container"">
                    <img src=""images/semantic_sequence/housework_semantic/housework_semantic_3.png"" class=""exp-image"">
                    <div class=""question-area""></div> 
                </div>","null","","","","","","","","","",""
"","","","","","html-button-response","102","158346","0.0-102.0","45E4350FB3BD4822A222C9615DB454A6","019cf9ca-c06b-7bf6-94a4-1c97b51bf173","019cf9ba-391a-7c7b-96b9-3757895c469c","","631","
                <div class=""stimulus-container"">
                    <img src=""images/semantic_sequence/housework_semantic/housework_semantic_3.png"" class=""exp-image"">
                    <div class=""question-area"">
                        <p style=""font-size: 20px; font-weight: bold; margin: 0;"">Is there a person in this image?</p>
                    </div>
                </div>","0","main_experiment_trial","3","housework_semantic","semantic_sequence","randomized","","","","",""
"","","","","","html-keyboard-response","103","159349","0.0-103.0","45E4350FB3BD4822A222C9615DB454A6","019cf9ca-c06b-7bf6-94a4-1c97b51bf173","019cf9ba-391a-7c7b-96b9-3757895c469c","","null","
                <div class=""stimulus-container"">
                    <img src=""images/semantic_sequence/housework_semantic/housework_semantic_4.png"" class=""exp-image"">
                    <div class=""question-area""></div> 
                </div>","null","","","","","","","","","",""
"","","","","","html-button-response","104","160268","0.0-104.0","45E4350FB3BD4822A222C9615DB454A6","019cf9ca-c06b-7bf6-94a4-1c97b51bf173","019cf9ba-391a-7c7b-96b9-3757895c469c","","918","
                <div class=""stimulus-container"">
                    <img src=""images/semantic_sequence/housework_semantic/housework_semantic_4.png"" class=""exp-image"">
                    <div class=""question-area"">
                        <p style=""font-size: 20px; font-weight: bold; margin: 0;"">Is there a person in this image?</p>
                    </div>
                </div>","0","main_experiment_trial","4","housework_semantic","semantic_sequence","randomized","","","","",""
"","","","","","html-keyboard-response","105","161271","0.0-105.0","45E4350FB3BD4822A222C9615DB454A6","019cf9ca-c06b-7bf6-94a4-1c97b51bf173","019cf9ba-391a-7c7b-96b9-3757895c469c","","null","
                <div class=""stimulus-container"">
                    <img src=""images/semantic_sequence/housework_semantic/housework_semantic_9.png"" class=""exp-image"">
                    <div class=""question-area""></div> 
                </div>","null","","","","","","","","","",""
"","","","","","html-button-response","106","161694","0.0-106.0","45E4350FB3BD4822A222C9615DB454A6","019cf9ca-c06b-7bf6-94a4-1c97b51bf173","019cf9ba-391a-7c7b-96b9-3757895c469c","","422","
                <div class=""stimulus-container"">
                    <img src=""images/semantic_sequence/housework_semantic/housework_semantic_9.png"" class=""exp-image"">
                    <div class=""question-area"">
                        <p style=""font-size: 20px; font-weight: bold; margin: 0;"">Is there a person in this image?</p>
                    </div>
                </div>","0","main_experiment_trial","9","housework_semantic","semantic_sequence","randomized","","","","",""
"","","","","","html-keyboard-response","107","162696","0.0-107.0","45E4350FB3BD4822A222C9615DB454A6","019cf9ca-c06b-7bf6-94a4-1c97b51bf173","019cf9ba-391a-7c7b-96b9-3757895c469c","","null","
                <div class=""stimulus-container"">
                    <img src=""images/semantic_sequence/housework_semantic/housework_semantic_ten.png"" class=""exp-image"">
                    <div class=""question-area""></div> 
                </div>","null","","","","","","","","","",""
"","","","","","html-button-response","108","163217","0.0-108.0","45E4350FB3BD4822A222C9615DB454A6","019cf9ca-c06b-7bf6-94a4-1c97b51bf173","019cf9ba-391a-7c7b-96b9-3757895c469c","","520","
                <div class=""stimulus-container"">
                    <img src=""images/semantic_sequence/housework_semantic/housework_semantic_ten.png"" class=""exp-image"">
                    <div class=""question-area"">
                        <p style=""font-size: 20px; font-weight: bold; margin: 0;"">Is there a person in this image?</p>
                    </div>
                </div>","0","main_experiment_trial","ten","housework_semantic","semantic_sequence","randomized","","","","",""
"","","","","","html-keyboard-response","109","164219","0.0-109.0","45E4350FB3BD4822A222C9615DB454A6","019cf9ca-c06b-7bf6-94a4-1c97b51bf173","019cf9ba-391a-7c7b-96b9-3757895c469c","","null","
                <div class=""stimulus-container"">
                    <img src=""images/semantic_sequence/housework_semantic/housework_semantic_8.png"" class=""exp-image"">
                    <div class=""question-area""></div> 
                </div>","null","","","","","","","","","",""
"","","","","","html-button-response","110","164826","0.0-110.0","45E4350FB3BD4822A222C9615DB454A6","019cf9ca-c06b-7bf6-94a4-1c97b51bf173","019cf9ba-391a-7c7b-96b9-3757895c469c","","606","
                <div class=""stimulus-container"">
                    <img src=""images/semantic_sequence/housework_semantic/housework_semantic_8.png"" class=""exp-image"">
                    <div class=""question-area"">
                        <p style=""font-size: 20px; font-weight: bold; margin: 0;"">Is there a person in this image?</p>
                    </div>
                </div>","0","main_experiment_trial","8","housework_semantic","semantic_sequence","randomized","","","","",""
"","","","","","html-keyboard-response","111","165828","0.0-111.0","45E4350FB3BD4822A222C9615DB454A6","019cf9ca-c06b-7bf6-94a4-1c97b51bf173","019cf9ba-391a-7c7b-96b9-3757895c469c","","null","
                <div class=""stimulus-container"">
                    <img src=""images/semantic_sequence/housework_semantic/housework_semantic_2.png"" class=""exp-image"">
                    <div class=""question-area""></div> 
                </div>","null","","","","","","","","","",""
"","","","","","html-button-response","112","166336","0.0-112.0","45E4350FB3BD4822A222C9615DB454A6","019cf9ca-c06b-7bf6-94a4-1c97b51bf173","019cf9ba-391a-7c7b-96b9-3757895c469c","","507","
                <div class=""stimulus-container"">
                    <img src=""images/semantic_sequence/housework_semantic/housework_semantic_2.png"" class=""exp-image"">
                    <div class=""question-area"">
                        <p style=""font-size: 20px; font-weight: bold; margin: 0;"">Is there a person in this image?</p>
                    </div>
                </div>","0","main_experiment_trial","2","housework_semantic","semantic_sequence","randomized","","","","",""
"","","","","","html-keyboard-response","113","167339","0.0-113.0","45E4350FB3BD4822A222C9615DB454A6","019cf9ca-c06b-7bf6-94a4-1c97b51bf173","019cf9ba-391a-7c7b-96b9-3757895c469c","","null","
                <div class=""stimulus-container"">
                    <img src=""images/semantic_sequence/housework_semantic/housework_semantic_1.png"" class=""exp-image"">
                    <div class=""question-area""></div> 
                </div>","null","","","","","","","","","",""
"","","","","","html-button-response","114","168208","0.0-114.0","45E4350FB3BD4822A222C9615DB454A6","019cf9ca-c06b-7bf6-94a4-1c97b51bf173","019cf9ba-391a-7c7b-96b9-3757895c469c","","867","
                <div class=""stimulus-container"">
                    <img src=""images/semantic_sequence/housework_semantic/housework_semantic_1.png"" class=""exp-image"">
                    <div class=""question-area"">
                        <p style=""font-size: 20px; font-weight: bold; margin: 0;"">Is there a person in this image?</p>
                    </div>
                </div>","0","main_experiment_trial","1","housework_semantic","semantic_sequence","randomized","","","","",""
"","","","","","html-keyboard-response","115","169210","0.0-115.0","45E4350FB3BD4822A222C9615DB454A6","019cf9ca-c06b-7bf6-94a4-1c97b51bf173","019cf9ba-391a-7c7b-96b9-3757895c469c","","null","
                <div class=""stimulus-container"">
                    <img src=""images/semantic_sequence/housework_semantic/housework_semantic_6.png"" class=""exp-image"">
                    <div class=""question-area""></div> 
                </div>","null","","","","","","","","","",""
"","","","","","html-button-response","116","169603","0.0-116.0","45E4350FB3BD4822A222C9615DB454A6","019cf9ca-c06b-7bf6-94a4-1c97b51bf173","019cf9ba-391a-7c7b-96b9-3757895c469c","","392","
                <div class=""stimulus-container"">
                    <img src=""images/semantic_sequence/housework_semantic/housework_semantic_6.png"" class=""exp-image"">
                    <div class=""question-area"">
                        <p style=""font-size: 20px; font-weight: bold; margin: 0;"">Is there a person in this image?</p>
                    </div>
                </div>","0","main_experiment_trial","6","housework_semantic","semantic_sequence","randomized","","","","",""
"","","","","","html-keyboard-response","117","170606","0.0-117.0","45E4350FB3BD4822A222C9615DB454A6","019cf9ca-c06b-7bf6-94a4-1c97b51bf173","019cf9ba-391a-7c7b-96b9-3757895c469c","","null","
                <div class=""stimulus-container"">
                    <img src=""images/semantic_sequence/housework_semantic/housework_semantic_5.png"" class=""exp-image"">
                    <div class=""question-area""></div> 
                </div>","null","","","","","","","","","",""
"","","","","","html-button-response","118","171260","0.0-118.0","45E4350FB3BD4822A222C9615DB454A6","019cf9ca-c06b-7bf6-94a4-1c97b51bf173","019cf9ba-391a-7c7b-96b9-3757895c469c","","653","
                <div class=""stimulus-container"">
                    <img src=""images/semantic_sequence/housework_semantic/housework_semantic_5.png"" class=""exp-image"">
                    <div class=""question-area"">
                        <p style=""font-size: 20px; font-weight: bold; margin: 0;"">Is there a person in this image?</p>
                    </div>
                </div>","0","main_experiment_trial","5","housework_semantic","semantic_sequence","randomized","","","","",""
"","","","","","html-keyboard-response","119","172262","0.0-119.0","45E4350FB3BD4822A222C9615DB454A6","019cf9ca-c06b-7bf6-94a4-1c97b51bf173","019cf9ba-391a-7c7b-96b9-3757895c469c","","null","
                <div class=""stimulus-container"">
                    <img src=""images/semantic_sequence/housework_semantic/housework_semantic_7.png"" class=""exp-image"">
                    <div class=""question-area""></div> 
                </div>","null","","","","","","","","","",""
"","","","","","html-button-response","120","173218","0.0-120.0","45E4350FB3BD4822A222C9615DB454A6","019cf9ca-c06b-7bf6-94a4-1c97b51bf173","019cf9ba-391a-7c7b-96b9-3757895c469c","","954","
                <div class=""stimulus-container"">
                    <img src=""images/semantic_sequence/housework_semantic/housework_semantic_7.png"" class=""exp-image"">
                    <div class=""question-area"">
                        <p style=""font-size: 20px; font-weight: bold; margin: 0;"">Is there a person in this image?</p>
                    </div>
                </div>","0","main_experiment_trial","7","housework_semantic","semantic_sequence","randomized","","","","",""
"","","","","","html-keyboard-response","121","178219","0.0-121.0","45E4350FB3BD4822A222C9615DB454A6","019cf9ca-c06b-7bf6-94a4-1c97b51bf173","019cf9ba-391a-7c7b-96b9-3757895c469c","","null","<div style=""background-color: white; width: 100vw; height: 100vh;""></div>","null","","","","","","","","","",""
"","","","","","html-keyboard-response","122","179220","0.0-122.0","45E4350FB3BD4822A222C9615DB454A6","019cf9ca-c06b-7bf6-94a4-1c97b51bf173","019cf9ba-391a-7c7b-96b9-3757895c469c","","null","
                <div class=""stimulus-container"">
                    <img src=""images/causal_sequence/museum_causal/museum_causal_3.png"" class=""exp-image"">
                    <div class=""question-area""></div> 
                </div>","null","","","","","","","","","",""
"","","","","","html-button-response","123","180064","0.0-123.0","45E4350FB3BD4822A222C9615DB454A6","019cf9ca-c06b-7bf6-94a4-1c97b51bf173","019cf9ba-391a-7c7b-96b9-3757895c469c","","843","
                <div class=""stimulus-container"">
                    <img src=""images/causal_sequence/museum_causal/museum_causal_3.png"" class=""exp-image"">
                    <div class=""question-area"">
                        <p style=""font-size: 20px; font-weight: bold; margin: 0;"">Is there a person in this image?</p>
                    </div>
                </div>","0","main_experiment_trial","3","museum_causal","causal_sequence","randomized","","","","",""
"","","","","","html-keyboard-response","124","181067","0.0-124.0","45E4350FB3BD4822A222C9615DB454A6","019cf9ca-c06b-7bf6-94a4-1c97b51bf173","019cf9ba-391a-7c7b-96b9-3757895c469c","","null","
                <div class=""stimulus-container"">
                    <img src=""images/causal_sequence/museum_causal/museum_causal_1.png"" class=""exp-image"">
                    <div class=""question-area""></div> 
                </div>","null","","","","","","","","","",""
"","","","","","html-button-response","125","181708","0.0-125.0","45E4350FB3BD4822A222C9615DB454A6","019cf9ca-c06b-7bf6-94a4-1c97b51bf173","019cf9ba-391a-7c7b-96b9-3757895c469c","","640","
                <div class=""stimulus-container"">
                    <img src=""images/causal_sequence/museum_causal/museum_causal_1.png"" class=""exp-image"">
                    <div class=""question-area"">
                        <p style=""font-size: 20px; font-weight: bold; margin: 0;"">Is there a person in this image?</p>
                    </div>
                </div>","0","main_experiment_trial","1","museum_causal","causal_sequence","randomized","","","","",""
"","","","","","html-keyboard-response","126","182709","0.0-126.0","45E4350FB3BD4822A222C9615DB454A6","019cf9ca-c06b-7bf6-94a4-1c97b51bf173","019cf9ba-391a-7c7b-96b9-3757895c469c","","null","
                <div class=""stimulus-container"">
                    <img src=""images/causal_sequence/museum_causal/museum_causal_2.png"" class=""exp-image"">
                    <div class=""question-area""></div> 
                </div>","null","","","","","","","","","",""
"","","","","","html-button-response","127","183701","0.0-127.0","45E4350FB3BD4822A222C9615DB454A6","019cf9ca-c06b-7bf6-94a4-1c97b51bf173","019cf9ba-391a-7c7b-96b9-3757895c469c","","990","
                <div class=""stimulus-container"">
                    <img src=""images/causal_sequence/museum_causal/museum_causal_2.png"" class=""exp-image"">
                    <div class=""question-area"">
                        <p style=""font-size: 20px; font-weight: bold; margin: 0;"">Is there a person in this image?</p>
                    </div>
                </div>","0","main_experiment_trial","2","museum_causal","causal_sequence","randomized","","","","",""
"","","","","","html-keyboard-response","128","184704","0.0-128.0","45E4350FB3BD4822A222C9615DB454A6","019cf9ca-c06b-7bf6-94a4-1c97b51bf173","019cf9ba-391a-7c7b-96b9-3757895c469c","","null","
                <div class=""stimulus-container"">
                    <img src=""images/causal_sequence/museum_causal/museum_causal_4.png"" class=""exp-image"">
                    <div class=""question-area""></div> 
                </div>","null","","","","","","","","","",""
"","","","","","html-button-response","129","185724","0.0-129.0","45E4350FB3BD4822A222C9615DB454A6","019cf9ca-c06b-7bf6-94a4-1c97b51bf173","019cf9ba-391a-7c7b-96b9-3757895c469c","","1019","
                <div class=""stimulus-container"">
                    <img src=""images/causal_sequence/museum_causal/museum_causal_4.png"" class=""exp-image"">
                    <div class=""question-area"">
                        <p style=""font-size: 20px; font-weight: bold; margin: 0;"">Is there a person in this image?</p>
                    </div>
                </div>","1","main_experiment_trial","4","museum_causal","causal_sequence","randomized","","","","",""
"","","","","","html-keyboard-response","130","186725","0.0-130.0","45E4350FB3BD4822A222C9615DB454A6","019cf9ca-c06b-7bf6-94a4-1c97b51bf173","019cf9ba-391a-7c7b-96b9-3757895c469c","","null","
                <div class=""stimulus-container"">
                    <img src=""images/causal_sequence/museum_causal/museum_causal_ten.png"" class=""exp-image"">
                    <div class=""question-area""></div> 
                </div>","null","","","","","","","","","",""
"","","","","","html-button-response","131","187544","0.0-131.0","45E4350FB3BD4822A222C9615DB454A6","019cf9ca-c06b-7bf6-94a4-1c97b51bf173","019cf9ba-391a-7c7b-96b9-3757895c469c","","818","
                <div class=""stimulus-container"">
                    <img src=""images/causal_sequence/museum_causal/museum_causal_ten.png"" class=""exp-image"">
                    <div class=""question-area"">
                        <p style=""font-size: 20px; font-weight: bold; margin: 0;"">Is there a person in this image?</p>
                    </div>
                </div>","0","main_experiment_trial","ten","museum_causal","causal_sequence","randomized","","","","",""
"","","","","","html-keyboard-response","132","188547","0.0-132.0","45E4350FB3BD4822A222C9615DB454A6","019cf9ca-c06b-7bf6-94a4-1c97b51bf173","019cf9ba-391a-7c7b-96b9-3757895c469c","","null","
                <div class=""stimulus-container"">
                    <img src=""images/causal_sequence/museum_causal/museum_causal_5.png"" class=""exp-image"">
                    <div class=""question-area""></div> 
                </div>","null","","","","","","","","","",""
"","","","","","html-button-response","133","188920","0.0-133.0","45E4350FB3BD4822A222C9615DB454A6","019cf9ca-c06b-7bf6-94a4-1c97b51bf173","019cf9ba-391a-7c7b-96b9-3757895c469c","","372","
                <div class=""stimulus-container"">
                    <img src=""images/causal_sequence/museum_causal/museum_causal_5.png"" class=""exp-image"">
                    <div class=""question-area"">
                        <p style=""font-size: 20px; font-weight: bold; margin: 0;"">Is there a person in this image?</p>
                    </div>
                </div>","0","main_experiment_trial","5","museum_causal","causal_sequence","randomized","","","","",""
"","","","","","html-keyboard-response","134","189922","0.0-134.0","45E4350FB3BD4822A222C9615DB454A6","019cf9ca-c06b-7bf6-94a4-1c97b51bf173","019cf9ba-391a-7c7b-96b9-3757895c469c","","null","
                <div class=""stimulus-container"">
                    <img src=""images/causal_sequence/museum_causal/museum_causal_6.png"" class=""exp-image"">
                    <div class=""question-area""></div> 
                </div>","null","","","","","","","","","",""
"","","","","","html-button-response","135","190294","0.0-135.0","45E4350FB3BD4822A222C9615DB454A6","019cf9ca-c06b-7bf6-94a4-1c97b51bf173","019cf9ba-391a-7c7b-96b9-3757895c469c","","370","
                <div class=""stimulus-container"">
                    <img src=""images/causal_sequence/museum_causal/museum_causal_6.png"" class=""exp-image"">
                    <div class=""question-area"">
                        <p style=""font-size: 20px; font-weight: bold; margin: 0;"">Is there a person in this image?</p>
                    </div>
                </div>","0","main_experiment_trial","6","museum_causal","causal_sequence","randomized","","","","",""
"","","","","","html-keyboard-response","136","191296","0.0-136.0","45E4350FB3BD4822A222C9615DB454A6","019cf9ca-c06b-7bf6-94a4-1c97b51bf173","019cf9ba-391a-7c7b-96b9-3757895c469c","","null","
                <div class=""stimulus-container"">
                    <img src=""images/causal_sequence/museum_causal/museum_causal_9.png"" class=""exp-image"">
                    <div class=""question-area""></div> 
                </div>","null","","","","","","","","","",""
"","","","","","html-button-response","137","191968","0.0-137.0","45E4350FB3BD4822A222C9615DB454A6","019cf9ca-c06b-7bf6-94a4-1c97b51bf173","019cf9ba-391a-7c7b-96b9-3757895c469c","","671","
                <div class=""stimulus-container"">
                    <img src=""images/causal_sequence/museum_causal/museum_causal_9.png"" class=""exp-image"">
                    <div class=""question-area"">
                        <p style=""font-size: 20px; font-weight: bold; margin: 0;"">Is there a person in this image?</p>
                    </div>
                </div>","1","main_experiment_trial","9","museum_causal","causal_sequence","randomized","","","","",""
"","","","","","html-keyboard-response","138","192970","0.0-138.0","45E4350FB3BD4822A222C9615DB454A6","019cf9ca-c06b-7bf6-94a4-1c97b51bf173","019cf9ba-391a-7c7b-96b9-3757895c469c","","null","
                <div class=""stimulus-container"">
                    <img src=""images/causal_sequence/museum_causal/museum_causal_8.png"" class=""exp-image"">
                    <div class=""question-area""></div> 
                </div>","null","","","","","","","","","",""
"","","","","","html-button-response","139","193433","0.0-139.0","45E4350FB3BD4822A222C9615DB454A6","019cf9ca-c06b-7bf6-94a4-1c97b51bf173","019cf9ba-391a-7c7b-96b9-3757895c469c","","462","
                <div class=""stimulus-container"">
                    <img src=""images/causal_sequence/museum_causal/museum_causal_8.png"" class=""exp-image"">
                    <div class=""question-area"">
                        <p style=""font-size: 20px; font-weight: bold; margin: 0;"">Is there a person in this image?</p>
                    </div>
                </div>","0","main_experiment_trial","8","museum_causal","causal_sequence","randomized","","","","",""
"","","","","","html-keyboard-response","140","194435","0.0-140.0","45E4350FB3BD4822A222C9615DB454A6","019cf9ca-c06b-7bf6-94a4-1c97b51bf173","019cf9ba-391a-7c7b-96b9-3757895c469c","","null","
                <div class=""stimulus-container"">
                    <img src=""images/causal_sequence/museum_causal/museum_causal_7.png"" class=""exp-image"">
                    <div class=""question-area""></div> 
                </div>","null","","","","","","","","","",""
"","","","","","html-button-response","141","194926","0.0-141.0","45E4350FB3BD4822A222C9615DB454A6","019cf9ca-c06b-7bf6-94a4-1c97b51bf173","019cf9ba-391a-7c7b-96b9-3757895c469c","","490","
                <div class=""stimulus-container"">
                    <img src=""images/causal_sequence/museum_causal/museum_causal_7.png"" class=""exp-image"">
                    <div class=""question-area"">
                        <p style=""font-size: 20px; font-weight: bold; margin: 0;"">Is there a person in this image?</p>
                    </div>
                </div>","1","main_experiment_trial","7","museum_causal","causal_sequence","randomized","","","","",""
"","","","","","html-keyboard-response","142","199928","0.0-142.0","45E4350FB3BD4822A222C9615DB454A6","019cf9ca-c06b-7bf6-94a4-1c97b51bf173","019cf9ba-391a-7c7b-96b9-3757895c469c","","null","<div style=""background-color: white; width: 100vw; height: 100vh;""></div>","null","","","","","","","","","",""
"","","","","","html-keyboard-response","143","200930","0.0-143.0","45E4350FB3BD4822A222C9615DB454A6","019cf9ca-c06b-7bf6-94a4-1c97b51bf173","019cf9ba-391a-7c7b-96b9-3757895c469c","","null","
                <div class=""stimulus-container"">
                    <img src=""images/causal_sequence/the_performance_causal/the_performance_causal_7.png"" class=""exp-image"">
                    <div class=""question-area""></div> 
                </div>","null","","","","","","","","","",""
"","","","","","html-button-response","144","201611","0.0-144.0","45E4350FB3BD4822A222C9615DB454A6","019cf9ca-c06b-7bf6-94a4-1c97b51bf173","019cf9ba-391a-7c7b-96b9-3757895c469c","","680","
                <div class=""stimulus-container"">
                    <img src=""images/causal_sequence/the_performance_causal/the_performance_causal_7.png"" class=""exp-image"">
                    <div class=""question-area"">
                        <p style=""font-size: 20px; font-weight: bold; margin: 0;"">Is there a person in this image?</p>
                    </div>
                </div>","0","main_experiment_trial","7","the_performance_causal","causal_sequence","randomized","","","","",""
"","","","","","html-keyboard-response","145","202613","0.0-145.0","45E4350FB3BD4822A222C9615DB454A6","019cf9ca-c06b-7bf6-94a4-1c97b51bf173","019cf9ba-391a-7c7b-96b9-3757895c469c","","null","
                <div class=""stimulus-container"">
                    <img src=""images/causal_sequence/the_performance_causal/the_performance_causal_2.png"" class=""exp-image"">
                    <div class=""question-area""></div> 
                </div>","null","","","","","","","","","",""
"","","","","","html-button-response","146","203003","0.0-146.0","45E4350FB3BD4822A222C9615DB454A6","019cf9ca-c06b-7bf6-94a4-1c97b51bf173","019cf9ba-391a-7c7b-96b9-3757895c469c","","389","
                <div class=""stimulus-container"">
                    <img src=""images/causal_sequence/the_performance_causal/the_performance_causal_2.png"" class=""exp-image"">
                    <div class=""question-area"">
                        <p style=""font-size: 20px; font-weight: bold; margin: 0;"">Is there a person in this image?</p>
                    </div>
                </div>","0","main_experiment_trial","2","the_performance_causal","causal_sequence","randomized","","","","",""
"","","","","","html-keyboard-response","147","204005","0.0-147.0","45E4350FB3BD4822A222C9615DB454A6","019cf9ca-c06b-7bf6-94a4-1c97b51bf173","019cf9ba-391a-7c7b-96b9-3757895c469c","","null","
                <div class=""stimulus-container"">
                    <img src=""images/causal_sequence/the_performance_causal/the_performance_causal_4.png"" class=""exp-image"">
                    <div class=""question-area""></div> 
                </div>","null","","","","","","","","","",""
"","","","","","html-button-response","148","204396","0.0-148.0","45E4350FB3BD4822A222C9615DB454A6","019cf9ca-c06b-7bf6-94a4-1c97b51bf173","019cf9ba-391a-7c7b-96b9-3757895c469c","","389","
                <div class=""stimulus-container"">
                    <img src=""images/causal_sequence/the_performance_causal/the_performance_causal_4.png"" class=""exp-image"">
                    <div class=""question-area"">
                        <p style=""font-size: 20px; font-weight: bold; margin: 0;"">Is there a person in this image?</p>
                    </div>
                </div>","0","main_experiment_trial","4","the_performance_causal","causal_sequence","randomized","","","","",""
"","","","","","html-keyboard-response","149","205398","0.0-149.0","45E4350FB3BD4822A222C9615DB454A6","019cf9ca-c06b-7bf6-94a4-1c97b51bf173","019cf9ba-391a-7c7b-96b9-3757895c469c","","null","
                <div class=""stimulus-container"">
                    <img src=""images/causal_sequence/the_performance_causal/the_performance_causal_8.png"" class=""exp-image"">
                    <div class=""question-area""></div> 
                </div>","null","","","","","","","","","",""
"","","","","","html-button-response","150","205837","0.0-150.0","45E4350FB3BD4822A222C9615DB454A6","019cf9ca-c06b-7bf6-94a4-1c97b51bf173","019cf9ba-391a-7c7b-96b9-3757895c469c","","437","
                <div class=""stimulus-container"">
                    <img src=""images/causal_sequence/the_performance_causal/the_performance_causal_8.png"" class=""exp-image"">
                    <div class=""question-area"">
                        <p style=""font-size: 20px; font-weight: bold; margin: 0;"">Is there a person in this image?</p>
                    </div>
                </div>","0","main_experiment_trial","8","the_performance_causal","causal_sequence","randomized","","","","",""
"","","","","","html-keyboard-response","151","206839","0.0-151.0","45E4350FB3BD4822A222C9615DB454A6","019cf9ca-c06b-7bf6-94a4-1c97b51bf173","019cf9ba-391a-7c7b-96b9-3757895c469c","","null","
                <div class=""stimulus-container"">
                    <img src=""images/causal_sequence/the_performance_causal/the_performance_causal_6.png"" class=""exp-image"">
                    <div class=""question-area""></div> 
                </div>","null","","","","","","","","","",""
"","","","","","html-button-response","152","207279","0.0-152.0","45E4350FB3BD4822A222C9615DB454A6","019cf9ca-c06b-7bf6-94a4-1c97b51bf173","019cf9ba-391a-7c7b-96b9-3757895c469c","","438","
                <div class=""stimulus-container"">
                    <img src=""images/causal_sequence/the_performance_causal/the_performance_causal_6.png"" class=""exp-image"">
                    <div class=""question-area"">
                        <p style=""font-size: 20px; font-weight: bold; margin: 0;"">Is there a person in this image?</p>
                    </div>
                </div>","0","main_experiment_trial","6","the_performance_causal","causal_sequence","randomized","","","","",""
"","","","","","html-keyboard-response","153","208282","0.0-153.0","45E4350FB3BD4822A222C9615DB454A6","019cf9ca-c06b-7bf6-94a4-1c97b51bf173","019cf9ba-391a-7c7b-96b9-3757895c469c","","null","
                <div class=""stimulus-container"">
                    <img src=""images/causal_sequence/the_performance_causal/the_performance_causal_9.png"" class=""exp-image"">
                    <div class=""question-area""></div> 
                </div>","null","","","","","","","","","",""
"","","","","","html-button-response","154","208740","0.0-154.0","45E4350FB3BD4822A222C9615DB454A6","019cf9ca-c06b-7bf6-94a4-1c97b51bf173","019cf9ba-391a-7c7b-96b9-3757895c469c","","456","
                <div class=""stimulus-container"">
                    <img src=""images/causal_sequence/the_performance_causal/the_performance_causal_9.png"" class=""exp-image"">
                    <div class=""question-area"">
                        <p style=""font-size: 20px; font-weight: bold; margin: 0;"">Is there a person in this image?</p>
                    </div>
                </div>","0","main_experiment_trial","9","the_performance_causal","causal_sequence","randomized","","","","",""
"","","","","","html-keyboard-response","155","209742","0.0-155.0","45E4350FB3BD4822A222C9615DB454A6","019cf9ca-c06b-7bf6-94a4-1c97b51bf173","019cf9ba-391a-7c7b-96b9-3757895c469c","","null","
                <div class=""stimulus-container"">
                    <img src=""images/causal_sequence/the_performance_causal/the_performance_causal_1.png"" class=""exp-image"">
                    <div class=""question-area""></div> 
                </div>","null","","","","","","","","","",""
"","","","","","html-button-response","156","210152","0.0-156.0","45E4350FB3BD4822A222C9615DB454A6","019cf9ca-c06b-7bf6-94a4-1c97b51bf173","019cf9ba-391a-7c7b-96b9-3757895c469c","","408","
                <div class=""stimulus-container"">
                    <img src=""images/causal_sequence/the_performance_causal/the_performance_causal_1.png"" class=""exp-image"">
                    <div class=""question-area"">
                        <p style=""font-size: 20px; font-weight: bold; margin: 0;"">Is there a person in this image?</p>
                    </div>
                </div>","0","main_experiment_trial","1","the_performance_causal","causal_sequence","randomized","","","","",""
"","","","","","html-keyboard-response","157","211154","0.0-157.0","45E4350FB3BD4822A222C9615DB454A6","019cf9ca-c06b-7bf6-94a4-1c97b51bf173","019cf9ba-391a-7c7b-96b9-3757895c469c","","null","
                <div class=""stimulus-container"">
                    <img src=""images/causal_sequence/the_performance_causal/the_performance_causal_3.png"" class=""exp-image"">
                    <div class=""question-area""></div> 
                </div>","null","","","","","","","","","",""
"","","","","","html-button-response","158","211528","0.0-158.0","45E4350FB3BD4822A222C9615DB454A6","019cf9ca-c06b-7bf6-94a4-1c97b51bf173","019cf9ba-391a-7c7b-96b9-3757895c469c","","373","
                <div class=""stimulus-container"">
                    <img src=""images/causal_sequence/the_performance_causal/the_performance_causal_3.png"" class=""exp-image"">
                    <div class=""question-area"">
                        <p style=""font-size: 20px; font-weight: bold; margin: 0;"">Is there a person in this image?</p>
                    </div>
                </div>","0","main_experiment_trial","3","the_performance_causal","causal_sequence","randomized","","","","",""
"","","","","","html-keyboard-response","159","212530","0.0-159.0","45E4350FB3BD4822A222C9615DB454A6","019cf9ca-c06b-7bf6-94a4-1c97b51bf173","019cf9ba-391a-7c7b-96b9-3757895c469c","","null","
                <div class=""stimulus-container"">
                    <img src=""images/causal_sequence/the_performance_causal/the_performance_causal_5.png"" class=""exp-image"">
                    <div class=""question-area""></div> 
                </div>","null","","","","","","","","","",""
"","","","","","html-button-response","160","213187","0.0-160.0","45E4350FB3BD4822A222C9615DB454A6","019cf9ca-c06b-7bf6-94a4-1c97b51bf173","019cf9ba-391a-7c7b-96b9-3757895c469c","","656","
                <div class=""stimulus-container"">
                    <img src=""images/causal_sequence/the_performance_causal/the_performance_causal_5.png"" class=""exp-image"">
                    <div class=""question-area"">
                        <p style=""font-size: 20px; font-weight: bold; margin: 0;"">Is there a person in this image?</p>
                    </div>
                </div>","0","main_experiment_trial","5","the_performance_causal","causal_sequence","randomized","","","","",""
"","","","","","html-keyboard-response","161","214189","0.0-161.0","45E4350FB3BD4822A222C9615DB454A6","019cf9ca-c06b-7bf6-94a4-1c97b51bf173","019cf9ba-391a-7c7b-96b9-3757895c469c","","null","
                <div class=""stimulus-container"">
                    <img src=""images/causal_sequence/the_performance_causal/the_performance_causal_ten.png"" class=""exp-image"">
                    <div class=""question-area""></div> 
                </div>","null","","","","","","","","","",""
"","","","","","html-button-response","162","214518","0.0-162.0","45E4350FB3BD4822A222C9615DB454A6","019cf9ca-c06b-7bf6-94a4-1c97b51bf173","019cf9ba-391a-7c7b-96b9-3757895c469c","","328","
                <div class=""stimulus-container"">
                    <img src=""images/causal_sequence/the_performance_causal/the_performance_causal_ten.png"" class=""exp-image"">
                    <div class=""question-area"">
                        <p style=""font-size: 20px; font-weight: bold; margin: 0;"">Is there a person in this image?</p>
                    </div>
                </div>","0","main_experiment_trial","ten","the_performance_causal","causal_sequence","randomized","","","","",""
"","","","","","html-keyboard-response","163","219520","0.0-163.0","45E4350FB3BD4822A222C9615DB454A6","019cf9ca-c06b-7bf6-94a4-1c97b51bf173","019cf9ba-391a-7c7b-96b9-3757895c469c","","null","<div style=""background-color: white; width: 100vw; height: 100vh;""></div>","null","","","","","","","","","",""
"","","","","","html-keyboard-response","164","220523","0.0-164.0","45E4350FB3BD4822A222C9615DB454A6","019cf9ca-c06b-7bf6-94a4-1c97b51bf173","019cf9ba-391a-7c7b-96b9-3757895c469c","","null","
                <div class=""stimulus-container"">
                    <img src=""images/causal_sequence/dog_causal/dog_causal_4.png"" class=""exp-image"">
                    <div class=""question-area""></div> 
                </div>","null","","","","","","","","","",""
"","","","","","html-button-response","165","222137","0.0-165.0","45E4350FB3BD4822A222C9615DB454A6","019cf9ca-c06b-7bf6-94a4-1c97b51bf173","019cf9ba-391a-7c7b-96b9-3757895c469c","","1613","
                <div class=""stimulus-container"">
                    <img src=""images/causal_sequence/dog_causal/dog_causal_4.png"" class=""exp-image"">
                    <div class=""question-area"">
                        <p style=""font-size: 20px; font-weight: bold; margin: 0;"">Is there a person in this image?</p>
                    </div>
                </div>","0","main_experiment_trial","4","dog_causal","causal_sequence","randomized","","","","",""
"","","","","","html-keyboard-response","166","223139","0.0-166.0","45E4350FB3BD4822A222C9615DB454A6","019cf9ca-c06b-7bf6-94a4-1c97b51bf173","019cf9ba-391a-7c7b-96b9-3757895c469c","","null","
                <div class=""stimulus-container"">
                    <img src=""images/causal_sequence/dog_causal/dog_causal_2.png"" class=""exp-image"">
                    <div class=""question-area""></div> 
                </div>","null","","","","","","","","","",""
"","","","","","html-button-response","167","223541","0.0-167.0","45E4350FB3BD4822A222C9615DB454A6","019cf9ca-c06b-7bf6-94a4-1c97b51bf173","019cf9ba-391a-7c7b-96b9-3757895c469c","","401","
                <div class=""stimulus-container"">
                    <img src=""images/causal_sequence/dog_causal/dog_causal_2.png"" class=""exp-image"">
                    <div class=""question-area"">
                        <p style=""font-size: 20px; font-weight: bold; margin: 0;"">Is there a person in this image?</p>
                    </div>
                </div>","0","main_experiment_trial","2","dog_causal","causal_sequence","randomized","","","","",""
"","","","","","html-keyboard-response","168","224544","0.0-168.0","45E4350FB3BD4822A222C9615DB454A6","019cf9ca-c06b-7bf6-94a4-1c97b51bf173","019cf9ba-391a-7c7b-96b9-3757895c469c","","null","
                <div class=""stimulus-container"">
                    <img src=""images/causal_sequence/dog_causal/dog_causal_8.png"" class=""exp-image"">
                    <div class=""question-area""></div> 
                </div>","null","","","","","","","","","",""
"","","","","","html-button-response","169","224972","0.0-169.0","45E4350FB3BD4822A222C9615DB454A6","019cf9ca-c06b-7bf6-94a4-1c97b51bf173","019cf9ba-391a-7c7b-96b9-3757895c469c","","426","
                <div class=""stimulus-container"">
                    <img src=""images/causal_sequence/dog_causal/dog_causal_8.png"" class=""exp-image"">
                    <div class=""question-area"">
                        <p style=""font-size: 20px; font-weight: bold; margin: 0;"">Is there a person in this image?</p>
                    </div>
                </div>","0","main_experiment_trial","8","dog_causal","causal_sequence","randomized","","","","",""
"","","","","","html-keyboard-response","170","225974","0.0-170.0","45E4350FB3BD4822A222C9615DB454A6","019cf9ca-c06b-7bf6-94a4-1c97b51bf173","019cf9ba-391a-7c7b-96b9-3757895c469c","","null","
                <div class=""stimulus-container"">
                    <img src=""images/causal_sequence/dog_causal/dog_causal_6.png"" class=""exp-image"">
                    <div class=""question-area""></div> 
                </div>","null","","","","","","","","","",""
"","","","","","html-button-response","171","226367","0.0-171.0","45E4350FB3BD4822A222C9615DB454A6","019cf9ca-c06b-7bf6-94a4-1c97b51bf173","019cf9ba-391a-7c7b-96b9-3757895c469c","","391","
                <div class=""stimulus-container"">
                    <img src=""images/causal_sequence/dog_causal/dog_causal_6.png"" class=""exp-image"">
                    <div class=""question-area"">
                        <p style=""font-size: 20px; font-weight: bold; margin: 0;"">Is there a person in this image?</p>
                    </div>
                </div>","0","main_experiment_trial","6","dog_causal","causal_sequence","randomized","","","","",""
"","","","","","html-keyboard-response","172","227369","0.0-172.0","45E4350FB3BD4822A222C9615DB454A6","019cf9ca-c06b-7bf6-94a4-1c97b51bf173","019cf9ba-391a-7c7b-96b9-3757895c469c","","null","
                <div class=""stimulus-container"">
                    <img src=""images/causal_sequence/dog_causal/dog_causal_ten.png"" class=""exp-image"">
                    <div class=""question-area""></div> 
                </div>","null","","","","","","","","","",""
"","","","","","html-button-response","173","227798","0.0-173.0","45E4350FB3BD4822A222C9615DB454A6","019cf9ca-c06b-7bf6-94a4-1c97b51bf173","019cf9ba-391a-7c7b-96b9-3757895c469c","","427","
                <div class=""stimulus-container"">
                    <img src=""images/causal_sequence/dog_causal/dog_causal_ten.png"" class=""exp-image"">
                    <div class=""question-area"">
                        <p style=""font-size: 20px; font-weight: bold; margin: 0;"">Is there a person in this image?</p>
                    </div>
                </div>","0","main_experiment_trial","ten","dog_causal","causal_sequence","randomized","","","","",""
"","","","","","html-keyboard-response","174","228800","0.0-174.0","45E4350FB3BD4822A222C9615DB454A6","019cf9ca-c06b-7bf6-94a4-1c97b51bf173","019cf9ba-391a-7c7b-96b9-3757895c469c","","null","
                <div class=""stimulus-container"">
                    <img src=""images/causal_sequence/dog_causal/dog_causal_3.png"" class=""exp-image"">
                    <div class=""question-area""></div> 
                </div>","null","","","","","","","","","",""
"","","","","","html-button-response","175","229186","0.0-175.0","45E4350FB3BD4822A222C9615DB454A6","019cf9ca-c06b-7bf6-94a4-1c97b51bf173","019cf9ba-391a-7c7b-96b9-3757895c469c","","385","
                <div class=""stimulus-container"">
                    <img src=""images/causal_sequence/dog_causal/dog_causal_3.png"" class=""exp-image"">
                    <div class=""question-area"">
                        <p style=""font-size: 20px; font-weight: bold; margin: 0;"">Is there a person in this image?</p>
                    </div>
                </div>","0","main_experiment_trial","3","dog_causal","causal_sequence","randomized","","","","",""
"","","","","","html-keyboard-response","176","230187","0.0-176.0","45E4350FB3BD4822A222C9615DB454A6","019cf9ca-c06b-7bf6-94a4-1c97b51bf173","019cf9ba-391a-7c7b-96b9-3757895c469c","","null","
                <div class=""stimulus-container"">
                    <img src=""images/causal_sequence/dog_causal/dog_causal_5.png"" class=""exp-image"">
                    <div class=""question-area""></div> 
                </div>","null","","","","","","","","","",""
"","","","","","html-button-response","177","230544","0.0-177.0","45E4350FB3BD4822A222C9615DB454A6","019cf9ca-c06b-7bf6-94a4-1c97b51bf173","019cf9ba-391a-7c7b-96b9-3757895c469c","","357","
                <div class=""stimulus-container"">
                    <img src=""images/causal_sequence/dog_causal/dog_causal_5.png"" class=""exp-image"">
                    <div class=""question-area"">
                        <p style=""font-size: 20px; font-weight: bold; margin: 0;"">Is there a person in this image?</p>
                    </div>
                </div>","0","main_experiment_trial","5","dog_causal","causal_sequence","randomized","","","","",""
"","","","","","html-keyboard-response","178","231547","0.0-178.0","45E4350FB3BD4822A222C9615DB454A6","019cf9ca-c06b-7bf6-94a4-1c97b51bf173","019cf9ba-391a-7c7b-96b9-3757895c469c","","null","
                <div class=""stimulus-container"">
                    <img src=""images/causal_sequence/dog_causal/dog_causal_9.png"" class=""exp-image"">
                    <div class=""question-area""></div> 
                </div>","null","","","","","","","","","",""
"","","","","","html-button-response","179","231970","0.0-179.0","45E4350FB3BD4822A222C9615DB454A6","019cf9ca-c06b-7bf6-94a4-1c97b51bf173","019cf9ba-391a-7c7b-96b9-3757895c469c","","421","
                <div class=""stimulus-container"">
                    <img src=""images/causal_sequence/dog_causal/dog_causal_9.png"" class=""exp-image"">
                    <div class=""question-area"">
                        <p style=""font-size: 20px; font-weight: bold; margin: 0;"">Is there a person in this image?</p>
                    </div>
                </div>","0","main_experiment_trial","9","dog_causal","causal_sequence","randomized","","","","",""
"","","","","","html-keyboard-response","180","232973","0.0-180.0","45E4350FB3BD4822A222C9615DB454A6","019cf9ca-c06b-7bf6-94a4-1c97b51bf173","019cf9ba-391a-7c7b-96b9-3757895c469c","","null","
                <div class=""stimulus-container"">
                    <img src=""images/causal_sequence/dog_causal/dog_causal_1.png"" class=""exp-image"">
                    <div class=""question-area""></div> 
                </div>","null","","","","","","","","","",""
