"success","timeout","failed_images","failed_audio","failed_video","trial_type","trial_index","time_elapsed","internal_node_id","subject_id","study_id","session_id","view_history","rt","stimulus","response","task","image_index","folder","sequence_type","valuable_image_index","reward_type","chosen_image_index","target_X","correct_choice"
"true","false","[]","[]","[]","preload","0","14172","0.0-0.0","82BDBE19794C48C48192BB48EFEBF8B8","019cf475-0265-7139-9c72-161ec162b06d","019cf064-09e4-79bc-8453-421c166e6722","","","","","","","","","","","","",""
"","","","","","instructions","1","24121","0.0-1.0","82BDBE19794C48C48192BB48EFEBF8B8","019cf475-0265-7139-9c72-161ec162b06d","019cf064-09e4-79bc-8453-421c166e6722","[{""page_index"":0,""viewing_time"":9947}]","9947","","","","","","","","","","",""
"","","","","","instructions","2","59204","0.0-2.0","82BDBE19794C48C48192BB48EFEBF8B8","019cf475-0265-7139-9c72-161ec162b06d","019cf064-09e4-79bc-8453-421c166e6722","[{""page_index"":0,""viewing_time"":35081}]","35081","","","","","","","","","","",""
"true","","","","","fullscreen","3","251998","0.0-3.0","82BDBE19794C48C48192BB48EFEBF8B8","019cf475-0265-7139-9c72-161ec162b06d","019cf064-09e4-79bc-8453-421c166e6722","","191787","","","","","","","","","","",""
"","","","","","instructions","4","296612","0.0-4.0","82BDBE19794C48C48192BB48EFEBF8B8","019cf475-0265-7139-9c72-161ec162b06d","019cf064-09e4-79bc-8453-421c166e6722","[{""page_index"":0,""viewing_time"":44612}]","44612","","","","","","","","","","",""
"","","","","","instructions","5","399770","0.0-5.0","82BDBE19794C48C48192BB48EFEBF8B8","019cf475-0265-7139-9c72-161ec162b06d","019cf064-09e4-79bc-8453-421c166e6722","[{""page_index"":0,""viewing_time"":103155}]","103155","","","","","","","","","","",""
"","","","","","html-keyboard-response","6","403772","0.0-6.0","82BDBE19794C48C48192BB48EFEBF8B8","019cf475-0265-7139-9c72-161ec162b06d","019cf064-09e4-79bc-8453-421c166e6722","","null","
                <div class=""stimulus-container"">
                    <img src=""images/instructions/movie_1.png"" class=""exp-image"">
                    <div class=""question-area""></div> 
                </div>","null","","","","","","","","",""
"","","","","","html-button-response","7","405649","0.0-7.0","82BDBE19794C48C48192BB48EFEBF8B8","019cf475-0265-7139-9c72-161ec162b06d","019cf064-09e4-79bc-8453-421c166e6722","","1875","
                <div class=""stimulus-container"">
                    <img src=""images/instructions/movie_1.png"" class=""exp-image"">
                    <div class=""question-area"">
                        <p style=""font-size: 20px; font-weight: bold; margin: 0;"">Was there a person in this image?</p>
                    </div>
                </div>","0","example_question","1","","","","","","",""
"","","","","","html-keyboard-response","8","409651","0.0-8.0","82BDBE19794C48C48192BB48EFEBF8B8","019cf475-0265-7139-9c72-161ec162b06d","019cf064-09e4-79bc-8453-421c166e6722","","null","
                <div class=""stimulus-container"">
                    <img src=""images/instructions/movie_2.png"" class=""exp-image"">
                    <div class=""question-area""></div> 
                </div>","null","","","","","","","","",""
"","","","","","html-button-response","9","410530","0.0-9.0","82BDBE19794C48C48192BB48EFEBF8B8","019cf475-0265-7139-9c72-161ec162b06d","019cf064-09e4-79bc-8453-421c166e6722","","879","
                <div class=""stimulus-container"">
                    <img src=""images/instructions/movie_2.png"" class=""exp-image"">
                    <div class=""question-area"">
                        <p style=""font-size: 20px; font-weight: bold; margin: 0;"">Was there a person in this image?</p>
                    </div>
                </div>","0","example_question","2","","","","","","",""
"","","","","","html-keyboard-response","10","414533","0.0-10.0","82BDBE19794C48C48192BB48EFEBF8B8","019cf475-0265-7139-9c72-161ec162b06d","019cf064-09e4-79bc-8453-421c166e6722","","null","
                <div class=""stimulus-container"">
                    <img src=""images/instructions/movie_3.png"" class=""exp-image"">
                    <div class=""question-area""></div> 
                </div>","null","","","","","","","","",""
"","","","","","html-button-response","11","415550","0.0-11.0","82BDBE19794C48C48192BB48EFEBF8B8","019cf475-0265-7139-9c72-161ec162b06d","019cf064-09e4-79bc-8453-421c166e6722","","1017","
                <div class=""stimulus-container"">
                    <img src=""images/instructions/movie_3.png"" class=""exp-image"">
                    <div class=""question-area"">
                        <p style=""font-size: 20px; font-weight: bold; margin: 0;"">Was there a person in this image?</p>
                    </div>
                </div>","0","example_question","3","","","","","","",""
"","","","","","html-keyboard-response","12","419553","0.0-12.0","82BDBE19794C48C48192BB48EFEBF8B8","019cf475-0265-7139-9c72-161ec162b06d","019cf064-09e4-79bc-8453-421c166e6722","","null","
                <div class=""stimulus-container"">
                    <img src=""images/instructions/movie_4.png"" class=""exp-image"">
                    <div class=""question-area""></div> 
                </div>","null","","","","","","","","",""
"","","","","","html-button-response","13","420599","0.0-13.0","82BDBE19794C48C48192BB48EFEBF8B8","019cf475-0265-7139-9c72-161ec162b06d","019cf064-09e4-79bc-8453-421c166e6722","","1045","
                <div class=""stimulus-container"">
                    <img src=""images/instructions/movie_4.png"" class=""exp-image"">
                    <div class=""question-area"">
                        <p style=""font-size: 20px; font-weight: bold; margin: 0;"">Was there a person in this image?</p>
                    </div>
                </div>","0","example_question","4","","","","","","",""
"","","","","","instructions","14","424183","0.0-14.0","82BDBE19794C48C48192BB48EFEBF8B8","019cf475-0265-7139-9c72-161ec162b06d","019cf064-09e4-79bc-8453-421c166e6722","[{""page_index"":0,""viewing_time"":3584}]","3584","","","","","","","","","","",""
"","","","","","instructions","15","461855","0.0-15.0","82BDBE19794C48C48192BB48EFEBF8B8","019cf475-0265-7139-9c72-161ec162b06d","019cf064-09e4-79bc-8453-421c166e6722","[{""page_index"":0,""viewing_time"":37670}]","37670","","","","","","","","","","",""
"","","","","","html-keyboard-response","16","462855","0.0-16.0","82BDBE19794C48C48192BB48EFEBF8B8","019cf475-0265-7139-9c72-161ec162b06d","019cf064-09e4-79bc-8453-421c166e6722","","null","<div style=""background-color: white; width: 100vw; height: 100vh;""></div>","null","","","","","","","","",""
"","","","","","html-keyboard-response","17","467857","0.0-17.0","82BDBE19794C48C48192BB48EFEBF8B8","019cf475-0265-7139-9c72-161ec162b06d","019cf064-09e4-79bc-8453-421c166e6722","","null","
                <div class=""stimulus-container"">
                    <img src=""images/schematic_sequence/restaurant_scheme/restaurant_scheme_1.png"" class=""exp-image"">
                    <div class=""question-area""></div> 
                </div>","null","","","","","","","","",""
"","","","","","html-button-response","18","469677","0.0-18.0","82BDBE19794C48C48192BB48EFEBF8B8","019cf475-0265-7139-9c72-161ec162b06d","019cf064-09e4-79bc-8453-421c166e6722","","1819","
                <div class=""stimulus-container"">
                    <img src=""images/schematic_sequence/restaurant_scheme/restaurant_scheme_1.png"" class=""exp-image"">
                    <div class=""question-area"">
                        <p style=""font-size: 20px; font-weight: bold; margin: 0;"">Is there a person in this image?</p>
                    </div>
                </div>","0","main_experiment_trial","1","restaurant_scheme","schematic_sequence","","","","",""
"","","","","","html-keyboard-response","19","474680","0.0-19.0","82BDBE19794C48C48192BB48EFEBF8B8","019cf475-0265-7139-9c72-161ec162b06d","019cf064-09e4-79bc-8453-421c166e6722","","null","
                <div class=""stimulus-container"">
                    <img src=""images/schematic_sequence/restaurant_scheme/restaurant_scheme_2.png"" class=""exp-image"">
                    <div class=""question-area""></div> 
                </div>","null","","","","","","","","",""
"","","","","","html-button-response","20","475397","0.0-20.0","82BDBE19794C48C48192BB48EFEBF8B8","019cf475-0265-7139-9c72-161ec162b06d","019cf064-09e4-79bc-8453-421c166e6722","","716","
                <div class=""stimulus-container"">
                    <img src=""images/schematic_sequence/restaurant_scheme/restaurant_scheme_2.png"" class=""exp-image"">
                    <div class=""question-area"">
                        <p style=""font-size: 20px; font-weight: bold; margin: 0;"">Is there a person in this image?</p>
                    </div>
                </div>","1","main_experiment_trial","2","restaurant_scheme","schematic_sequence","","","","",""
"","","","","","html-keyboard-response","21","480399","0.0-21.0","82BDBE19794C48C48192BB48EFEBF8B8","019cf475-0265-7139-9c72-161ec162b06d","019cf064-09e4-79bc-8453-421c166e6722","","null","
                <div class=""stimulus-container"">
                    <img src=""images/schematic_sequence/restaurant_scheme/restaurant_scheme_3.png"" class=""exp-image"">
                    <div class=""question-area""></div> 
                </div>","null","","","","","","","","",""
"","","","","","html-button-response","22","483401","0.0-22.0","82BDBE19794C48C48192BB48EFEBF8B8","019cf475-0265-7139-9c72-161ec162b06d","019cf064-09e4-79bc-8453-421c166e6722","","null","
                <div class=""stimulus-container"">
                    <img src=""images/schematic_sequence/restaurant_scheme/restaurant_scheme_3.png"" class=""exp-image"">
                    <div class=""question-area"">
                        <p style=""font-size: 20px; font-weight: bold; margin: 0;"">Is there a person in this image?</p>
                    </div>
                </div>","null","main_experiment_trial","3","restaurant_scheme","schematic_sequence","","","","",""
"","","","","","html-keyboard-response","23","488404","0.0-23.0","82BDBE19794C48C48192BB48EFEBF8B8","019cf475-0265-7139-9c72-161ec162b06d","019cf064-09e4-79bc-8453-421c166e6722","","null","
                <div class=""stimulus-container"">
                    <img src=""images/schematic_sequence/restaurant_scheme/restaurant_scheme_4.png"" class=""exp-image"">
                    <div class=""question-area""></div> 
                </div>","null","","","","","","","","",""
"","","","","","html-button-response","24","489082","0.0-24.0","82BDBE19794C48C48192BB48EFEBF8B8","019cf475-0265-7139-9c72-161ec162b06d","019cf064-09e4-79bc-8453-421c166e6722","","678","
                <div class=""stimulus-container"">
                    <img src=""images/schematic_sequence/restaurant_scheme/restaurant_scheme_4.png"" class=""exp-image"">
                    <div class=""question-area"">
                        <p style=""font-size: 20px; font-weight: bold; margin: 0;"">Is there a person in this image?</p>
                    </div>
                </div>","0","main_experiment_trial","4","restaurant_scheme","schematic_sequence","","","","",""
"","","","","","html-keyboard-response","25","494084","0.0-25.0","82BDBE19794C48C48192BB48EFEBF8B8","019cf475-0265-7139-9c72-161ec162b06d","019cf064-09e4-79bc-8453-421c166e6722","","null","
                <div class=""stimulus-container"">
                    <img src=""images/schematic_sequence/restaurant_scheme/restaurant_scheme_5.png"" class=""exp-image"">
                    <div class=""question-area""></div> 
                </div>","null","","","","","","","","",""
"","","","","","html-button-response","26","494813","0.0-26.0","82BDBE19794C48C48192BB48EFEBF8B8","019cf475-0265-7139-9c72-161ec162b06d","019cf064-09e4-79bc-8453-421c166e6722","","729","
                <div class=""stimulus-container"">
                    <img src=""images/schematic_sequence/restaurant_scheme/restaurant_scheme_5.png"" class=""exp-image"">
                    <div class=""question-area"">
                        <p style=""font-size: 20px; font-weight: bold; margin: 0;"">Is there a person in this image?</p>
                    </div>
                </div>","0","main_experiment_trial","5","restaurant_scheme","schematic_sequence","","","","",""
"","","","","","html-keyboard-response","27","499815","0.0-27.0","82BDBE19794C48C48192BB48EFEBF8B8","019cf475-0265-7139-9c72-161ec162b06d","019cf064-09e4-79bc-8453-421c166e6722","","null","
                <div class=""stimulus-container"">
                    <img src=""images/schematic_sequence/restaurant_scheme/restaurant_scheme_6.png"" class=""exp-image"">
                    <div class=""question-area""></div> 
                </div>","null","","","","","","","","",""
"","","","","","html-button-response","28","500553","0.0-28.0","82BDBE19794C48C48192BB48EFEBF8B8","019cf475-0265-7139-9c72-161ec162b06d","019cf064-09e4-79bc-8453-421c166e6722","","738","
                <div class=""stimulus-container"">
                    <img src=""images/schematic_sequence/restaurant_scheme/restaurant_scheme_6.png"" class=""exp-image"">
                    <div class=""question-area"">
                        <p style=""font-size: 20px; font-weight: bold; margin: 0;"">Is there a person in this image?</p>
                    </div>
                </div>","1","main_experiment_trial","6","restaurant_scheme","schematic_sequence","","","","",""
"","","","","","html-keyboard-response","29","505556","0.0-29.0","82BDBE19794C48C48192BB48EFEBF8B8","019cf475-0265-7139-9c72-161ec162b06d","019cf064-09e4-79bc-8453-421c166e6722","","null","
                <div class=""stimulus-container"">
                    <img src=""images/schematic_sequence/restaurant_scheme/restaurant_scheme_7.png"" class=""exp-image"">
                    <div class=""question-area""></div> 
                </div>","null","","","","","","","","",""
"","","","","","html-button-response","30","506277","0.0-30.0","82BDBE19794C48C48192BB48EFEBF8B8","019cf475-0265-7139-9c72-161ec162b06d","019cf064-09e4-79bc-8453-421c166e6722","","720","
                <div class=""stimulus-container"">
                    <img src=""images/schematic_sequence/restaurant_scheme/restaurant_scheme_7.png"" class=""exp-image"">
                    <div class=""question-area"">
                        <p style=""font-size: 20px; font-weight: bold; margin: 0;"">Is there a person in this image?</p>
                    </div>
                </div>","1","main_experiment_trial","7","restaurant_scheme","schematic_sequence","","","","",""
"","","","","","html-keyboard-response","31","511279","0.0-31.0","82BDBE19794C48C48192BB48EFEBF8B8","019cf475-0265-7139-9c72-161ec162b06d","019cf064-09e4-79bc-8453-421c166e6722","","null","
                <div class=""stimulus-container"">
                    <img src=""images/schematic_sequence/restaurant_scheme/restaurant_scheme_8.png"" class=""exp-image"">
                    <div class=""question-area""></div> 
                </div>","null","","","","","","","","",""
"","","","","","html-button-response","32","511899","0.0-32.0","82BDBE19794C48C48192BB48EFEBF8B8","019cf475-0265-7139-9c72-161ec162b06d","019cf064-09e4-79bc-8453-421c166e6722","","620","
                <div class=""stimulus-container"">
                    <img src=""images/schematic_sequence/restaurant_scheme/restaurant_scheme_8.png"" class=""exp-image"">
                    <div class=""question-area"">
                        <p style=""font-size: 20px; font-weight: bold; margin: 0;"">Is there a person in this image?</p>
                    </div>
                </div>","0","main_experiment_trial","8","restaurant_scheme","schematic_sequence","","","","",""
"","","","","","html-keyboard-response","33","516901","0.0-33.0","82BDBE19794C48C48192BB48EFEBF8B8","019cf475-0265-7139-9c72-161ec162b06d","019cf064-09e4-79bc-8453-421c166e6722","","null","
                <div class=""stimulus-container"">
                    <img src=""images/schematic_sequence/restaurant_scheme/restaurant_scheme_9.png"" class=""exp-image"">
                    <div class=""question-area""></div> 
                </div>","null","","","","","","","","",""
"","","","","","html-button-response","34","517537","0.0-34.0","82BDBE19794C48C48192BB48EFEBF8B8","019cf475-0265-7139-9c72-161ec162b06d","019cf064-09e4-79bc-8453-421c166e6722","","636","
                <div class=""stimulus-container"">
                    <img src=""images/schematic_sequence/restaurant_scheme/restaurant_scheme_9.png"" class=""exp-image"">
                    <div class=""question-area"">
                        <p style=""font-size: 20px; font-weight: bold; margin: 0;"">Is there a person in this image?</p>
                    </div>
                </div>","0","main_experiment_trial","9","restaurant_scheme","schematic_sequence","","","","",""
"","","","","","html-keyboard-response","35","522539","0.0-35.0","82BDBE19794C48C48192BB48EFEBF8B8","019cf475-0265-7139-9c72-161ec162b06d","019cf064-09e4-79bc-8453-421c166e6722","","null","
                <div class=""stimulus-container"">
                    <img src=""images/schematic_sequence/restaurant_scheme/restaurant_scheme_ten.png"" class=""exp-image"">
                    <div class=""question-area""></div> 
                </div>","null","","","","","","","","",""
"","","","","","html-button-response","36","523161","0.0-36.0","82BDBE19794C48C48192BB48EFEBF8B8","019cf475-0265-7139-9c72-161ec162b06d","019cf064-09e4-79bc-8453-421c166e6722","","622","
                <div class=""stimulus-container"">
                    <img src=""images/schematic_sequence/restaurant_scheme/restaurant_scheme_ten.png"" class=""exp-image"">
                    <div class=""question-area"">
                        <p style=""font-size: 20px; font-weight: bold; margin: 0;"">Is there a person in this image?</p>
                    </div>
                </div>","0","main_experiment_trial","ten","restaurant_scheme","schematic_sequence","","","","",""
"","","","","","html-keyboard-response","37","524163","0.0-37.0","82BDBE19794C48C48192BB48EFEBF8B8","019cf475-0265-7139-9c72-161ec162b06d","019cf064-09e4-79bc-8453-421c166e6722","","null","<div style=""background-color: white; width: 100vw; height: 100vh;""></div>","null","","","","","","","","",""
"","","","","","html-keyboard-response","38","529165","0.0-38.0","82BDBE19794C48C48192BB48EFEBF8B8","019cf475-0265-7139-9c72-161ec162b06d","019cf064-09e4-79bc-8453-421c166e6722","","null","
                <div class=""stimulus-container"">
                    <img src=""images/schematic_sequence/supermarket_scheme/supermarket_scheme_1.png"" class=""exp-image"">
                    <div class=""question-area""></div> 
                </div>","null","","","","","","","","",""
"","","","","","html-button-response","39","529819","0.0-39.0","82BDBE19794C48C48192BB48EFEBF8B8","019cf475-0265-7139-9c72-161ec162b06d","019cf064-09e4-79bc-8453-421c166e6722","","653","
                <div class=""stimulus-container"">
                    <img src=""images/schematic_sequence/supermarket_scheme/supermarket_scheme_1.png"" class=""exp-image"">
                    <div class=""question-area"">
                        <p style=""font-size: 20px; font-weight: bold; margin: 0;"">Is there a person in this image?</p>
                    </div>
                </div>","1","main_experiment_trial","1","supermarket_scheme","schematic_sequence","","","","",""
"","","","","","html-keyboard-response","40","534821","0.0-40.0","82BDBE19794C48C48192BB48EFEBF8B8","019cf475-0265-7139-9c72-161ec162b06d","019cf064-09e4-79bc-8453-421c166e6722","","null","
                <div class=""stimulus-container"">
                    <img src=""images/schematic_sequence/supermarket_scheme/supermarket_scheme_2.png"" class=""exp-image"">
                    <div class=""question-area""></div> 
                </div>","null","","","","","","","","",""
"","","","","","html-button-response","41","535578","0.0-41.0","82BDBE19794C48C48192BB48EFEBF8B8","019cf475-0265-7139-9c72-161ec162b06d","019cf064-09e4-79bc-8453-421c166e6722","","756","
                <div class=""stimulus-container"">
                    <img src=""images/schematic_sequence/supermarket_scheme/supermarket_scheme_2.png"" class=""exp-image"">
                    <div class=""question-area"">
                        <p style=""font-size: 20px; font-weight: bold; margin: 0;"">Is there a person in this image?</p>
                    </div>
                </div>","1","main_experiment_trial","2","supermarket_scheme","schematic_sequence","","","","",""
"","","","","","html-keyboard-response","42","540580","0.0-42.0","82BDBE19794C48C48192BB48EFEBF8B8","019cf475-0265-7139-9c72-161ec162b06d","019cf064-09e4-79bc-8453-421c166e6722","","null","
                <div class=""stimulus-container"">
                    <img src=""images/schematic_sequence/supermarket_scheme/supermarket_scheme_3.png"" class=""exp-image"">
                    <div class=""question-area""></div> 
                </div>","null","","","","","","","","",""
"","","","","","html-button-response","43","541444","0.0-43.0","82BDBE19794C48C48192BB48EFEBF8B8","019cf475-0265-7139-9c72-161ec162b06d","019cf064-09e4-79bc-8453-421c166e6722","","863","
                <div class=""stimulus-container"">
                    <img src=""images/schematic_sequence/supermarket_scheme/supermarket_scheme_3.png"" class=""exp-image"">
                    <div class=""question-area"">
                        <p style=""font-size: 20px; font-weight: bold; margin: 0;"">Is there a person in this image?</p>
                    </div>
                </div>","1","main_experiment_trial","3","supermarket_scheme","schematic_sequence","","","","",""
"","","","","","html-keyboard-response","44","546445","0.0-44.0","82BDBE19794C48C48192BB48EFEBF8B8","019cf475-0265-7139-9c72-161ec162b06d","019cf064-09e4-79bc-8453-421c166e6722","","null","
                <div class=""stimulus-container"">
                    <img src=""images/schematic_sequence/supermarket_scheme/supermarket_scheme_4.png"" class=""exp-image"">
                    <div class=""question-area""></div> 
                </div>","null","","","","","","","","",""
"","","","","","html-button-response","45","547626","0.0-45.0","82BDBE19794C48C48192BB48EFEBF8B8","019cf475-0265-7139-9c72-161ec162b06d","019cf064-09e4-79bc-8453-421c166e6722","","1181","
                <div class=""stimulus-container"">
                    <img src=""images/schematic_sequence/supermarket_scheme/supermarket_scheme_4.png"" class=""exp-image"">
                    <div class=""question-area"">
                        <p style=""font-size: 20px; font-weight: bold; margin: 0;"">Is there a person in this image?</p>
                    </div>
                </div>","0","main_experiment_trial","4","supermarket_scheme","schematic_sequence","","","","",""
"","","","","","html-keyboard-response","46","552628","0.0-46.0","82BDBE19794C48C48192BB48EFEBF8B8","019cf475-0265-7139-9c72-161ec162b06d","019cf064-09e4-79bc-8453-421c166e6722","","null","
                <div class=""stimulus-container"">
                    <img src=""images/schematic_sequence/supermarket_scheme/supermarket_scheme_5.png"" class=""exp-image"">
                    <div class=""question-area""></div> 
                </div>","null","","","","","","","","",""
"","","","","","html-button-response","47","553884","0.0-47.0","82BDBE19794C48C48192BB48EFEBF8B8","019cf475-0265-7139-9c72-161ec162b06d","019cf064-09e4-79bc-8453-421c166e6722","","1255","
                <div class=""stimulus-container"">
                    <img src=""images/schematic_sequence/supermarket_scheme/supermarket_scheme_5.png"" class=""exp-image"">
                    <div class=""question-area"">
                        <p style=""font-size: 20px; font-weight: bold; margin: 0;"">Is there a person in this image?</p>
                    </div>
                </div>","1","main_experiment_trial","5","supermarket_scheme","schematic_sequence","","","","",""
"","","","","","html-keyboard-response","48","558878","0.0-48.0","82BDBE19794C48C48192BB48EFEBF8B8","019cf475-0265-7139-9c72-161ec162b06d","019cf064-09e4-79bc-8453-421c166e6722","","null","
                <div class=""stimulus-container"">
                    <img src=""images/schematic_sequence/supermarket_scheme/supermarket_scheme_6.png"" class=""exp-image"">
                    <div class=""question-area""></div> 
                </div>","null","","","","","","","","",""
"","","","","","html-button-response","49","559519","0.0-49.0","82BDBE19794C48C48192BB48EFEBF8B8","019cf475-0265-7139-9c72-161ec162b06d","019cf064-09e4-79bc-8453-421c166e6722","","642","
                <div class=""stimulus-container"">
                    <img src=""images/schematic_sequence/supermarket_scheme/supermarket_scheme_6.png"" class=""exp-image"">
                    <div class=""question-area"">
                        <p style=""font-size: 20px; font-weight: bold; margin: 0;"">Is there a person in this image?</p>
                    </div>
                </div>","0","main_experiment_trial","6","supermarket_scheme","schematic_sequence","","","","",""
"","","","","","html-keyboard-response","50","564514","0.0-50.0","82BDBE19794C48C48192BB48EFEBF8B8","019cf475-0265-7139-9c72-161ec162b06d","019cf064-09e4-79bc-8453-421c166e6722","","null","
                <div class=""stimulus-container"">
                    <img src=""images/schematic_sequence/supermarket_scheme/supermarket_scheme_7.png"" class=""exp-image"">
                    <div class=""question-area""></div> 
                </div>","null","","","","","","","","",""
"","","","","","html-button-response","51","565299","0.0-51.0","82BDBE19794C48C48192BB48EFEBF8B8","019cf475-0265-7139-9c72-161ec162b06d","019cf064-09e4-79bc-8453-421c166e6722","","785","
                <div class=""stimulus-container"">
                    <img src=""images/schematic_sequence/supermarket_scheme/supermarket_scheme_7.png"" class=""exp-image"">
                    <div class=""question-area"">
                        <p style=""font-size: 20px; font-weight: bold; margin: 0;"">Is there a person in this image?</p>
                    </div>
                </div>","0","main_experiment_trial","7","supermarket_scheme","schematic_sequence","","","","",""
"","","","","","html-keyboard-response","52","570294","0.0-52.0","82BDBE19794C48C48192BB48EFEBF8B8","019cf475-0265-7139-9c72-161ec162b06d","019cf064-09e4-79bc-8453-421c166e6722","","null","
                <div class=""stimulus-container"">
                    <img src=""images/schematic_sequence/supermarket_scheme/supermarket_scheme_8.png"" class=""exp-image"">
                    <div class=""question-area""></div> 
                </div>","null","","","","","","","","",""
"","","","","","html-button-response","53","570806","0.0-53.0","82BDBE19794C48C48192BB48EFEBF8B8","019cf475-0265-7139-9c72-161ec162b06d","019cf064-09e4-79bc-8453-421c166e6722","","512","
                <div class=""stimulus-container"">
                    <img src=""images/schematic_sequence/supermarket_scheme/supermarket_scheme_8.png"" class=""exp-image"">
                    <div class=""question-area"">
                        <p style=""font-size: 20px; font-weight: bold; margin: 0;"">Is there a person in this image?</p>
                    </div>
                </div>","0","main_experiment_trial","8","supermarket_scheme","schematic_sequence","","","","",""
"","","","","","html-keyboard-response","54","575805","0.0-54.0","82BDBE19794C48C48192BB48EFEBF8B8","019cf475-0265-7139-9c72-161ec162b06d","019cf064-09e4-79bc-8453-421c166e6722","","null","
                <div class=""stimulus-container"">
                    <img src=""images/schematic_sequence/supermarket_scheme/supermarket_scheme_9.png"" class=""exp-image"">
                    <div class=""question-area""></div> 
                </div>","null","","","","","","","","",""
"","","","","","html-button-response","55","576329","0.0-55.0","82BDBE19794C48C48192BB48EFEBF8B8","019cf475-0265-7139-9c72-161ec162b06d","019cf064-09e4-79bc-8453-421c166e6722","","524","
                <div class=""stimulus-container"">
                    <img src=""images/schematic_sequence/supermarket_scheme/supermarket_scheme_9.png"" class=""exp-image"">
                    <div class=""question-area"">
                        <p style=""font-size: 20px; font-weight: bold; margin: 0;"">Is there a person in this image?</p>
                    </div>
                </div>","0","main_experiment_trial","9","supermarket_scheme","schematic_sequence","","","","",""
"","","","","","html-keyboard-response","56","581328","0.0-56.0","82BDBE19794C48C48192BB48EFEBF8B8","019cf475-0265-7139-9c72-161ec162b06d","019cf064-09e4-79bc-8453-421c166e6722","","null","
                <div class=""stimulus-container"">
                    <img src=""images/schematic_sequence/supermarket_scheme/supermarket_scheme_ten.png"" class=""exp-image"">
                    <div class=""question-area""></div> 
                </div>","null","","","","","","","","",""
"","","","","","html-button-response","57","582642","0.0-57.0","82BDBE19794C48C48192BB48EFEBF8B8","019cf475-0265-7139-9c72-161ec162b06d","019cf064-09e4-79bc-8453-421c166e6722","","1313","
                <div class=""stimulus-container"">
                    <img src=""images/schematic_sequence/supermarket_scheme/supermarket_scheme_ten.png"" class=""exp-image"">
                    <div class=""question-area"">
                        <p style=""font-size: 20px; font-weight: bold; margin: 0;"">Is there a person in this image?</p>
                    </div>
                </div>","1","main_experiment_trial","ten","supermarket_scheme","schematic_sequence","","","","",""
"","","","","","html-keyboard-response","58","583643","0.0-58.0","82BDBE19794C48C48192BB48EFEBF8B8","019cf475-0265-7139-9c72-161ec162b06d","019cf064-09e4-79bc-8453-421c166e6722","","null","<div style=""background-color: white; width: 100vw; height: 100vh;""></div>","null","","","","","","","","",""
"","","","","","html-keyboard-response","59","588644","0.0-59.0","82BDBE19794C48C48192BB48EFEBF8B8","019cf475-0265-7139-9c72-161ec162b06d","019cf064-09e4-79bc-8453-421c166e6722","","null","
                <div class=""stimulus-container"">
                    <img src=""images/schematic_sequence/flight_scheme/flight_scheme_1.png"" class=""exp-image"">
                    <div class=""question-area""></div> 
                </div>","null","","","","","","","","",""
"","","","","","html-button-response","60","589462","0.0-60.0","82BDBE19794C48C48192BB48EFEBF8B8","019cf475-0265-7139-9c72-161ec162b06d","019cf064-09e4-79bc-8453-421c166e6722","","817","
                <div class=""stimulus-container"">
                    <img src=""images/schematic_sequence/flight_scheme/flight_scheme_1.png"" class=""exp-image"">
                    <div class=""question-area"">
                        <p style=""font-size: 20px; font-weight: bold; margin: 0;"">Is there a person in this image?</p>
                    </div>
                </div>","0","main_experiment_trial","1","flight_scheme","schematic_sequence","","","","",""
"","","","","","html-keyboard-response","61","594463","0.0-61.0","82BDBE19794C48C48192BB48EFEBF8B8","019cf475-0265-7139-9c72-161ec162b06d","019cf064-09e4-79bc-8453-421c166e6722","","null","
                <div class=""stimulus-container"">
                    <img src=""images/schematic_sequence/flight_scheme/flight_scheme_2.png"" class=""exp-image"">
                    <div class=""question-area""></div> 
                </div>","null","","","","","","","","",""
"","","","","","html-button-response","62","595192","0.0-62.0","82BDBE19794C48C48192BB48EFEBF8B8","019cf475-0265-7139-9c72-161ec162b06d","019cf064-09e4-79bc-8453-421c166e6722","","729","
                <div class=""stimulus-container"">
                    <img src=""images/schematic_sequence/flight_scheme/flight_scheme_2.png"" class=""exp-image"">
                    <div class=""question-area"">
                        <p style=""font-size: 20px; font-weight: bold; margin: 0;"">Is there a person in this image?</p>
                    </div>
                </div>","1","main_experiment_trial","2","flight_scheme","schematic_sequence","","","","",""
"","","","","","html-keyboard-response","63","600194","0.0-63.0","82BDBE19794C48C48192BB48EFEBF8B8","019cf475-0265-7139-9c72-161ec162b06d","019cf064-09e4-79bc-8453-421c166e6722","","null","
                <div class=""stimulus-container"">
                    <img src=""images/schematic_sequence/flight_scheme/flight_scheme_3.png"" class=""exp-image"">
                    <div class=""question-area""></div> 
                </div>","null","","","","","","","","",""
"","","","","","html-button-response","64","600731","0.0-64.0","82BDBE19794C48C48192BB48EFEBF8B8","019cf475-0265-7139-9c72-161ec162b06d","019cf064-09e4-79bc-8453-421c166e6722","","537","
                <div class=""stimulus-container"">
                    <img src=""images/schematic_sequence/flight_scheme/flight_scheme_3.png"" class=""exp-image"">
                    <div class=""question-area"">
                        <p style=""font-size: 20px; font-weight: bold; margin: 0;"">Is there a person in this image?</p>
                    </div>
                </div>","0","main_experiment_trial","3","flight_scheme","schematic_sequence","","","","",""
"","","","","","html-keyboard-response","65","605731","0.0-65.0","82BDBE19794C48C48192BB48EFEBF8B8","019cf475-0265-7139-9c72-161ec162b06d","019cf064-09e4-79bc-8453-421c166e6722","","null","
                <div class=""stimulus-container"">
                    <img src=""images/schematic_sequence/flight_scheme/flight_scheme_4.png"" class=""exp-image"">
                    <div class=""question-area""></div> 
                </div>","null","","","","","","","","",""
"","","","","","html-button-response","66","606321","0.0-66.0","82BDBE19794C48C48192BB48EFEBF8B8","019cf475-0265-7139-9c72-161ec162b06d","019cf064-09e4-79bc-8453-421c166e6722","","589","
                <div class=""stimulus-container"">
                    <img src=""images/schematic_sequence/flight_scheme/flight_scheme_4.png"" class=""exp-image"">
                    <div class=""question-area"">
                        <p style=""font-size: 20px; font-weight: bold; margin: 0;"">Is there a person in this image?</p>
                    </div>
                </div>","0","main_experiment_trial","4","flight_scheme","schematic_sequence","","","","",""
"","","","","","html-keyboard-response","67","611323","0.0-67.0","82BDBE19794C48C48192BB48EFEBF8B8","019cf475-0265-7139-9c72-161ec162b06d","019cf064-09e4-79bc-8453-421c166e6722","","null","
                <div class=""stimulus-container"">
                    <img src=""images/schematic_sequence/flight_scheme/flight_scheme_5.png"" class=""exp-image"">
                    <div class=""question-area""></div> 
                </div>","null","","","","","","","","",""
"","","","","","html-button-response","68","612126","0.0-68.0","82BDBE19794C48C48192BB48EFEBF8B8","019cf475-0265-7139-9c72-161ec162b06d","019cf064-09e4-79bc-8453-421c166e6722","","803","
                <div class=""stimulus-container"">
                    <img src=""images/schematic_sequence/flight_scheme/flight_scheme_5.png"" class=""exp-image"">
                    <div class=""question-area"">
                        <p style=""font-size: 20px; font-weight: bold; margin: 0;"">Is there a person in this image?</p>
                    </div>
                </div>","0","main_experiment_trial","5","flight_scheme","schematic_sequence","","","","",""
"","","","","","html-keyboard-response","69","617127","0.0-69.0","82BDBE19794C48C48192BB48EFEBF8B8","019cf475-0265-7139-9c72-161ec162b06d","019cf064-09e4-79bc-8453-421c166e6722","","null","
                <div class=""stimulus-container"">
                    <img src=""images/schematic_sequence/flight_scheme/flight_scheme_6.png"" class=""exp-image"">
                    <div class=""question-area""></div> 
                </div>","null","","","","","","","","",""
"","","","","","html-button-response","70","617856","0.0-70.0","82BDBE19794C48C48192BB48EFEBF8B8","019cf475-0265-7139-9c72-161ec162b06d","019cf064-09e4-79bc-8453-421c166e6722","","728","
                <div class=""stimulus-container"">
                    <img src=""images/schematic_sequence/flight_scheme/flight_scheme_6.png"" class=""exp-image"">
                    <div class=""question-area"">
                        <p style=""font-size: 20px; font-weight: bold; margin: 0;"">Is there a person in this image?</p>
                    </div>
                </div>","1","main_experiment_trial","6","flight_scheme","schematic_sequence","","","","",""
"","","","","","html-keyboard-response","71","622857","0.0-71.0","82BDBE19794C48C48192BB48EFEBF8B8","019cf475-0265-7139-9c72-161ec162b06d","019cf064-09e4-79bc-8453-421c166e6722","","null","
                <div class=""stimulus-container"">
                    <img src=""images/schematic_sequence/flight_scheme/flight_scheme_7.png"" class=""exp-image"">
                    <div class=""question-area""></div> 
                </div>","null","","","","","","","","",""
"","","","","","html-button-response","72","624006","0.0-72.0","82BDBE19794C48C48192BB48EFEBF8B8","019cf475-0265-7139-9c72-161ec162b06d","019cf064-09e4-79bc-8453-421c166e6722","","1149","
                <div class=""stimulus-container"">
                    <img src=""images/schematic_sequence/flight_scheme/flight_scheme_7.png"" class=""exp-image"">
                    <div class=""question-area"">
                        <p style=""font-size: 20px; font-weight: bold; margin: 0;"">Is there a person in this image?</p>
                    </div>
                </div>","0","main_experiment_trial","7","flight_scheme","schematic_sequence","","","","",""
"","","","","","html-keyboard-response","73","629009","0.0-73.0","82BDBE19794C48C48192BB48EFEBF8B8","019cf475-0265-7139-9c72-161ec162b06d","019cf064-09e4-79bc-8453-421c166e6722","","null","
                <div class=""stimulus-container"">
                    <img src=""images/schematic_sequence/flight_scheme/flight_scheme_8.png"" class=""exp-image"">
                    <div class=""question-area""></div> 
                </div>","null","","","","","","","","",""
"","","","","","html-button-response","74","632012","0.0-74.0","82BDBE19794C48C48192BB48EFEBF8B8","019cf475-0265-7139-9c72-161ec162b06d","019cf064-09e4-79bc-8453-421c166e6722","","null","
                <div class=""stimulus-container"">
                    <img src=""images/schematic_sequence/flight_scheme/flight_scheme_8.png"" class=""exp-image"">
                    <div class=""question-area"">
                        <p style=""font-size: 20px; font-weight: bold; margin: 0;"">Is there a person in this image?</p>
                    </div>
                </div>","null","main_experiment_trial","8","flight_scheme","schematic_sequence","","","","",""
"","","","","","html-keyboard-response","75","637012","0.0-75.0","82BDBE19794C48C48192BB48EFEBF8B8","019cf475-0265-7139-9c72-161ec162b06d","019cf064-09e4-79bc-8453-421c166e6722","","null","
                <div class=""stimulus-container"">
                    <img src=""images/schematic_sequence/flight_scheme/flight_scheme_9.png"" class=""exp-image"">
                    <div class=""question-area""></div> 
                </div>","null","","","","","","","","",""
"","","","","","html-button-response","76","637458","0.0-76.0","82BDBE19794C48C48192BB48EFEBF8B8","019cf475-0265-7139-9c72-161ec162b06d","019cf064-09e4-79bc-8453-421c166e6722","","445","
                <div class=""stimulus-container"">
                    <img src=""images/schematic_sequence/flight_scheme/flight_scheme_9.png"" class=""exp-image"">
                    <div class=""question-area"">
                        <p style=""font-size: 20px; font-weight: bold; margin: 0;"">Is there a person in this image?</p>
                    </div>
                </div>","0","main_experiment_trial","9","flight_scheme","schematic_sequence","","","","",""
"","","","","","html-keyboard-response","77","642459","0.0-77.0","82BDBE19794C48C48192BB48EFEBF8B8","019cf475-0265-7139-9c72-161ec162b06d","019cf064-09e4-79bc-8453-421c166e6722","","null","
                <div class=""stimulus-container"">
                    <img src=""images/schematic_sequence/flight_scheme/flight_scheme_ten.png"" class=""exp-image"">
                    <div class=""question-area""></div> 
                </div>","null","","","","","","","","",""
"","","","","","html-button-response","78","642939","0.0-78.0","82BDBE19794C48C48192BB48EFEBF8B8","019cf475-0265-7139-9c72-161ec162b06d","019cf064-09e4-79bc-8453-421c166e6722","","479","
                <div class=""stimulus-container"">
                    <img src=""images/schematic_sequence/flight_scheme/flight_scheme_ten.png"" class=""exp-image"">
                    <div class=""question-area"">
                        <p style=""font-size: 20px; font-weight: bold; margin: 0;"">Is there a person in this image?</p>
                    </div>
                </div>","0","main_experiment_trial","ten","flight_scheme","schematic_sequence","","","","",""
"","","","","","html-keyboard-response","79","643940","0.0-79.0","82BDBE19794C48C48192BB48EFEBF8B8","019cf475-0265-7139-9c72-161ec162b06d","019cf064-09e4-79bc-8453-421c166e6722","","null","<div style=""background-color: white; width: 100vw; height: 100vh;""></div>","null","","","","","","","","",""
"","","","","","html-keyboard-response","80","648942","0.0-80.0","82BDBE19794C48C48192BB48EFEBF8B8","019cf475-0265-7139-9c72-161ec162b06d","019cf064-09e4-79bc-8453-421c166e6722","","null","
                <div class=""stimulus-container"">
                    <img src=""images/causal_sequence/dog_causal/dog_causal_1.png"" class=""exp-image"">
                    <div class=""question-area""></div> 
                </div>","null","","","","","","","","",""
"","","","","","html-button-response","81","649592","0.0-81.0","82BDBE19794C48C48192BB48EFEBF8B8","019cf475-0265-7139-9c72-161ec162b06d","019cf064-09e4-79bc-8453-421c166e6722","","649","
                <div class=""stimulus-container"">
                    <img src=""images/causal_sequence/dog_causal/dog_causal_1.png"" class=""exp-image"">
                    <div class=""question-area"">
                        <p style=""font-size: 20px; font-weight: bold; margin: 0;"">Is there a person in this image?</p>
                    </div>
                </div>","0","main_experiment_trial","1","dog_causal","causal_sequence","","","","",""
"","","","","","html-keyboard-response","82","654594","0.0-82.0","82BDBE19794C48C48192BB48EFEBF8B8","019cf475-0265-7139-9c72-161ec162b06d","019cf064-09e4-79bc-8453-421c166e6722","","null","
                <div class=""stimulus-container"">
                    <img src=""images/causal_sequence/dog_causal/dog_causal_2.png"" class=""exp-image"">
                    <div class=""question-area""></div> 
                </div>","null","","","","","","","","",""
"","","","","","html-button-response","83","655559","0.0-83.0","82BDBE19794C48C48192BB48EFEBF8B8","019cf475-0265-7139-9c72-161ec162b06d","019cf064-09e4-79bc-8453-421c166e6722","","965","
                <div class=""stimulus-container"">
                    <img src=""images/causal_sequence/dog_causal/dog_causal_2.png"" class=""exp-image"">
                    <div class=""question-area"">
                        <p style=""font-size: 20px; font-weight: bold; margin: 0;"">Is there a person in this image?</p>
                    </div>
                </div>","0","main_experiment_trial","2","dog_causal","causal_sequence","","","","",""
"","","","","","html-keyboard-response","84","660562","0.0-84.0","82BDBE19794C48C48192BB48EFEBF8B8","019cf475-0265-7139-9c72-161ec162b06d","019cf064-09e4-79bc-8453-421c166e6722","","null","
                <div class=""stimulus-container"">
                    <img src=""images/causal_sequence/dog_causal/dog_causal_3.png"" class=""exp-image"">
                    <div class=""question-area""></div> 
                </div>","null","","","","","","","","",""
"","","","","","html-button-response","85","661304","0.0-85.0","82BDBE19794C48C48192BB48EFEBF8B8","019cf475-0265-7139-9c72-161ec162b06d","019cf064-09e4-79bc-8453-421c166e6722","","742","
                <div class=""stimulus-container"">
                    <img src=""images/causal_sequence/dog_causal/dog_causal_3.png"" class=""exp-image"">
                    <div class=""question-area"">
                        <p style=""font-size: 20px; font-weight: bold; margin: 0;"">Is there a person in this image?</p>
                    </div>
                </div>","0","main_experiment_trial","3","dog_causal","causal_sequence","","","","",""
"","","","","","html-keyboard-response","86","666306","0.0-86.0","82BDBE19794C48C48192BB48EFEBF8B8","019cf475-0265-7139-9c72-161ec162b06d","019cf064-09e4-79bc-8453-421c166e6722","","null","
                <div class=""stimulus-container"">
                    <img src=""images/causal_sequence/dog_causal/dog_causal_4.png"" class=""exp-image"">
                    <div class=""question-area""></div> 
                </div>","null","","","","","","","","",""
"","","","","","html-button-response","87","666841","0.0-87.0","82BDBE19794C48C48192BB48EFEBF8B8","019cf475-0265-7139-9c72-161ec162b06d","019cf064-09e4-79bc-8453-421c166e6722","","533","
                <div class=""stimulus-container"">
                    <img src=""images/causal_sequence/dog_causal/dog_causal_4.png"" class=""exp-image"">
                    <div class=""question-area"">
                        <p style=""font-size: 20px; font-weight: bold; margin: 0;"">Is there a person in this image?</p>
                    </div>
                </div>","0","main_experiment_trial","4","dog_causal","causal_sequence","","","","",""
"","","","","","html-keyboard-response","88","671843","0.0-88.0","82BDBE19794C48C48192BB48EFEBF8B8","019cf475-0265-7139-9c72-161ec162b06d","019cf064-09e4-79bc-8453-421c166e6722","","null","
                <div class=""stimulus-container"">
                    <img src=""images/causal_sequence/dog_causal/dog_causal_5.png"" class=""exp-image"">
                    <div class=""question-area""></div> 
                </div>","null","","","","","","","","",""
"","","","","","html-button-response","89","672383","0.0-89.0","82BDBE19794C48C48192BB48EFEBF8B8","019cf475-0265-7139-9c72-161ec162b06d","019cf064-09e4-79bc-8453-421c166e6722","","540","
                <div class=""stimulus-container"">
                    <img src=""images/causal_sequence/dog_causal/dog_causal_5.png"" class=""exp-image"">
                    <div class=""question-area"">
                        <p style=""font-size: 20px; font-weight: bold; margin: 0;"">Is there a person in this image?</p>
                    </div>
                </div>","0","main_experiment_trial","5","dog_causal","causal_sequence","","","","",""
"","","","","","html-keyboard-response","90","677385","0.0-90.0","82BDBE19794C48C48192BB48EFEBF8B8","019cf475-0265-7139-9c72-161ec162b06d","019cf064-09e4-79bc-8453-421c166e6722","","null","
                <div class=""stimulus-container"">
                    <img src=""images/causal_sequence/dog_causal/dog_causal_6.png"" class=""exp-image"">
                    <div class=""question-area""></div> 
                </div>","null","","","","","","","","",""
"","","","","","html-button-response","91","678051","0.0-91.0","82BDBE19794C48C48192BB48EFEBF8B8","019cf475-0265-7139-9c72-161ec162b06d","019cf064-09e4-79bc-8453-421c166e6722","","665","
                <div class=""stimulus-container"">
                    <img src=""images/causal_sequence/dog_causal/dog_causal_6.png"" class=""exp-image"">
                    <div class=""question-area"">
                        <p style=""font-size: 20px; font-weight: bold; margin: 0;"">Is there a person in this image?</p>
                    </div>
                </div>","0","main_experiment_trial","6","dog_causal","causal_sequence","","","","",""
"","","","","","html-keyboard-response","92","683053","0.0-92.0","82BDBE19794C48C48192BB48EFEBF8B8","019cf475-0265-7139-9c72-161ec162b06d","019cf064-09e4-79bc-8453-421c166e6722","","null","
                <div class=""stimulus-container"">
                    <img src=""images/causal_sequence/dog_causal/dog_causal_7.png"" class=""exp-image"">
                    <div class=""question-area""></div> 
                </div>","null","","","","","","","","",""
"","","","","","html-button-response","93","683601","0.0-93.0","82BDBE19794C48C48192BB48EFEBF8B8","019cf475-0265-7139-9c72-161ec162b06d","019cf064-09e4-79bc-8453-421c166e6722","","547","
                <div class=""stimulus-container"">
                    <img src=""images/causal_sequence/dog_causal/dog_causal_7.png"" class=""exp-image"">
                    <div class=""question-area"">
                        <p style=""font-size: 20px; font-weight: bold; margin: 0;"">Is there a person in this image?</p>
                    </div>
                </div>","0","main_experiment_trial","7","dog_causal","causal_sequence","","","","",""
"","","","","","html-keyboard-response","94","688602","0.0-94.0","82BDBE19794C48C48192BB48EFEBF8B8","019cf475-0265-7139-9c72-161ec162b06d","019cf064-09e4-79bc-8453-421c166e6722","","null","
                <div class=""stimulus-container"">
                    <img src=""images/causal_sequence/dog_causal/dog_causal_8.png"" class=""exp-image"">
                    <div class=""question-area""></div> 
                </div>","null","","","","","","","","",""
"","","","","","html-button-response","95","689085","0.0-95.0","82BDBE19794C48C48192BB48EFEBF8B8","019cf475-0265-7139-9c72-161ec162b06d","019cf064-09e4-79bc-8453-421c166e6722","","482","
                <div class=""stimulus-container"">
                    <img src=""images/causal_sequence/dog_causal/dog_causal_8.png"" class=""exp-image"">
                    <div class=""question-area"">
                        <p style=""font-size: 20px; font-weight: bold; margin: 0;"">Is there a person in this image?</p>
                    </div>
                </div>","0","main_experiment_trial","8","dog_causal","causal_sequence","","","","",""
"","","","","","html-keyboard-response","96","694087","0.0-96.0","82BDBE19794C48C48192BB48EFEBF8B8","019cf475-0265-7139-9c72-161ec162b06d","019cf064-09e4-79bc-8453-421c166e6722","","null","
                <div class=""stimulus-container"">
                    <img src=""images/causal_sequence/dog_causal/dog_causal_9.png"" class=""exp-image"">
                    <div class=""question-area""></div> 
                </div>","null","","","","","","","","",""
"","","","","","html-button-response","97","694765","0.0-97.0","82BDBE19794C48C48192BB48EFEBF8B8","019cf475-0265-7139-9c72-161ec162b06d","019cf064-09e4-79bc-8453-421c166e6722","","677","
                <div class=""stimulus-container"">
                    <img src=""images/causal_sequence/dog_causal/dog_causal_9.png"" class=""exp-image"">
                    <div class=""question-area"">
                        <p style=""font-size: 20px; font-weight: bold; margin: 0;"">Is there a person in this image?</p>
                    </div>
                </div>","0","main_experiment_trial","9","dog_causal","causal_sequence","","","","",""
"","","","","","html-keyboard-response","98","699767","0.0-98.0","82BDBE19794C48C48192BB48EFEBF8B8","019cf475-0265-7139-9c72-161ec162b06d","019cf064-09e4-79bc-8453-421c166e6722","","null","
                <div class=""stimulus-container"">
                    <img src=""images/causal_sequence/dog_causal/dog_causal_ten.png"" class=""exp-image"">
                    <div class=""question-area""></div> 
                </div>","null","","","","","","","","",""
"","","","","","html-button-response","99","700661","0.0-99.0","82BDBE19794C48C48192BB48EFEBF8B8","019cf475-0265-7139-9c72-161ec162b06d","019cf064-09e4-79bc-8453-421c166e6722","","893","
                <div class=""stimulus-container"">
                    <img src=""images/causal_sequence/dog_causal/dog_causal_ten.png"" class=""exp-image"">
                    <div class=""question-area"">
                        <p style=""font-size: 20px; font-weight: bold; margin: 0;"">Is there a person in this image?</p>
                    </div>
                </div>","0","main_experiment_trial","ten","dog_causal","causal_sequence","","","","",""
"","","","","","html-keyboard-response","100","701663","0.0-100.0","82BDBE19794C48C48192BB48EFEBF8B8","019cf475-0265-7139-9c72-161ec162b06d","019cf064-09e4-79bc-8453-421c166e6722","","null","<div style=""background-color: white; width: 100vw; height: 100vh;""></div>","null","","","","","","","","",""
"","","","","","html-keyboard-response","101","706665","0.0-101.0","82BDBE19794C48C48192BB48EFEBF8B8","019cf475-0265-7139-9c72-161ec162b06d","019cf064-09e4-79bc-8453-421c166e6722","","null","
                <div class=""stimulus-container"">
                    <img src=""images/causal_sequence/museum_causal/museum_causal_1.png"" class=""exp-image"">
                    <div class=""question-area""></div> 
                </div>","null","","","","","","","","",""
"","","","","","html-button-response","102","707418","0.0-102.0","82BDBE19794C48C48192BB48EFEBF8B8","019cf475-0265-7139-9c72-161ec162b06d","019cf064-09e4-79bc-8453-421c166e6722","","753","
                <div class=""stimulus-container"">
                    <img src=""images/causal_sequence/museum_causal/museum_causal_1.png"" class=""exp-image"">
                    <div class=""question-area"">
                        <p style=""font-size: 20px; font-weight: bold; margin: 0;"">Is there a person in this image?</p>
                    </div>
                </div>","0","main_experiment_trial","1","museum_causal","causal_sequence","","","","",""
"","","","","","html-keyboard-response","103","712419","0.0-103.0","82BDBE19794C48C48192BB48EFEBF8B8","019cf475-0265-7139-9c72-161ec162b06d","019cf064-09e4-79bc-8453-421c166e6722","","null","
                <div class=""stimulus-container"">
                    <img src=""images/causal_sequence/museum_causal/museum_causal_2.png"" class=""exp-image"">
                    <div class=""question-area""></div> 
                </div>","null","","","","","","","","",""
"","","","","","html-button-response","104","712957","0.0-104.0","82BDBE19794C48C48192BB48EFEBF8B8","019cf475-0265-7139-9c72-161ec162b06d","019cf064-09e4-79bc-8453-421c166e6722","","538","
                <div class=""stimulus-container"">
                    <img src=""images/causal_sequence/museum_causal/museum_causal_2.png"" class=""exp-image"">
                    <div class=""question-area"">
                        <p style=""font-size: 20px; font-weight: bold; margin: 0;"">Is there a person in this image?</p>
                    </div>
                </div>","0","main_experiment_trial","2","museum_causal","causal_sequence","","","","",""
"","","","","","html-keyboard-response","105","717958","0.0-105.0","82BDBE19794C48C48192BB48EFEBF8B8","019cf475-0265-7139-9c72-161ec162b06d","019cf064-09e4-79bc-8453-421c166e6722","","null","
                <div class=""stimulus-container"">
                    <img src=""images/causal_sequence/museum_causal/museum_causal_3.png"" class=""exp-image"">
                    <div class=""question-area""></div> 
                </div>","null","","","","","","","","",""
"","","","","","html-button-response","106","718490","0.0-106.0","82BDBE19794C48C48192BB48EFEBF8B8","019cf475-0265-7139-9c72-161ec162b06d","019cf064-09e4-79bc-8453-421c166e6722","","531","
                <div class=""stimulus-container"">
                    <img src=""images/causal_sequence/museum_causal/museum_causal_3.png"" class=""exp-image"">
                    <div class=""question-area"">
                        <p style=""font-size: 20px; font-weight: bold; margin: 0;"">Is there a person in this image?</p>
                    </div>
                </div>","0","main_experiment_trial","3","museum_causal","causal_sequence","","","","",""
"","","","","","html-keyboard-response","107","723492","0.0-107.0","82BDBE19794C48C48192BB48EFEBF8B8","019cf475-0265-7139-9c72-161ec162b06d","019cf064-09e4-79bc-8453-421c166e6722","","null","
                <div class=""stimulus-container"">
                    <img src=""images/causal_sequence/museum_causal/museum_causal_4.png"" class=""exp-image"">
                    <div class=""question-area""></div> 
                </div>","null","","","","","","","","",""
"","","","","","html-button-response","108","724330","0.0-108.0","82BDBE19794C48C48192BB48EFEBF8B8","019cf475-0265-7139-9c72-161ec162b06d","019cf064-09e4-79bc-8453-421c166e6722","","837","
                <div class=""stimulus-container"">
                    <img src=""images/causal_sequence/museum_causal/museum_causal_4.png"" class=""exp-image"">
                    <div class=""question-area"">
                        <p style=""font-size: 20px; font-weight: bold; margin: 0;"">Is there a person in this image?</p>
                    </div>
                </div>","1","main_experiment_trial","4","museum_causal","causal_sequence","","","","",""
"","","","","","html-keyboard-response","109","729332","0.0-109.0","82BDBE19794C48C48192BB48EFEBF8B8","019cf475-0265-7139-9c72-161ec162b06d","019cf064-09e4-79bc-8453-421c166e6722","","null","
                <div class=""stimulus-container"">
                    <img src=""images/causal_sequence/museum_causal/museum_causal_5.png"" class=""exp-image"">
                    <div class=""question-area""></div> 
                </div>","null","","","","","","","","",""
"","","","","","html-button-response","110","730275","0.0-110.0","82BDBE19794C48C48192BB48EFEBF8B8","019cf475-0265-7139-9c72-161ec162b06d","019cf064-09e4-79bc-8453-421c166e6722","","942","
                <div class=""stimulus-container"">
                    <img src=""images/causal_sequence/museum_causal/museum_causal_5.png"" class=""exp-image"">
                    <div class=""question-area"">
                        <p style=""font-size: 20px; font-weight: bold; margin: 0;"">Is there a person in this image?</p>
                    </div>
                </div>","0","main_experiment_trial","5","museum_causal","causal_sequence","","","","",""
"","","","","","html-keyboard-response","111","735277","0.0-111.0","82BDBE19794C48C48192BB48EFEBF8B8","019cf475-0265-7139-9c72-161ec162b06d","019cf064-09e4-79bc-8453-421c166e6722","","null","
                <div class=""stimulus-container"">
                    <img src=""images/causal_sequence/museum_causal/museum_causal_6.png"" class=""exp-image"">
                    <div class=""question-area""></div> 
                </div>","null","","","","","","","","",""
"","","","","","html-button-response","112","735827","0.0-112.0","82BDBE19794C48C48192BB48EFEBF8B8","019cf475-0265-7139-9c72-161ec162b06d","019cf064-09e4-79bc-8453-421c166e6722","","549","
                <div class=""stimulus-container"">
                    <img src=""images/causal_sequence/museum_causal/museum_causal_6.png"" class=""exp-image"">
                    <div class=""question-area"">
                        <p style=""font-size: 20px; font-weight: bold; margin: 0;"">Is there a person in this image?</p>
                    </div>
                </div>","0","main_experiment_trial","6","museum_causal","causal_sequence","","","","",""
"","","","","","html-keyboard-response","113","740830","0.0-113.0","82BDBE19794C48C48192BB48EFEBF8B8","019cf475-0265-7139-9c72-161ec162b06d","019cf064-09e4-79bc-8453-421c166e6722","","null","
                <div class=""stimulus-container"">
                    <img src=""images/causal_sequence/museum_causal/museum_causal_7.png"" class=""exp-image"">
                    <div class=""question-area""></div> 
                </div>","null","","","","","","","","",""
"","","","","","html-button-response","114","743832","0.0-114.0","82BDBE19794C48C48192BB48EFEBF8B8","019cf475-0265-7139-9c72-161ec162b06d","019cf064-09e4-79bc-8453-421c166e6722","","null","
                <div class=""stimulus-container"">
                    <img src=""images/causal_sequence/museum_causal/museum_causal_7.png"" class=""exp-image"">
                    <div class=""question-area"">
                        <p style=""font-size: 20px; font-weight: bold; margin: 0;"">Is there a person in this image?</p>
                    </div>
                </div>","null","main_experiment_trial","7","museum_causal","causal_sequence","","","","",""
"","","","","","html-keyboard-response","115","748834","0.0-115.0","82BDBE19794C48C48192BB48EFEBF8B8","019cf475-0265-7139-9c72-161ec162b06d","019cf064-09e4-79bc-8453-421c166e6722","","null","
                <div class=""stimulus-container"">
                    <img src=""images/causal_sequence/museum_causal/museum_causal_8.png"" class=""exp-image"">
                    <div class=""question-area""></div> 
                </div>","null","","","","","","","","",""
"","","","","","html-button-response","116","750623","0.0-116.0","82BDBE19794C48C48192BB48EFEBF8B8","019cf475-0265-7139-9c72-161ec162b06d","019cf064-09e4-79bc-8453-421c166e6722","","1788","
                <div class=""stimulus-container"">
                    <img src=""images/causal_sequence/museum_causal/museum_causal_8.png"" class=""exp-image"">
                    <div class=""question-area"">
                        <p style=""font-size: 20px; font-weight: bold; margin: 0;"">Is there a person in this image?</p>
                    </div>
                </div>","0","main_experiment_trial","8","museum_causal","causal_sequence","","","","",""
"","","","","","html-keyboard-response","117","755625","0.0-117.0","82BDBE19794C48C48192BB48EFEBF8B8","019cf475-0265-7139-9c72-161ec162b06d","019cf064-09e4-79bc-8453-421c166e6722","","null","
                <div class=""stimulus-container"">
                    <img src=""images/causal_sequence/museum_causal/museum_causal_9.png"" class=""exp-image"">
                    <div class=""question-area""></div> 
                </div>","null","","","","","","","","",""
"","","","","","html-button-response","118","756756","0.0-118.0","82BDBE19794C48C48192BB48EFEBF8B8","019cf475-0265-7139-9c72-161ec162b06d","019cf064-09e4-79bc-8453-421c166e6722","","1131","
                <div class=""stimulus-container"">
                    <img src=""images/causal_sequence/museum_causal/museum_causal_9.png"" class=""exp-image"">
                    <div class=""question-area"">
                        <p style=""font-size: 20px; font-weight: bold; margin: 0;"">Is there a person in this image?</p>
                    </div>
                </div>","1","main_experiment_trial","9","museum_causal","causal_sequence","","","","",""
"","","","","","html-keyboard-response","119","761758","0.0-119.0","82BDBE19794C48C48192BB48EFEBF8B8","019cf475-0265-7139-9c72-161ec162b06d","019cf064-09e4-79bc-8453-421c166e6722","","null","
                <div class=""stimulus-container"">
                    <img src=""images/causal_sequence/museum_causal/museum_causal_ten.png"" class=""exp-image"">
                    <div class=""question-area""></div> 
                </div>","null","","","","","","","","",""
"","","","","","html-button-response","120","762209","0.0-120.0","82BDBE19794C48C48192BB48EFEBF8B8","019cf475-0265-7139-9c72-161ec162b06d","019cf064-09e4-79bc-8453-421c166e6722","","451","
                <div class=""stimulus-container"">
                    <img src=""images/causal_sequence/museum_causal/museum_causal_ten.png"" class=""exp-image"">
                    <div class=""question-area"">
                        <p style=""font-size: 20px; font-weight: bold; margin: 0;"">Is there a person in this image?</p>
                    </div>
                </div>","0","main_experiment_trial","ten","museum_causal","causal_sequence","","","","",""
"","","","","","html-keyboard-response","121","763210","0.0-121.0","82BDBE19794C48C48192BB48EFEBF8B8","019cf475-0265-7139-9c72-161ec162b06d","019cf064-09e4-79bc-8453-421c166e6722","","null","<div style=""background-color: white; width: 100vw; height: 100vh;""></div>","null","","","","","","","","",""
"","","","","","html-keyboard-response","122","768212","0.0-122.0","82BDBE19794C48C48192BB48EFEBF8B8","019cf475-0265-7139-9c72-161ec162b06d","019cf064-09e4-79bc-8453-421c166e6722","","null","
                <div class=""stimulus-container"">
                    <img src=""images/causal_sequence/the_performance_causal/the_performance_causal_1.png"" class=""exp-image"">
                    <div class=""question-area""></div> 
                </div>","null","","","","","","","","",""
"","","","","","html-button-response","123","768762","0.0-123.0","82BDBE19794C48C48192BB48EFEBF8B8","019cf475-0265-7139-9c72-161ec162b06d","019cf064-09e4-79bc-8453-421c166e6722","","550","
                <div class=""stimulus-container"">
                    <img src=""images/causal_sequence/the_performance_causal/the_performance_causal_1.png"" class=""exp-image"">
                    <div class=""question-area"">
                        <p style=""font-size: 20px; font-weight: bold; margin: 0;"">Is there a person in this image?</p>
                    </div>
                </div>","0","main_experiment_trial","1","the_performance_causal","causal_sequence","","","","",""
"","","","","","html-keyboard-response","124","773764","0.0-124.0","82BDBE19794C48C48192BB48EFEBF8B8","019cf475-0265-7139-9c72-161ec162b06d","019cf064-09e4-79bc-8453-421c166e6722","","null","
                <div class=""stimulus-container"">
                    <img src=""images/causal_sequence/the_performance_causal/the_performance_causal_2.png"" class=""exp-image"">
                    <div class=""question-area""></div> 
                </div>","null","","","","","","","","",""
"","","","","","html-button-response","125","774507","0.0-125.0","82BDBE19794C48C48192BB48EFEBF8B8","019cf475-0265-7139-9c72-161ec162b06d","019cf064-09e4-79bc-8453-421c166e6722","","743","
                <div class=""stimulus-container"">
                    <img src=""images/causal_sequence/the_performance_causal/the_performance_causal_2.png"" class=""exp-image"">
                    <div class=""question-area"">
                        <p style=""font-size: 20px; font-weight: bold; margin: 0;"">Is there a person in this image?</p>
                    </div>
                </div>","0","main_experiment_trial","2","the_performance_causal","causal_sequence","","","","",""
"","","","","","html-keyboard-response","126","779508","0.0-126.0","82BDBE19794C48C48192BB48EFEBF8B8","019cf475-0265-7139-9c72-161ec162b06d","019cf064-09e4-79bc-8453-421c166e6722","","null","
                <div class=""stimulus-container"">
                    <img src=""images/causal_sequence/the_performance_causal/the_performance_causal_3.png"" class=""exp-image"">
                    <div class=""question-area""></div> 
                </div>","null","","","","","","","","",""
"","","","","","html-button-response","127","780201","0.0-127.0","82BDBE19794C48C48192BB48EFEBF8B8","019cf475-0265-7139-9c72-161ec162b06d","019cf064-09e4-79bc-8453-421c166e6722","","692","
                <div class=""stimulus-container"">
                    <img src=""images/causal_sequence/the_performance_causal/the_performance_causal_3.png"" class=""exp-image"">
                    <div class=""question-area"">
                        <p style=""font-size: 20px; font-weight: bold; margin: 0;"">Is there a person in this image?</p>
                    </div>
                </div>","0","main_experiment_trial","3","the_performance_causal","causal_sequence","","","","",""
"","","","","","html-keyboard-response","128","785202","0.0-128.0","82BDBE19794C48C48192BB48EFEBF8B8","019cf475-0265-7139-9c72-161ec162b06d","019cf064-09e4-79bc-8453-421c166e6722","","null","
                <div class=""stimulus-container"">
                    <img src=""images/causal_sequence/the_performance_causal/the_performance_causal_4.png"" class=""exp-image"">
                    <div class=""question-area""></div> 
                </div>","null","","","","","","","","",""
"","","","","","html-button-response","129","785714","0.0-129.0","82BDBE19794C48C48192BB48EFEBF8B8","019cf475-0265-7139-9c72-161ec162b06d","019cf064-09e4-79bc-8453-421c166e6722","","511","
                <div class=""stimulus-container"">
                    <img src=""images/causal_sequence/the_performance_causal/the_performance_causal_4.png"" class=""exp-image"">
                    <div class=""question-area"">
                        <p style=""font-size: 20px; font-weight: bold; margin: 0;"">Is there a person in this image?</p>
                    </div>
                </div>","0","main_experiment_trial","4","the_performance_causal","causal_sequence","","","","",""
"","","","","","html-keyboard-response","130","790715","0.0-130.0","82BDBE19794C48C48192BB48EFEBF8B8","019cf475-0265-7139-9c72-161ec162b06d","019cf064-09e4-79bc-8453-421c166e6722","","null","
                <div class=""stimulus-container"">
                    <img src=""images/causal_sequence/the_performance_causal/the_performance_causal_5.png"" class=""exp-image"">
                    <div class=""question-area""></div> 
                </div>","null","","","","","","","","",""
"","","","","","html-button-response","131","791520","0.0-131.0","82BDBE19794C48C48192BB48EFEBF8B8","019cf475-0265-7139-9c72-161ec162b06d","019cf064-09e4-79bc-8453-421c166e6722","","804","
                <div class=""stimulus-container"">
                    <img src=""images/causal_sequence/the_performance_causal/the_performance_causal_5.png"" class=""exp-image"">
                    <div class=""question-area"">
                        <p style=""font-size: 20px; font-weight: bold; margin: 0;"">Is there a person in this image?</p>
                    </div>
                </div>","0","main_experiment_trial","5","the_performance_causal","causal_sequence","","","","",""
"","","","","","html-keyboard-response","132","796521","0.0-132.0","82BDBE19794C48C48192BB48EFEBF8B8","019cf475-0265-7139-9c72-161ec162b06d","019cf064-09e4-79bc-8453-421c166e6722","","null","
                <div class=""stimulus-container"">
                    <img src=""images/causal_sequence/the_performance_causal/the_performance_causal_6.png"" class=""exp-image"">
                    <div class=""question-area""></div> 
                </div>","null","","","","","","","","",""
"","","","","","html-button-response","133","797011","0.0-133.0","82BDBE19794C48C48192BB48EFEBF8B8","019cf475-0265-7139-9c72-161ec162b06d","019cf064-09e4-79bc-8453-421c166e6722","","489","
                <div class=""stimulus-container"">
                    <img src=""images/causal_sequence/the_performance_causal/the_performance_causal_6.png"" class=""exp-image"">
                    <div class=""question-area"">
                        <p style=""font-size: 20px; font-weight: bold; margin: 0;"">Is there a person in this image?</p>
                    </div>
                </div>","0","main_experiment_trial","6","the_performance_causal","causal_sequence","","","","",""
"","","","","","html-keyboard-response","134","802013","0.0-134.0","82BDBE19794C48C48192BB48EFEBF8B8","019cf475-0265-7139-9c72-161ec162b06d","019cf064-09e4-79bc-8453-421c166e6722","","null","
                <div class=""stimulus-container"">
                    <img src=""images/causal_sequence/the_performance_causal/the_performance_causal_7.png"" class=""exp-image"">
                    <div class=""question-area""></div> 
                </div>","null","","","","","","","","",""
"","","","","","html-button-response","135","802636","0.0-135.0","82BDBE19794C48C48192BB48EFEBF8B8","019cf475-0265-7139-9c72-161ec162b06d","019cf064-09e4-79bc-8453-421c166e6722","","623","
                <div class=""stimulus-container"">
                    <img src=""images/causal_sequence/the_performance_causal/the_performance_causal_7.png"" class=""exp-image"">
                    <div class=""question-area"">
                        <p style=""font-size: 20px; font-weight: bold; margin: 0;"">Is there a person in this image?</p>
                    </div>
                </div>","0","main_experiment_trial","7","the_performance_causal","causal_sequence","","","","",""
"","","","","","html-keyboard-response","136","807638","0.0-136.0","82BDBE19794C48C48192BB48EFEBF8B8","019cf475-0265-7139-9c72-161ec162b06d","019cf064-09e4-79bc-8453-421c166e6722","","null","
                <div class=""stimulus-container"">
                    <img src=""images/causal_sequence/the_performance_causal/the_performance_causal_8.png"" class=""exp-image"">
                    <div class=""question-area""></div> 
                </div>","null","","","","","","","","",""
"","","","","","html-button-response","137","808488","0.0-137.0","82BDBE19794C48C48192BB48EFEBF8B8","019cf475-0265-7139-9c72-161ec162b06d","019cf064-09e4-79bc-8453-421c166e6722","","848","
                <div class=""stimulus-container"">
                    <img src=""images/causal_sequence/the_performance_causal/the_performance_causal_8.png"" class=""exp-image"">
                    <div class=""question-area"">
                        <p style=""font-size: 20px; font-weight: bold; margin: 0;"">Is there a person in this image?</p>
                    </div>
                </div>","0","main_experiment_trial","8","the_performance_causal","causal_sequence","","","","",""
"","","","","","html-keyboard-response","138","813489","0.0-138.0","82BDBE19794C48C48192BB48EFEBF8B8","019cf475-0265-7139-9c72-161ec162b06d","019cf064-09e4-79bc-8453-421c166e6722","","null","
                <div class=""stimulus-container"">
                    <img src=""images/causal_sequence/the_performance_causal/the_performance_causal_9.png"" class=""exp-image"">
                    <div class=""question-area""></div> 
                </div>","null","","","","","","","","",""
"","","","","","html-button-response","139","815602","0.0-139.0","82BDBE19794C48C48192BB48EFEBF8B8","019cf475-0265-7139-9c72-161ec162b06d","019cf064-09e4-79bc-8453-421c166e6722","","2113","
                <div class=""stimulus-container"">
                    <img src=""images/causal_sequence/the_performance_causal/the_performance_causal_9.png"" class=""exp-image"">
                    <div class=""question-area"">
                        <p style=""font-size: 20px; font-weight: bold; margin: 0;"">Is there a person in this image?</p>
                    </div>
                </div>","0","main_experiment_trial","9","the_performance_causal","causal_sequence","","","","",""
"","","","","","html-keyboard-response","140","820603","0.0-140.0","82BDBE19794C48C48192BB48EFEBF8B8","019cf475-0265-7139-9c72-161ec162b06d","019cf064-09e4-79bc-8453-421c166e6722","","null","
                <div class=""stimulus-container"">
                    <img src=""images/causal_sequence/the_performance_causal/the_performance_causal_ten.png"" class=""exp-image"">
                    <div class=""question-area""></div> 
                </div>","null","","","","","","","","",""
"","","","","","html-button-response","141","821337","0.0-141.0","82BDBE19794C48C48192BB48EFEBF8B8","019cf475-0265-7139-9c72-161ec162b06d","019cf064-09e4-79bc-8453-421c166e6722","","733","
                <div class=""stimulus-container"">
                    <img src=""images/causal_sequence/the_performance_causal/the_performance_causal_ten.png"" class=""exp-image"">
                    <div class=""question-area"">
                        <p style=""font-size: 20px; font-weight: bold; margin: 0;"">Is there a person in this image?</p>
                    </div>
                </div>","0","main_experiment_trial","ten","the_performance_causal","causal_sequence","","","","",""
"","","","","","html-keyboard-response","142","822339","0.0-142.0","82BDBE19794C48C48192BB48EFEBF8B8","019cf475-0265-7139-9c72-161ec162b06d","019cf064-09e4-79bc-8453-421c166e6722","","null","<div style=""background-color: white; width: 100vw; height: 100vh;""></div>","null","","","","","","","","",""
"","","","","","html-keyboard-response","143","827341","0.0-143.0","82BDBE19794C48C48192BB48EFEBF8B8","019cf475-0265-7139-9c72-161ec162b06d","019cf064-09e4-79bc-8453-421c166e6722","","null","
                <div class=""stimulus-container"">
                    <img src=""images/causal_sequence/package_causal/package_causal_1.png"" class=""exp-image"">
                    <div class=""question-area""></div> 
                </div>","null","","","","","","","","",""
"","","","","","html-button-response","144","828206","0.0-144.0","82BDBE19794C48C48192BB48EFEBF8B8","019cf475-0265-7139-9c72-161ec162b06d","019cf064-09e4-79bc-8453-421c166e6722","","864","
                <div class=""stimulus-container"">
                    <img src=""images/causal_sequence/package_causal/package_causal_1.png"" class=""exp-image"">
                    <div class=""question-area"">
                        <p style=""font-size: 20px; font-weight: bold; margin: 0;"">Is there a person in this image?</p>
                    </div>
                </div>","0","main_experiment_trial","1","package_causal","causal_sequence","","","","",""
"","","","","","html-keyboard-response","145","833207","0.0-145.0","82BDBE19794C48C48192BB48EFEBF8B8","019cf475-0265-7139-9c72-161ec162b06d","019cf064-09e4-79bc-8453-421c166e6722","","null","
                <div class=""stimulus-container"">
                    <img src=""images/causal_sequence/package_causal/package_causal_2.png"" class=""exp-image"">
                    <div class=""question-area""></div> 
                </div>","null","","","","","","","","",""
"","","","","","html-button-response","146","834100","0.0-146.0","82BDBE19794C48C48192BB48EFEBF8B8","019cf475-0265-7139-9c72-161ec162b06d","019cf064-09e4-79bc-8453-421c166e6722","","892","
                <div class=""stimulus-container"">
                    <img src=""images/causal_sequence/package_causal/package_causal_2.png"" class=""exp-image"">
                    <div class=""question-area"">
                        <p style=""font-size: 20px; font-weight: bold; margin: 0;"">Is there a person in this image?</p>
                    </div>
                </div>","0","main_experiment_trial","2","package_causal","causal_sequence","","","","",""
"","","","","","html-keyboard-response","147","839101","0.0-147.0","82BDBE19794C48C48192BB48EFEBF8B8","019cf475-0265-7139-9c72-161ec162b06d","019cf064-09e4-79bc-8453-421c166e6722","","null","
                <div class=""stimulus-container"">
                    <img src=""images/causal_sequence/package_causal/package_causal_3.png"" class=""exp-image"">
                    <div class=""question-area""></div> 
                </div>","null","","","","","","","","",""
"","","","","","html-button-response","148","840034","0.0-148.0","82BDBE19794C48C48192BB48EFEBF8B8","019cf475-0265-7139-9c72-161ec162b06d","019cf064-09e4-79bc-8453-421c166e6722","","933","
                <div class=""stimulus-container"">
                    <img src=""images/causal_sequence/package_causal/package_causal_3.png"" class=""exp-image"">
                    <div class=""question-area"">
                        <p style=""font-size: 20px; font-weight: bold; margin: 0;"">Is there a person in this image?</p>
                    </div>
                </div>","0","main_experiment_trial","3","package_causal","causal_sequence","","","","",""
"","","","","","html-keyboard-response","149","845037","0.0-149.0","82BDBE19794C48C48192BB48EFEBF8B8","019cf475-0265-7139-9c72-161ec162b06d","019cf064-09e4-79bc-8453-421c166e6722","","null","
                <div class=""stimulus-container"">
                    <img src=""images/causal_sequence/package_causal/package_causal_4.png"" class=""exp-image"">
                    <div class=""question-area""></div> 
                </div>","null","","","","","","","","",""
"","","","","","html-button-response","150","845621","0.0-150.0","82BDBE19794C48C48192BB48EFEBF8B8","019cf475-0265-7139-9c72-161ec162b06d","019cf064-09e4-79bc-8453-421c166e6722","","583","
                <div class=""stimulus-container"">
                    <img src=""images/causal_sequence/package_causal/package_causal_4.png"" class=""exp-image"">
                    <div class=""question-area"">
                        <p style=""font-size: 20px; font-weight: bold; margin: 0;"">Is there a person in this image?</p>
                    </div>
                </div>","1","main_experiment_trial","4","package_causal","causal_sequence","","","","",""
"","","","","","html-keyboard-response","151","850623","0.0-151.0","82BDBE19794C48C48192BB48EFEBF8B8","019cf475-0265-7139-9c72-161ec162b06d","019cf064-09e4-79bc-8453-421c166e6722","","null","
                <div class=""stimulus-container"">
                    <img src=""images/causal_sequence/package_causal/package_causal_5.png"" class=""exp-image"">
                    <div class=""question-area""></div> 
                </div>","null","","","","","","","","",""
"","","","","","html-button-response","152","851319","0.0-152.0","82BDBE19794C48C48192BB48EFEBF8B8","019cf475-0265-7139-9c72-161ec162b06d","019cf064-09e4-79bc-8453-421c166e6722","","695","
                <div class=""stimulus-container"">
                    <img src=""images/causal_sequence/package_causal/package_causal_5.png"" class=""exp-image"">
                    <div class=""question-area"">
                        <p style=""font-size: 20px; font-weight: bold; margin: 0;"">Is there a person in this image?</p>
                    </div>
                </div>","0","main_experiment_trial","5","package_causal","causal_sequence","","","","",""
"","","","","","html-keyboard-response","153","856320","0.0-153.0","82BDBE19794C48C48192BB48EFEBF8B8","019cf475-0265-7139-9c72-161ec162b06d","019cf064-09e4-79bc-8453-421c166e6722","","null","
                <div class=""stimulus-container"">
                    <img src=""images/causal_sequence/package_causal/package_causal_6.png"" class=""exp-image"">
                    <div class=""question-area""></div> 
                </div>","null","","","","","","","","",""
"","","","","","html-button-response","154","859224","0.0-154.0","82BDBE19794C48C48192BB48EFEBF8B8","019cf475-0265-7139-9c72-161ec162b06d","019cf064-09e4-79bc-8453-421c166e6722","","2903","
                <div class=""stimulus-container"">
                    <img src=""images/causal_sequence/package_causal/package_causal_6.png"" class=""exp-image"">
                    <div class=""question-area"">
                        <p style=""font-size: 20px; font-weight: bold; margin: 0;"">Is there a person in this image?</p>
                    </div>
                </div>","0","main_experiment_trial","6","package_causal","causal_sequence","","","","",""
"","","","","","html-keyboard-response","155","864225","0.0-155.0","82BDBE19794C48C48192BB48EFEBF8B8","019cf475-0265-7139-9c72-161ec162b06d","019cf064-09e4-79bc-8453-421c166e6722","","null","
                <div class=""stimulus-container"">
                    <img src=""images/causal_sequence/package_causal/package_causal_7.png"" class=""exp-image"">
                    <div class=""question-area""></div> 
                </div>","null","","","","","","","","",""
"","","","","","html-button-response","156","865489","0.0-156.0","82BDBE19794C48C48192BB48EFEBF8B8","019cf475-0265-7139-9c72-161ec162b06d","019cf064-09e4-79bc-8453-421c166e6722","","1263","
                <div class=""stimulus-container"">
                    <img src=""images/causal_sequence/package_causal/package_causal_7.png"" class=""exp-image"">
                    <div class=""question-area"">
                        <p style=""font-size: 20px; font-weight: bold; margin: 0;"">Is there a person in this image?</p>
                    </div>
                </div>","0","main_experiment_trial","7","package_causal","causal_sequence","","","","",""
"","","","","","html-keyboard-response","157","870490","0.0-157.0","82BDBE19794C48C48192BB48EFEBF8B8","019cf475-0265-7139-9c72-161ec162b06d","019cf064-09e4-79bc-8453-421c166e6722","","null","
                <div class=""stimulus-container"">
                    <img src=""images/causal_sequence/package_causal/package_causal_8.png"" class=""exp-image"">
                    <div class=""question-area""></div> 
                </div>","null","","","","","","","","",""
"","","","","","html-button-response","158","871567","0.0-158.0","82BDBE19794C48C48192BB48EFEBF8B8","019cf475-0265-7139-9c72-161ec162b06d","019cf064-09e4-79bc-8453-421c166e6722","","1075","
                <div class=""stimulus-container"">
                    <img src=""images/causal_sequence/package_causal/package_causal_8.png"" class=""exp-image"">
                    <div class=""question-area"">
                        <p style=""font-size: 20px; font-weight: bold; margin: 0;"">Is there a person in this image?</p>
                    </div>
                </div>","0","main_experiment_trial","8","package_causal","causal_sequence","","","","",""
"","","","","","html-keyboard-response","159","876568","0.0-159.0","82BDBE19794C48C48192BB48EFEBF8B8","019cf475-0265-7139-9c72-161ec162b06d","019cf064-09e4-79bc-8453-421c166e6722","","null","
                <div class=""stimulus-container"">
                    <img src=""images/causal_sequence/package_causal/package_causal_9.png"" class=""exp-image"">
                    <div class=""question-area""></div> 
                </div>","null","","","","","","","","",""
"","","","","","html-button-response","160","877232","0.0-160.0","82BDBE19794C48C48192BB48EFEBF8B8","019cf475-0265-7139-9c72-161ec162b06d","019cf064-09e4-79bc-8453-421c166e6722","","663","
                <div class=""stimulus-container"">
                    <img src=""images/causal_sequence/package_causal/package_causal_9.png"" class=""exp-image"">
                    <div class=""question-area"">
                        <p style=""font-size: 20px; font-weight: bold; margin: 0;"">Is there a person in this image?</p>
                    </div>
                </div>","0","main_experiment_trial","9","package_causal","causal_sequence","","","","",""
"","","","","","html-keyboard-response","161","882235","0.0-161.0","82BDBE19794C48C48192BB48EFEBF8B8","019cf475-0265-7139-9c72-161ec162b06d","019cf064-09e4-79bc-8453-421c166e6722","","null","
                <div class=""stimulus-container"">
                    <img src=""images/causal_sequence/package_causal/package_causal_ten.png"" class=""exp-image"">
                    <div class=""question-area""></div> 
                </div>","null","","","","","","","","",""
"","","","","","html-button-response","162","883086","0.0-162.0","82BDBE19794C48C48192BB48EFEBF8B8","019cf475-0265-7139-9c72-161ec162b06d","019cf064-09e4-79bc-8453-421c166e6722","","850","
                <div class=""stimulus-container"">
                    <img src=""images/causal_sequence/package_causal/package_causal_ten.png"" class=""exp-image"">
                    <div class=""question-area"">
                        <p style=""font-size: 20px; font-weight: bold; margin: 0;"">Is there a person in this image?</p>
                    </div>
                </div>","0","main_experiment_trial","ten","package_causal","causal_sequence","","","","",""
"","","","","","html-keyboard-response","163","884087","0.0-163.0","82BDBE19794C48C48192BB48EFEBF8B8","019cf475-0265-7139-9c72-161ec162b06d","019cf064-09e4-79bc-8453-421c166e6722","","null","<div style=""background-color: white; width: 100vw; height: 100vh;""></div>","null","","","","","","","","",""
"","","","","","html-keyboard-response","164","889090","0.0-164.0","82BDBE19794C48C48192BB48EFEBF8B8","019cf475-0265-7139-9c72-161ec162b06d","019cf064-09e4-79bc-8453-421c166e6722","","null","
                <div class=""stimulus-container"">
                    <img src=""images/schematic_sequence/interview_scheme/interview_scheme_1.png"" class=""exp-image"">
                    <div class=""question-area""></div> 
                </div>","null","","","","","","","","",""
"","","","","","html-button-response","165","889931","0.0-165.0","82BDBE19794C48C48192BB48EFEBF8B8","019cf475-0265-7139-9c72-161ec162b06d","019cf064-09e4-79bc-8453-421c166e6722","","840","
                <div class=""stimulus-container"">
                    <img src=""images/schematic_sequence/interview_scheme/interview_scheme_1.png"" class=""exp-image"">
                    <div class=""question-area"">
                        <p style=""font-size: 20px; font-weight: bold; margin: 0;"">Is there a person in this image?</p>
                    </div>
                </div>","1","main_experiment_trial","1","interview_scheme","schematic_sequence","","","","",""
"","","","","","html-keyboard-response","166","894933","0.0-166.0","82BDBE19794C48C48192BB48EFEBF8B8","019cf475-0265-7139-9c72-161ec162b06d","019cf064-09e4-79bc-8453-421c166e6722","","null","
                <div class=""stimulus-container"">
                    <img src=""images/schematic_sequence/interview_scheme/interview_scheme_2.png"" class=""exp-image"">
                    <div class=""question-area""></div> 
                </div>","null","","","","","","","","",""
"","","","","","html-button-response","167","895913","0.0-167.0","82BDBE19794C48C48192BB48EFEBF8B8","019cf475-0265-7139-9c72-161ec162b06d","019cf064-09e4-79bc-8453-421c166e6722","","980","
                <div class=""stimulus-container"">
                    <img src=""images/schematic_sequence/interview_scheme/interview_scheme_2.png"" class=""exp-image"">
                    <div class=""question-area"">
                        <p style=""font-size: 20px; font-weight: bold; margin: 0;"">Is there a person in this image?</p>
                    </div>
                </div>","0","main_experiment_trial","2","interview_scheme","schematic_sequence","","","","",""
"","","","","","html-keyboard-response","168","900914","0.0-168.0","82BDBE19794C48C48192BB48EFEBF8B8","019cf475-0265-7139-9c72-161ec162b06d","019cf064-09e4-79bc-8453-421c166e6722","","null","
                <div class=""stimulus-container"">
                    <img src=""images/schematic_sequence/interview_scheme/interview_scheme_3.png"" class=""exp-image"">
                    <div class=""question-area""></div> 
                </div>","null","","","","","","","","",""
"","","","","","html-button-response","169","901836","0.0-169.0","82BDBE19794C48C48192BB48EFEBF8B8","019cf475-0265-7139-9c72-161ec162b06d","019cf064-09e4-79bc-8453-421c166e6722","","921","
                <div class=""stimulus-container"">
                    <img src=""images/schematic_sequence/interview_scheme/interview_scheme_3.png"" class=""exp-image"">
                    <div class=""question-area"">
                        <p style=""font-size: 20px; font-weight: bold; margin: 0;"">Is there a person in this image?</p>
                    </div>
                </div>","1","main_experiment_trial","3","interview_scheme","schematic_sequence","","","","",""
"","","","","","html-keyboard-response","170","906839","0.0-170.0","82BDBE19794C48C48192BB48EFEBF8B8","019cf475-0265-7139-9c72-161ec162b06d","019cf064-09e4-79bc-8453-421c166e6722","","null","
                <div class=""stimulus-container"">
                    <img src=""images/schematic_sequence/interview_scheme/interview_scheme_4.png"" class=""exp-image"">
                    <div class=""question-area""></div> 
                </div>","null","","","","","","","","",""
"","","","","","html-button-response","171","907855","0.0-171.0","82BDBE19794C48C48192BB48EFEBF8B8","019cf475-0265-7139-9c72-161ec162b06d","019cf064-09e4-79bc-8453-421c166e6722","","1015","
                <div class=""stimulus-container"">
                    <img src=""images/schematic_sequence/interview_scheme/interview_scheme_4.png"" class=""exp-image"">
                    <div class=""question-area"">
                        <p style=""font-size: 20px; font-weight: bold; margin: 0;"">Is there a person in this image?</p>
                    </div>
                </div>","1","main_experiment_trial","4","interview_scheme","schematic_sequence","","","","",""
"","","","","","html-keyboard-response","172","912856","0.0-172.0","82BDBE19794C48C48192BB48EFEBF8B8","019cf475-0265-7139-9c72-161ec162b06d","019cf064-09e4-79bc-8453-421c166e6722","","null","
                <div class=""stimulus-container"">
                    <img src=""images/schematic_sequence/interview_scheme/interview_scheme_5.png"" class=""exp-image"">
                    <div class=""question-area""></div> 
                </div>","null","","","","","","","","",""
"","","","","","html-button-response","173","913577","0.0-173.0","82BDBE19794C48C48192BB48EFEBF8B8","019cf475-0265-7139-9c72-161ec162b06d","019cf064-09e4-79bc-8453-421c166e6722","","720","
                <div class=""stimulus-container"">
                    <img src=""images/schematic_sequence/interview_scheme/interview_scheme_5.png"" class=""exp-image"">
                    <div class=""question-area"">
                        <p style=""font-size: 20px; font-weight: bold; margin: 0;"">Is there a person in this image?</p>
                    </div>
                </div>","0","main_experiment_trial","5","interview_scheme","schematic_sequence","","","","",""
"","","","","","html-keyboard-response","174","918579","0.0-174.0","82BDBE19794C48C48192BB48EFEBF8B8","019cf475-0265-7139-9c72-161ec162b06d","019cf064-09e4-79bc-8453-421c166e6722","","null","
                <div class=""stimulus-container"">
                    <img src=""images/schematic_sequence/interview_scheme/interview_scheme_6.png"" class=""exp-image"">
                    <div class=""question-area""></div> 
                </div>","null","","","","","","","","",""
"","","","","","html-button-response","175","919145","0.0-175.0","82BDBE19794C48C48192BB48EFEBF8B8","019cf475-0265-7139-9c72-161ec162b06d","019cf064-09e4-79bc-8453-421c166e6722","","565","
                <div class=""stimulus-container"">
                    <img src=""images/schematic_sequence/interview_scheme/interview_scheme_6.png"" class=""exp-image"">
                    <div class=""question-area"">
                        <p style=""font-size: 20px; font-weight: bold; margin: 0;"">Is there a person in this image?</p>
                    </div>
                </div>","0","main_experiment_trial","6","interview_scheme","schematic_sequence","","","","",""
"","","","","","html-keyboard-response","176","924147","0.0-176.0","82BDBE19794C48C48192BB48EFEBF8B8","019cf475-0265-7139-9c72-161ec162b06d","019cf064-09e4-79bc-8453-421c166e6722","","null","
                <div class=""stimulus-container"">
                    <img src=""images/schematic_sequence/interview_scheme/interview_scheme_7.png"" class=""exp-image"">
                    <div class=""question-area""></div> 
                </div>","null","","","","","","","","",""
"","","","","","html-button-response","177","924868","0.0-177.0","82BDBE19794C48C48192BB48EFEBF8B8","019cf475-0265-7139-9c72-161ec162b06d","019cf064-09e4-79bc-8453-421c166e6722","","720","
                <div class=""stimulus-container"">
                    <img src=""images/schematic_sequence/interview_scheme/interview_scheme_7.png"" class=""exp-image"">
                    <div class=""question-area"">
                        <p style=""font-size: 20px; font-weight: bold; margin: 0;"">Is there a person in this image?</p>
                    </div>
                </div>","0","main_experiment_trial","7","interview_scheme","schematic_sequence","","","","",""
"","","","","","html-keyboard-response","178","929869","0.0-178.0","82BDBE19794C48C48192BB48EFEBF8B8","019cf475-0265-7139-9c72-161ec162b06d","019cf064-09e4-79bc-8453-421c166e6722","","null","
                <div class=""stimulus-container"">
                    <img src=""images/schematic_sequence/interview_scheme/interview_scheme_8.png"" class=""exp-image"">
                    <div class=""question-area""></div> 
                </div>","null","","","","","","","","",""
"","","","","","html-button-response","179","930448","0.0-179.0","82BDBE19794C48C48192BB48EFEBF8B8","019cf475-0265-7139-9c72-161ec162b06d","019cf064-09e4-79bc-8453-421c166e6722","","578","
                <div class=""stimulus-container"">
                    <img src=""images/schematic_sequence/interview_scheme/interview_scheme_8.png"" class=""exp-image"">
                    <div class=""question-area"">
                        <p style=""font-size: 20px; font-weight: bold; margin: 0;"">Is there a person in this image?</p>
                    </div>
                </div>","0","main_experiment_trial","8","interview_scheme","schematic_sequence","","","","",""
"","","","","","html-keyboard-response","180","935449","0.0-180.0","82BDBE19794C48C48192BB48EFEBF8B8","019cf475-0265-7139-9c72-161ec162b06d","019cf064-09e4-79bc-8453-421c166e6722","","null","
                <div class=""stimulus-container"">
                    <img src=""images/schematic_sequence/interview_scheme/interview_scheme_9.png"" class=""exp-image"">
                    <div class=""question-area""></div> 
                </div>","null","","","","","","","","",""
"","","","","","html-button-response","181","936525","0.0-181.0","82BDBE19794C48C48192BB48EFEBF8B8","019cf475-0265-7139-9c72-161ec162b06d","019cf064-09e4-79bc-8453-421c166e6722","","1076","
                <div class=""stimulus-container"">
                    <img src=""images/schematic_sequence/interview_scheme/interview_scheme_9.png"" class=""exp-image"">
                    <div class=""question-area"">
                        <p style=""font-size: 20px; font-weight: bold; margin: 0;"">Is there a person in this image?</p>
                    </div>
                </div>","0","main_experiment_trial","9","interview_scheme","schematic_sequence","","","","",""
"","","","","","html-keyboard-response","182","941527","0.0-182.0","82BDBE19794C48C48192BB48EFEBF8B8","019cf475-0265-7139-9c72-161ec162b06d","019cf064-09e4-79bc-8453-421c166e6722","","null","
                <div class=""stimulus-container"">
                    <img src=""images/schematic_sequence/interview_scheme/interview_scheme_ten.png"" class=""exp-image"">
                    <div class=""question-area""></div> 
                </div>","null","","","","","","","","",""
"","","","","","html-button-response","183","943039","0.0-183.0","82BDBE19794C48C48192BB48EFEBF8B8","019cf475-0265-7139-9c72-161ec162b06d","019cf064-09e4-79bc-8453-421c166e6722","","1511","
                <div class=""stimulus-container"">
                    <img src=""images/schematic_sequence/interview_scheme/interview_scheme_ten.png"" class=""exp-image"">
                    <div class=""question-area"">
                        <p style=""font-size: 20px; font-weight: bold; margin: 0;"">Is there a person in this image?</p>
                    </div>
