"success","timeout","failed_images","failed_audio","failed_video","trial_type","trial_index","time_elapsed","internal_node_id","subject_id","study_id","session_id","view_history","rt","stimulus","response","task","image_index","folder","valuable_image_index","reward_type","valuable_X","chosen_image_index","distance_from_X"
"false","false","[]","[]","[]","preload","0","3970","0.0-0.0","68F7FB8FDAA247559572564C7042FB6D","019ce877-977d-781b-a5a8-85959e41fee4","019ce875-66c2-7f0b-b5e8-086c75889f84","","","","","","","","","","","",""
"","","","","","instructions","1","6179","0.0-1.0","68F7FB8FDAA247559572564C7042FB6D","019ce877-977d-781b-a5a8-85959e41fee4","019ce875-66c2-7f0b-b5e8-086c75889f84","[{""page_index"":0,""viewing_time"":2210}]","2210","","","","","","","","","",""
"","","","","","instructions","2","10744","0.0-2.0","68F7FB8FDAA247559572564C7042FB6D","019ce877-977d-781b-a5a8-85959e41fee4","019ce875-66c2-7f0b-b5e8-086c75889f84","[{""page_index"":0,""viewing_time"":4563}]","4564","","","","","","","","","",""
"true","","","","","fullscreen","3","13245","0.0-3.0","68F7FB8FDAA247559572564C7042FB6D","019ce877-977d-781b-a5a8-85959e41fee4","019ce875-66c2-7f0b-b5e8-086c75889f84","","1496","","","","","","","","","",""
"","","","","","instructions","4","17828","0.0-4.0","68F7FB8FDAA247559572564C7042FB6D","019ce877-977d-781b-a5a8-85959e41fee4","019ce875-66c2-7f0b-b5e8-086c75889f84","[{""page_index"":0,""viewing_time"":4582}]","4582","","","","","","","","","",""
"","","","","","instructions","5","20566","0.0-5.0","68F7FB8FDAA247559572564C7042FB6D","019ce877-977d-781b-a5a8-85959e41fee4","019ce875-66c2-7f0b-b5e8-086c75889f84","[{""page_index"":0,""viewing_time"":2736}]","2736","","","","","","","","","",""
"","","","","","html-keyboard-response","6","24569","0.0-6.0","68F7FB8FDAA247559572564C7042FB6D","019ce877-977d-781b-a5a8-85959e41fee4","019ce875-66c2-7f0b-b5e8-086c75889f84","","null","
                <div class=""stimulus-container"">
                    <img src=""images/instructions/movie_1.png"" class=""exp-image"">
                    <div class=""question-area""></div> 
                </div>","null","","","","","","","",""
"","","","","","html-button-response","7","25811","0.0-7.0","68F7FB8FDAA247559572564C7042FB6D","019ce877-977d-781b-a5a8-85959e41fee4","019ce875-66c2-7f0b-b5e8-086c75889f84","","1240","
                <div class=""stimulus-container"">
                    <img src=""images/instructions/movie_1.png"" class=""exp-image"">
                    <div class=""question-area"">
                        <p style=""font-size: 20px; font-weight: bold; margin: 0;"">Was there a person in this image?</p>
                    </div>
                </div>","0","example_question","1","","","","","",""
"","","","","","html-keyboard-response","8","29815","0.0-8.0","68F7FB8FDAA247559572564C7042FB6D","019ce877-977d-781b-a5a8-85959e41fee4","019ce875-66c2-7f0b-b5e8-086c75889f84","","null","
                <div class=""stimulus-container"">
                    <img src=""images/instructions/movie_2.png"" class=""exp-image"">
                    <div class=""question-area""></div> 
                </div>","null","","","","","","","",""
"","","","","","html-button-response","9","30599","0.0-9.0","68F7FB8FDAA247559572564C7042FB6D","019ce877-977d-781b-a5a8-85959e41fee4","019ce875-66c2-7f0b-b5e8-086c75889f84","","783","
                <div class=""stimulus-container"">
                    <img src=""images/instructions/movie_2.png"" class=""exp-image"">
                    <div class=""question-area"">
                        <p style=""font-size: 20px; font-weight: bold; margin: 0;"">Was there a person in this image?</p>
                    </div>
                </div>","1","example_question","2","","","","","",""
"","","","","","html-keyboard-response","10","34605","0.0-10.0","68F7FB8FDAA247559572564C7042FB6D","019ce877-977d-781b-a5a8-85959e41fee4","019ce875-66c2-7f0b-b5e8-086c75889f84","","null","
                <div class=""stimulus-container"">
                    <img src=""images/instructions/movie_3.png"" class=""exp-image"">
                    <div class=""question-area""></div> 
                </div>","null","","","","","","","",""
"","","","","","html-button-response","11","35770","0.0-11.0","68F7FB8FDAA247559572564C7042FB6D","019ce877-977d-781b-a5a8-85959e41fee4","019ce875-66c2-7f0b-b5e8-086c75889f84","","1164","
                <div class=""stimulus-container"">
                    <img src=""images/instructions/movie_3.png"" class=""exp-image"">
                    <div class=""question-area"">
                        <p style=""font-size: 20px; font-weight: bold; margin: 0;"">Was there a person in this image?</p>
                    </div>
                </div>","0","example_question","3","","","","","",""
"","","","","","html-keyboard-response","12","39776","0.0-12.0","68F7FB8FDAA247559572564C7042FB6D","019ce877-977d-781b-a5a8-85959e41fee4","019ce875-66c2-7f0b-b5e8-086c75889f84","","null","
                <div class=""stimulus-container"">
                    <img src=""images/instructions/movie_4.png"" class=""exp-image"">
                    <div class=""question-area""></div> 
                </div>","null","","","","","","","",""
"","","","","","html-button-response","13","40395","0.0-13.0","68F7FB8FDAA247559572564C7042FB6D","019ce877-977d-781b-a5a8-85959e41fee4","019ce875-66c2-7f0b-b5e8-086c75889f84","","617","
                <div class=""stimulus-container"">
                    <img src=""images/instructions/movie_4.png"" class=""exp-image"">
                    <div class=""question-area"">
                        <p style=""font-size: 20px; font-weight: bold; margin: 0;"">Was there a person in this image?</p>
                    </div>
                </div>","0","example_question","4","","","","","",""
"","","","","","instructions","14","41925","0.0-14.0","68F7FB8FDAA247559572564C7042FB6D","019ce877-977d-781b-a5a8-85959e41fee4","019ce875-66c2-7f0b-b5e8-086c75889f84","[{""page_index"":0,""viewing_time"":1530}]","1530","","","","","","","","","",""
"","","","","","html-keyboard-response","15","42927","0.0-15.0","68F7FB8FDAA247559572564C7042FB6D","019ce877-977d-781b-a5a8-85959e41fee4","019ce875-66c2-7f0b-b5e8-086c75889f84","","null","<div style=""background-color: gray; width: 100vw; height: 100vh;""></div>","null","","","","","","","",""
"","","","","","html-keyboard-response","16","47933","0.0-16.0","68F7FB8FDAA247559572564C7042FB6D","019ce877-977d-781b-a5a8-85959e41fee4","019ce875-66c2-7f0b-b5e8-086c75889f84","","null","
                    <div class=""stimulus-container"">
                        <img src=""images/causal_sequence/the_performance_causal/the_performance_causal_1.png"" class=""exp-image"">
                        <div class=""question-area""></div> 
                    </div>","null","","","","","","","",""
"","","","","","html-button-response","17","48975","0.0-17.0","68F7FB8FDAA247559572564C7042FB6D","019ce877-977d-781b-a5a8-85959e41fee4","019ce875-66c2-7f0b-b5e8-086c75889f84","","1041","
                    <div class=""stimulus-container"">
                        <img src=""images/causal_sequence/the_performance_causal/the_performance_causal_1.png"" class=""exp-image"">
                        <div class=""question-area"">
                            <p style=""font-size: 20px; font-weight: bold; margin: 0;"">Is there a person in this image?</p>
                        </div>
                    </div>","0","main_causal_task","1","the_performance_causal","","","","",""
"","","","","","html-keyboard-response","18","53977","0.0-18.0","68F7FB8FDAA247559572564C7042FB6D","019ce877-977d-781b-a5a8-85959e41fee4","019ce875-66c2-7f0b-b5e8-086c75889f84","","null","
                    <div class=""stimulus-container"">
                        <img src=""images/causal_sequence/the_performance_causal/the_performance_causal_2.png"" class=""exp-image"">
                        <div class=""question-area""></div> 
                    </div>","null","","","","","","","",""
"","","","","","html-button-response","19","54975","0.0-19.0","68F7FB8FDAA247559572564C7042FB6D","019ce877-977d-781b-a5a8-85959e41fee4","019ce875-66c2-7f0b-b5e8-086c75889f84","","997","
                    <div class=""stimulus-container"">
                        <img src=""images/causal_sequence/the_performance_causal/the_performance_causal_2.png"" class=""exp-image"">
                        <div class=""question-area"">
                            <p style=""font-size: 20px; font-weight: bold; margin: 0;"">Is there a person in this image?</p>
                        </div>
                    </div>","0","main_causal_task","2","the_performance_causal","","","","",""
"","","","","","html-keyboard-response","20","59980","0.0-20.0","68F7FB8FDAA247559572564C7042FB6D","019ce877-977d-781b-a5a8-85959e41fee4","019ce875-66c2-7f0b-b5e8-086c75889f84","","null","
                    <div class=""stimulus-container"">
                        <img src=""images/causal_sequence/the_performance_causal/the_performance_causal_3.png"" class=""exp-image"">
                        <div class=""question-area""></div> 
                    </div>","null","","","","","","","",""
"","","","","","html-button-response","21","61157","0.0-21.0","68F7FB8FDAA247559572564C7042FB6D","019ce877-977d-781b-a5a8-85959e41fee4","019ce875-66c2-7f0b-b5e8-086c75889f84","","1177","
                    <div class=""stimulus-container"">
                        <img src=""images/causal_sequence/the_performance_causal/the_performance_causal_3.png"" class=""exp-image"">
                        <div class=""question-area"">
                            <p style=""font-size: 20px; font-weight: bold; margin: 0;"">Is there a person in this image?</p>
                        </div>
                    </div>","0","main_causal_task","3","the_performance_causal","","","","",""
"","","","","","html-keyboard-response","22","66164","0.0-22.0","68F7FB8FDAA247559572564C7042FB6D","019ce877-977d-781b-a5a8-85959e41fee4","019ce875-66c2-7f0b-b5e8-086c75889f84","","null","
                    <div class=""stimulus-container"">
                        <img src=""images/causal_sequence/the_performance_causal/the_performance_causal_4.png"" class=""exp-image"">
                        <div class=""question-area""></div> 
                    </div>","null","","","","","","","",""
"","","","","","html-button-response","23","67225","0.0-23.0","68F7FB8FDAA247559572564C7042FB6D","019ce877-977d-781b-a5a8-85959e41fee4","019ce875-66c2-7f0b-b5e8-086c75889f84","","1060","
                    <div class=""stimulus-container"">
                        <img src=""images/causal_sequence/the_performance_causal/the_performance_causal_4.png"" class=""exp-image"">
                        <div class=""question-area"">
                            <p style=""font-size: 20px; font-weight: bold; margin: 0;"">Is there a person in this image?</p>
                        </div>
                    </div>","0","main_causal_task","4","the_performance_causal","","","","",""
"","","","","","html-keyboard-response","24","72232","0.0-24.0","68F7FB8FDAA247559572564C7042FB6D","019ce877-977d-781b-a5a8-85959e41fee4","019ce875-66c2-7f0b-b5e8-086c75889f84","","null","
                    <div class=""stimulus-container"">
                        <img src=""images/causal_sequence/the_performance_causal/the_performance_causal_5.png"" class=""exp-image"">
                        <div class=""question-area""></div> 
                    </div>","null","","","","","","","",""
"","","","","","html-button-response","25","73053","0.0-25.0","68F7FB8FDAA247559572564C7042FB6D","019ce877-977d-781b-a5a8-85959e41fee4","019ce875-66c2-7f0b-b5e8-086c75889f84","","819","
                    <div class=""stimulus-container"">
                        <img src=""images/causal_sequence/the_performance_causal/the_performance_causal_5.png"" class=""exp-image"">
                        <div class=""question-area"">
                            <p style=""font-size: 20px; font-weight: bold; margin: 0;"">Is there a person in this image?</p>
                        </div>
                    </div>","0","main_causal_task","5","the_performance_causal","","","","",""
"","","","","","html-keyboard-response","26","78059","0.0-26.0","68F7FB8FDAA247559572564C7042FB6D","019ce877-977d-781b-a5a8-85959e41fee4","019ce875-66c2-7f0b-b5e8-086c75889f84","","null","
                    <div class=""stimulus-container"">
                        <img src=""images/causal_sequence/the_performance_causal/the_performance_causal_6.png"" class=""exp-image"">
                        <div class=""question-area""></div> 
                    </div>","null","","","","","","","",""
"","","","","","html-button-response","27","78991","0.0-27.0","68F7FB8FDAA247559572564C7042FB6D","019ce877-977d-781b-a5a8-85959e41fee4","019ce875-66c2-7f0b-b5e8-086c75889f84","","930","
                    <div class=""stimulus-container"">
                        <img src=""images/causal_sequence/the_performance_causal/the_performance_causal_6.png"" class=""exp-image"">
                        <div class=""question-area"">
                            <p style=""font-size: 20px; font-weight: bold; margin: 0;"">Is there a person in this image?</p>
                        </div>
                    </div>","0","main_causal_task","6","the_performance_causal","","","","",""
"","","","","","html-keyboard-response","28","83997","0.0-28.0","68F7FB8FDAA247559572564C7042FB6D","019ce877-977d-781b-a5a8-85959e41fee4","019ce875-66c2-7f0b-b5e8-086c75889f84","","null","
                    <div class=""stimulus-container"">
                        <img src=""images/causal_sequence/the_performance_causal/the_performance_causal_7.png"" class=""exp-image"">
                        <div class=""question-area""></div> 
                    </div>","null","","","","","","","",""
"","","","","","html-button-response","29","85049","0.0-29.0","68F7FB8FDAA247559572564C7042FB6D","019ce877-977d-781b-a5a8-85959e41fee4","019ce875-66c2-7f0b-b5e8-086c75889f84","","1052","
                    <div class=""stimulus-container"">
                        <img src=""images/causal_sequence/the_performance_causal/the_performance_causal_7.png"" class=""exp-image"">
                        <div class=""question-area"">
                            <p style=""font-size: 20px; font-weight: bold; margin: 0;"">Is there a person in this image?</p>
                        </div>
                    </div>","0","main_causal_task","7","the_performance_causal","","","","",""
"","","","","","html-keyboard-response","30","90054","0.0-30.0","68F7FB8FDAA247559572564C7042FB6D","019ce877-977d-781b-a5a8-85959e41fee4","019ce875-66c2-7f0b-b5e8-086c75889f84","","null","
                    <div class=""stimulus-container"">
                        <img src=""images/causal_sequence/the_performance_causal/the_performance_causal_8.png"" class=""exp-image"">
                        <div class=""question-area""></div> 
                    </div>","null","","","","","","","",""
"","","","","","html-button-response","31","91073","0.0-31.0","68F7FB8FDAA247559572564C7042FB6D","019ce877-977d-781b-a5a8-85959e41fee4","019ce875-66c2-7f0b-b5e8-086c75889f84","","1019","
                    <div class=""stimulus-container"">
                        <img src=""images/causal_sequence/the_performance_causal/the_performance_causal_8.png"" class=""exp-image"">
                        <div class=""question-area"">
                            <p style=""font-size: 20px; font-weight: bold; margin: 0;"">Is there a person in this image?</p>
                        </div>
                    </div>","0","main_causal_task","8","the_performance_causal","","","","",""
"","","","","","html-keyboard-response","32","96076","0.0-32.0","68F7FB8FDAA247559572564C7042FB6D","019ce877-977d-781b-a5a8-85959e41fee4","019ce875-66c2-7f0b-b5e8-086c75889f84","","null","
                    <div class=""stimulus-container"">
                        <img src=""images/causal_sequence/the_performance_causal/the_performance_causal_9.png"" class=""exp-image"">
                        <div class=""question-area""></div> 
                    </div>","null","","","","","","","",""
"","","","","","html-button-response","33","96869","0.0-33.0","68F7FB8FDAA247559572564C7042FB6D","019ce877-977d-781b-a5a8-85959e41fee4","019ce875-66c2-7f0b-b5e8-086c75889f84","","793","
                    <div class=""stimulus-container"">
                        <img src=""images/causal_sequence/the_performance_causal/the_performance_causal_9.png"" class=""exp-image"">
                        <div class=""question-area"">
                            <p style=""font-size: 20px; font-weight: bold; margin: 0;"">Is there a person in this image?</p>
                        </div>
                    </div>","0","main_causal_task","9","the_performance_causal","","","","",""
"","","","","","html-keyboard-response","34","97872","0.0-34.0","68F7FB8FDAA247559572564C7042FB6D","019ce877-977d-781b-a5a8-85959e41fee4","019ce875-66c2-7f0b-b5e8-086c75889f84","","null","<div style=""background-color: gray; width: 100vw; height: 100vh;""></div>","null","","","","","","","",""
"","","","","","html-keyboard-response","35","102876","0.0-35.0","68F7FB8FDAA247559572564C7042FB6D","019ce877-977d-781b-a5a8-85959e41fee4","019ce875-66c2-7f0b-b5e8-086c75889f84","","null","
                    <div class=""stimulus-container"">
                        <img src=""images/causal_sequence/package_causal/package_causal_1.png"" class=""exp-image"">
                        <div class=""question-area""></div> 
                    </div>","null","","","","","","","",""
"","","","","","html-button-response","36","103791","0.0-36.0","68F7FB8FDAA247559572564C7042FB6D","019ce877-977d-781b-a5a8-85959e41fee4","019ce875-66c2-7f0b-b5e8-086c75889f84","","914","
                    <div class=""stimulus-container"">
                        <img src=""images/causal_sequence/package_causal/package_causal_1.png"" class=""exp-image"">
                        <div class=""question-area"">
                            <p style=""font-size: 20px; font-weight: bold; margin: 0;"">Is there a person in this image?</p>
                        </div>
                    </div>","0","main_causal_task","1","package_causal","","","","",""
"","","","","","html-keyboard-response","37","108797","0.0-37.0","68F7FB8FDAA247559572564C7042FB6D","019ce877-977d-781b-a5a8-85959e41fee4","019ce875-66c2-7f0b-b5e8-086c75889f84","","null","
                    <div class=""stimulus-container"">
                        <img src=""images/causal_sequence/package_causal/package_causal_2.png"" class=""exp-image"">
                        <div class=""question-area""></div> 
                    </div>","null","","","","","","","",""
"","","","","","html-button-response","38","109690","0.0-38.0","68F7FB8FDAA247559572564C7042FB6D","019ce877-977d-781b-a5a8-85959e41fee4","019ce875-66c2-7f0b-b5e8-086c75889f84","","893","
                    <div class=""stimulus-container"">
                        <img src=""images/causal_sequence/package_causal/package_causal_2.png"" class=""exp-image"">
                        <div class=""question-area"">
                            <p style=""font-size: 20px; font-weight: bold; margin: 0;"">Is there a person in this image?</p>
                        </div>
                    </div>","0","main_causal_task","2","package_causal","","","","",""
"","","","","","html-keyboard-response","39","114697","0.0-39.0","68F7FB8FDAA247559572564C7042FB6D","019ce877-977d-781b-a5a8-85959e41fee4","019ce875-66c2-7f0b-b5e8-086c75889f84","","null","
                    <div class=""stimulus-container"">
                        <img src=""images/causal_sequence/package_causal/package_causal_3.png"" class=""exp-image"">
                        <div class=""question-area""></div> 
                    </div>","null","","","","","","","",""
"","","","","","html-button-response","40","115364","0.0-40.0","68F7FB8FDAA247559572564C7042FB6D","019ce877-977d-781b-a5a8-85959e41fee4","019ce875-66c2-7f0b-b5e8-086c75889f84","","666","
                    <div class=""stimulus-container"">
                        <img src=""images/causal_sequence/package_causal/package_causal_3.png"" class=""exp-image"">
                        <div class=""question-area"">
                            <p style=""font-size: 20px; font-weight: bold; margin: 0;"">Is there a person in this image?</p>
                        </div>
                    </div>","0","main_causal_task","3","package_causal","","","","",""
"","","","","","html-keyboard-response","41","120368","0.0-41.0","68F7FB8FDAA247559572564C7042FB6D","019ce877-977d-781b-a5a8-85959e41fee4","019ce875-66c2-7f0b-b5e8-086c75889f84","","null","
                    <div class=""stimulus-container"">
                        <img src=""images/causal_sequence/package_causal/package_causal_4.png"" class=""exp-image"">
                        <div class=""question-area""></div> 
                    </div>","null","","","","","","","",""
"","","","","","html-button-response","42","121233","0.0-42.0","68F7FB8FDAA247559572564C7042FB6D","019ce877-977d-781b-a5a8-85959e41fee4","019ce875-66c2-7f0b-b5e8-086c75889f84","","865","
                    <div class=""stimulus-container"">
                        <img src=""images/causal_sequence/package_causal/package_causal_4.png"" class=""exp-image"">
                        <div class=""question-area"">
                            <p style=""font-size: 20px; font-weight: bold; margin: 0;"">Is there a person in this image?</p>
                        </div>
                    </div>","1","main_causal_task","4","package_causal","","","","",""
"","","","","","html-keyboard-response","43","126239","0.0-43.0","68F7FB8FDAA247559572564C7042FB6D","019ce877-977d-781b-a5a8-85959e41fee4","019ce875-66c2-7f0b-b5e8-086c75889f84","","null","
                    <div class=""stimulus-container"">
                        <img src=""images/causal_sequence/package_causal/package_causal_5.png"" class=""exp-image"">
                        <div class=""question-area""></div> 
                    </div>","null","","","","","","","",""
"","","","","","html-button-response","44","127186","0.0-44.0","68F7FB8FDAA247559572564C7042FB6D","019ce877-977d-781b-a5a8-85959e41fee4","019ce875-66c2-7f0b-b5e8-086c75889f84","","947","
                    <div class=""stimulus-container"">
                        <img src=""images/causal_sequence/package_causal/package_causal_5.png"" class=""exp-image"">
                        <div class=""question-area"">
                            <p style=""font-size: 20px; font-weight: bold; margin: 0;"">Is there a person in this image?</p>
                        </div>
                    </div>","0","main_causal_task","5","package_causal","","","","",""
"","","","","","html-keyboard-response","45","132192","0.0-45.0","68F7FB8FDAA247559572564C7042FB6D","019ce877-977d-781b-a5a8-85959e41fee4","019ce875-66c2-7f0b-b5e8-086c75889f84","","null","
                    <div class=""stimulus-container"">
                        <img src=""images/causal_sequence/package_causal/package_causal_6.png"" class=""exp-image"">
                        <div class=""question-area""></div> 
                    </div>","null","","","","","","","",""
"","","","","","html-button-response","46","132942","0.0-46.0","68F7FB8FDAA247559572564C7042FB6D","019ce877-977d-781b-a5a8-85959e41fee4","019ce875-66c2-7f0b-b5e8-086c75889f84","","749","
                    <div class=""stimulus-container"">
                        <img src=""images/causal_sequence/package_causal/package_causal_6.png"" class=""exp-image"">
                        <div class=""question-area"">
                            <p style=""font-size: 20px; font-weight: bold; margin: 0;"">Is there a person in this image?</p>
                        </div>
                    </div>","0","main_causal_task","6","package_causal","","","","",""
"","","","","","html-keyboard-response","47","137948","0.0-47.0","68F7FB8FDAA247559572564C7042FB6D","019ce877-977d-781b-a5a8-85959e41fee4","019ce875-66c2-7f0b-b5e8-086c75889f84","","null","
                    <div class=""stimulus-container"">
                        <img src=""images/causal_sequence/package_causal/package_causal_7.png"" class=""exp-image"">
                        <div class=""question-area""></div> 
                    </div>","null","","","","","","","",""
"","","","","","html-button-response","48","138678","0.0-48.0","68F7FB8FDAA247559572564C7042FB6D","019ce877-977d-781b-a5a8-85959e41fee4","019ce875-66c2-7f0b-b5e8-086c75889f84","","728","
                    <div class=""stimulus-container"">
                        <img src=""images/causal_sequence/package_causal/package_causal_7.png"" class=""exp-image"">
                        <div class=""question-area"">
                            <p style=""font-size: 20px; font-weight: bold; margin: 0;"">Is there a person in this image?</p>
                        </div>
                    </div>","0","main_causal_task","7","package_causal","","","","",""
"","","","","","html-keyboard-response","49","143685","0.0-49.0","68F7FB8FDAA247559572564C7042FB6D","019ce877-977d-781b-a5a8-85959e41fee4","019ce875-66c2-7f0b-b5e8-086c75889f84","","null","
                    <div class=""stimulus-container"">
                        <img src=""images/causal_sequence/package_causal/package_causal_8.png"" class=""exp-image"">
                        <div class=""question-area""></div> 
                    </div>","null","","","","","","","",""
"","","","","","html-button-response","50","144505","0.0-50.0","68F7FB8FDAA247559572564C7042FB6D","019ce877-977d-781b-a5a8-85959e41fee4","019ce875-66c2-7f0b-b5e8-086c75889f84","","817","
                    <div class=""stimulus-container"">
                        <img src=""images/causal_sequence/package_causal/package_causal_8.png"" class=""exp-image"">
                        <div class=""question-area"">
                            <p style=""font-size: 20px; font-weight: bold; margin: 0;"">Is there a person in this image?</p>
                        </div>
                    </div>","0","main_causal_task","8","package_causal","","","","",""
"","","","","","html-keyboard-response","51","149509","0.0-51.0","68F7FB8FDAA247559572564C7042FB6D","019ce877-977d-781b-a5a8-85959e41fee4","019ce875-66c2-7f0b-b5e8-086c75889f84","","null","
                    <div class=""stimulus-container"">
                        <img src=""images/causal_sequence/package_causal/package_causal_9.png"" class=""exp-image"">
                        <div class=""question-area""></div> 
                    </div>","null","","","","","","","",""
"","","","","","html-button-response","52","150307","0.0-52.0","68F7FB8FDAA247559572564C7042FB6D","019ce877-977d-781b-a5a8-85959e41fee4","019ce875-66c2-7f0b-b5e8-086c75889f84","","798","
                    <div class=""stimulus-container"">
                        <img src=""images/causal_sequence/package_causal/package_causal_9.png"" class=""exp-image"">
                        <div class=""question-area"">
                            <p style=""font-size: 20px; font-weight: bold; margin: 0;"">Is there a person in this image?</p>
                        </div>
                    </div>","0","main_causal_task","9","package_causal","","","","",""
"","","","","","html-keyboard-response","53","151312","0.0-53.0","68F7FB8FDAA247559572564C7042FB6D","019ce877-977d-781b-a5a8-85959e41fee4","019ce875-66c2-7f0b-b5e8-086c75889f84","","null","<div style=""background-color: gray; width: 100vw; height: 100vh;""></div>","null","","","","","","","",""
"","","","","","html-keyboard-response","54","156314","0.0-54.0","68F7FB8FDAA247559572564C7042FB6D","019ce877-977d-781b-a5a8-85959e41fee4","019ce875-66c2-7f0b-b5e8-086c75889f84","","null","
                    <div class=""stimulus-container"">
                        <img src=""images/causal_sequence/dog_causal/dog_causal_1.png"" class=""exp-image"">
                        <div class=""question-area""></div> 
                    </div>","null","","","","","","","",""
"","","","","","html-button-response","55","157812","0.0-55.0","68F7FB8FDAA247559572564C7042FB6D","019ce877-977d-781b-a5a8-85959e41fee4","019ce875-66c2-7f0b-b5e8-086c75889f84","","1496","
                    <div class=""stimulus-container"">
                        <img src=""images/causal_sequence/dog_causal/dog_causal_1.png"" class=""exp-image"">
                        <div class=""question-area"">
                            <p style=""font-size: 20px; font-weight: bold; margin: 0;"">Is there a person in this image?</p>
                        </div>
                    </div>","0","main_causal_task","1","dog_causal","","","","",""
"","","","","","html-keyboard-response","56","162815","0.0-56.0","68F7FB8FDAA247559572564C7042FB6D","019ce877-977d-781b-a5a8-85959e41fee4","019ce875-66c2-7f0b-b5e8-086c75889f84","","null","
                    <div class=""stimulus-container"">
                        <img src=""images/causal_sequence/dog_causal/dog_causal_2.png"" class=""exp-image"">
                        <div class=""question-area""></div> 
                    </div>","null","","","","","","","",""
"","","","","","html-button-response","57","163694","0.0-57.0","68F7FB8FDAA247559572564C7042FB6D","019ce877-977d-781b-a5a8-85959e41fee4","019ce875-66c2-7f0b-b5e8-086c75889f84","","878","
                    <div class=""stimulus-container"">
                        <img src=""images/causal_sequence/dog_causal/dog_causal_2.png"" class=""exp-image"">
                        <div class=""question-area"">
                            <p style=""font-size: 20px; font-weight: bold; margin: 0;"">Is there a person in this image?</p>
                        </div>
                    </div>","0","main_causal_task","2","dog_causal","","","","",""
"","","","","","html-keyboard-response","58","168700","0.0-58.0","68F7FB8FDAA247559572564C7042FB6D","019ce877-977d-781b-a5a8-85959e41fee4","019ce875-66c2-7f0b-b5e8-086c75889f84","","null","
                    <div class=""stimulus-container"">
                        <img src=""images/causal_sequence/dog_causal/dog_causal_3.png"" class=""exp-image"">
                        <div class=""question-area""></div> 
                    </div>","null","","","","","","","",""
"","","","","","html-button-response","59","170515","0.0-59.0","68F7FB8FDAA247559572564C7042FB6D","019ce877-977d-781b-a5a8-85959e41fee4","019ce875-66c2-7f0b-b5e8-086c75889f84","","1815","
                    <div class=""stimulus-container"">
                        <img src=""images/causal_sequence/dog_causal/dog_causal_3.png"" class=""exp-image"">
                        <div class=""question-area"">
                            <p style=""font-size: 20px; font-weight: bold; margin: 0;"">Is there a person in this image?</p>
                        </div>
                    </div>","0","main_causal_task","3","dog_causal","","","","",""
"","","","","","html-keyboard-response","60","175519","0.0-60.0","68F7FB8FDAA247559572564C7042FB6D","019ce877-977d-781b-a5a8-85959e41fee4","019ce875-66c2-7f0b-b5e8-086c75889f84","","null","
                    <div class=""stimulus-container"">
                        <img src=""images/causal_sequence/dog_causal/dog_causal_4.png"" class=""exp-image"">
                        <div class=""question-area""></div> 
                    </div>","null","","","","","","","",""
"","","","","","html-button-response","61","176862","0.0-61.0","68F7FB8FDAA247559572564C7042FB6D","019ce877-977d-781b-a5a8-85959e41fee4","019ce875-66c2-7f0b-b5e8-086c75889f84","","1342","
                    <div class=""stimulus-container"">
                        <img src=""images/causal_sequence/dog_causal/dog_causal_4.png"" class=""exp-image"">
                        <div class=""question-area"">
                            <p style=""font-size: 20px; font-weight: bold; margin: 0;"">Is there a person in this image?</p>
                        </div>
                    </div>","0","main_causal_task","4","dog_causal","","","","",""
"","","","","","html-keyboard-response","62","181868","0.0-62.0","68F7FB8FDAA247559572564C7042FB6D","019ce877-977d-781b-a5a8-85959e41fee4","019ce875-66c2-7f0b-b5e8-086c75889f84","","null","
                    <div class=""stimulus-container"">
                        <img src=""images/causal_sequence/dog_causal/dog_causal_5.png"" class=""exp-image"">
                        <div class=""question-area""></div> 
                    </div>","null","","","","","","","",""
"","","","","","html-button-response","63","182606","0.0-63.0","68F7FB8FDAA247559572564C7042FB6D","019ce877-977d-781b-a5a8-85959e41fee4","019ce875-66c2-7f0b-b5e8-086c75889f84","","738","
                    <div class=""stimulus-container"">
                        <img src=""images/causal_sequence/dog_causal/dog_causal_5.png"" class=""exp-image"">
                        <div class=""question-area"">
                            <p style=""font-size: 20px; font-weight: bold; margin: 0;"">Is there a person in this image?</p>
                        </div>
                    </div>","0","main_causal_task","5","dog_causal","","","","",""
"","","","","","html-keyboard-response","64","187612","0.0-64.0","68F7FB8FDAA247559572564C7042FB6D","019ce877-977d-781b-a5a8-85959e41fee4","019ce875-66c2-7f0b-b5e8-086c75889f84","","null","
                    <div class=""stimulus-container"">
                        <img src=""images/causal_sequence/dog_causal/dog_causal_6.png"" class=""exp-image"">
                        <div class=""question-area""></div> 
                    </div>","null","","","","","","","",""
"","","","","","html-button-response","65","188723","0.0-65.0","68F7FB8FDAA247559572564C7042FB6D","019ce877-977d-781b-a5a8-85959e41fee4","019ce875-66c2-7f0b-b5e8-086c75889f84","","1110","
                    <div class=""stimulus-container"">
                        <img src=""images/causal_sequence/dog_causal/dog_causal_6.png"" class=""exp-image"">
                        <div class=""question-area"">
                            <p style=""font-size: 20px; font-weight: bold; margin: 0;"">Is there a person in this image?</p>
                        </div>
                    </div>","0","main_causal_task","6","dog_causal","","","","",""
"","","","","","html-keyboard-response","66","193728","0.0-66.0","68F7FB8FDAA247559572564C7042FB6D","019ce877-977d-781b-a5a8-85959e41fee4","019ce875-66c2-7f0b-b5e8-086c75889f84","","null","
                    <div class=""stimulus-container"">
                        <img src=""images/causal_sequence/dog_causal/dog_causal_7.png"" class=""exp-image"">
                        <div class=""question-area""></div> 
                    </div>","null","","","","","","","",""
"","","","","","html-button-response","67","195015","0.0-67.0","68F7FB8FDAA247559572564C7042FB6D","019ce877-977d-781b-a5a8-85959e41fee4","019ce875-66c2-7f0b-b5e8-086c75889f84","","1289","
                    <div class=""stimulus-container"">
                        <img src=""images/causal_sequence/dog_causal/dog_causal_7.png"" class=""exp-image"">
                        <div class=""question-area"">
                            <p style=""font-size: 20px; font-weight: bold; margin: 0;"">Is there a person in this image?</p>
                        </div>
                    </div>","0","main_causal_task","7","dog_causal","","","","",""
"","","","","","html-keyboard-response","68","200021","0.0-68.0","68F7FB8FDAA247559572564C7042FB6D","019ce877-977d-781b-a5a8-85959e41fee4","019ce875-66c2-7f0b-b5e8-086c75889f84","","null","
                    <div class=""stimulus-container"">
                        <img src=""images/causal_sequence/dog_causal/dog_causal_8.png"" class=""exp-image"">
                        <div class=""question-area""></div> 
                    </div>","null","","","","","","","",""
"","","","","","html-button-response","69","202150","0.0-69.0","68F7FB8FDAA247559572564C7042FB6D","019ce877-977d-781b-a5a8-85959e41fee4","019ce875-66c2-7f0b-b5e8-086c75889f84","","2128","
                    <div class=""stimulus-container"">
                        <img src=""images/causal_sequence/dog_causal/dog_causal_8.png"" class=""exp-image"">
                        <div class=""question-area"">
                            <p style=""font-size: 20px; font-weight: bold; margin: 0;"">Is there a person in this image?</p>
                        </div>
                    </div>","0","main_causal_task","8","dog_causal","","","","",""
"","","","","","html-keyboard-response","70","207153","0.0-70.0","68F7FB8FDAA247559572564C7042FB6D","019ce877-977d-781b-a5a8-85959e41fee4","019ce875-66c2-7f0b-b5e8-086c75889f84","","null","
                    <div class=""stimulus-container"">
                        <img src=""images/causal_sequence/dog_causal/dog_causal_9.png"" class=""exp-image"">
                        <div class=""question-area""></div> 
                    </div>","null","","","","","","","",""
"","","","","","html-button-response","71","207941","0.0-71.0","68F7FB8FDAA247559572564C7042FB6D","019ce877-977d-781b-a5a8-85959e41fee4","019ce875-66c2-7f0b-b5e8-086c75889f84","","787","
                    <div class=""stimulus-container"">
                        <img src=""images/causal_sequence/dog_causal/dog_causal_9.png"" class=""exp-image"">
                        <div class=""question-area"">
                            <p style=""font-size: 20px; font-weight: bold; margin: 0;"">Is there a person in this image?</p>
                        </div>
                    </div>","0","main_causal_task","9","dog_causal","","","","",""
"","","","","","html-keyboard-response","72","208946","0.0-72.0","68F7FB8FDAA247559572564C7042FB6D","019ce877-977d-781b-a5a8-85959e41fee4","019ce875-66c2-7f0b-b5e8-086c75889f84","","null","<div style=""background-color: gray; width: 100vw; height: 100vh;""></div>","null","","","","","","","",""
"","","","","","html-keyboard-response","73","213950","0.0-73.0","68F7FB8FDAA247559572564C7042FB6D","019ce877-977d-781b-a5a8-85959e41fee4","019ce875-66c2-7f0b-b5e8-086c75889f84","","null","
                    <div class=""stimulus-container"">
                        <img src=""images/causal_sequence/museum_causal/museum_causal_1.png"" class=""exp-image"">
                        <div class=""question-area""></div> 
                    </div>","null","","","","","","","",""
"","","","","","html-button-response","74","215111","0.0-74.0","68F7FB8FDAA247559572564C7042FB6D","019ce877-977d-781b-a5a8-85959e41fee4","019ce875-66c2-7f0b-b5e8-086c75889f84","","1160","
                    <div class=""stimulus-container"">
                        <img src=""images/causal_sequence/museum_causal/museum_causal_1.png"" class=""exp-image"">
                        <div class=""question-area"">
                            <p style=""font-size: 20px; font-weight: bold; margin: 0;"">Is there a person in this image?</p>
                        </div>
                    </div>","0","main_causal_task","1","museum_causal","","","","",""
"","","","","","html-keyboard-response","75","220116","0.0-75.0","68F7FB8FDAA247559572564C7042FB6D","019ce877-977d-781b-a5a8-85959e41fee4","019ce875-66c2-7f0b-b5e8-086c75889f84","","null","
                    <div class=""stimulus-container"">
                        <img src=""images/causal_sequence/museum_causal/museum_causal_2.png"" class=""exp-image"">
                        <div class=""question-area""></div> 
                    </div>","null","","","","","","","",""
"","","","","","html-button-response","76","221436","0.0-76.0","68F7FB8FDAA247559572564C7042FB6D","019ce877-977d-781b-a5a8-85959e41fee4","019ce875-66c2-7f0b-b5e8-086c75889f84","","1320","
                    <div class=""stimulus-container"">
                        <img src=""images/causal_sequence/museum_causal/museum_causal_2.png"" class=""exp-image"">
                        <div class=""question-area"">
                            <p style=""font-size: 20px; font-weight: bold; margin: 0;"">Is there a person in this image?</p>
                        </div>
                    </div>","1","main_causal_task","2","museum_causal","","","","",""
"","","","","","html-keyboard-response","77","226438","0.0-77.0","68F7FB8FDAA247559572564C7042FB6D","019ce877-977d-781b-a5a8-85959e41fee4","019ce875-66c2-7f0b-b5e8-086c75889f84","","null","
                    <div class=""stimulus-container"">
                        <img src=""images/causal_sequence/museum_causal/museum_causal_3.png"" class=""exp-image"">
                        <div class=""question-area""></div> 
                    </div>","null","","","","","","","",""
"","","","","","html-button-response","78","227520","0.0-78.0","68F7FB8FDAA247559572564C7042FB6D","019ce877-977d-781b-a5a8-85959e41fee4","019ce875-66c2-7f0b-b5e8-086c75889f84","","1081","
                    <div class=""stimulus-container"">
                        <img src=""images/causal_sequence/museum_causal/museum_causal_3.png"" class=""exp-image"">
                        <div class=""question-area"">
                            <p style=""font-size: 20px; font-weight: bold; margin: 0;"">Is there a person in this image?</p>
                        </div>
                    </div>","0","main_causal_task","3","museum_causal","","","","",""
"","","","","","html-keyboard-response","79","232525","0.0-79.0","68F7FB8FDAA247559572564C7042FB6D","019ce877-977d-781b-a5a8-85959e41fee4","019ce875-66c2-7f0b-b5e8-086c75889f84","","null","
                    <div class=""stimulus-container"">
                        <img src=""images/causal_sequence/museum_causal/museum_causal_4.png"" class=""exp-image"">
                        <div class=""question-area""></div> 
                    </div>","null","","","","","","","",""
"","","","","","html-button-response","80","233457","0.0-80.0","68F7FB8FDAA247559572564C7042FB6D","019ce877-977d-781b-a5a8-85959e41fee4","019ce875-66c2-7f0b-b5e8-086c75889f84","","932","
                    <div class=""stimulus-container"">
                        <img src=""images/causal_sequence/museum_causal/museum_causal_4.png"" class=""exp-image"">
                        <div class=""question-area"">
                            <p style=""font-size: 20px; font-weight: bold; margin: 0;"">Is there a person in this image?</p>
                        </div>
                    </div>","1","main_causal_task","4","museum_causal","","","","",""
"","","","","","html-keyboard-response","81","238461","0.0-81.0","68F7FB8FDAA247559572564C7042FB6D","019ce877-977d-781b-a5a8-85959e41fee4","019ce875-66c2-7f0b-b5e8-086c75889f84","","null","
                    <div class=""stimulus-container"">
                        <img src=""images/causal_sequence/museum_causal/museum_causal_5.png"" class=""exp-image"">
                        <div class=""question-area""></div> 
                    </div>","null","","","","","","","",""
"","","","","","html-button-response","82","239621","0.0-82.0","68F7FB8FDAA247559572564C7042FB6D","019ce877-977d-781b-a5a8-85959e41fee4","019ce875-66c2-7f0b-b5e8-086c75889f84","","1159","
                    <div class=""stimulus-container"">
                        <img src=""images/causal_sequence/museum_causal/museum_causal_5.png"" class=""exp-image"">
                        <div class=""question-area"">
                            <p style=""font-size: 20px; font-weight: bold; margin: 0;"">Is there a person in this image?</p>
                        </div>
                    </div>","0","main_causal_task","5","museum_causal","","","","",""
"","","","","","html-keyboard-response","83","244624","0.0-83.0","68F7FB8FDAA247559572564C7042FB6D","019ce877-977d-781b-a5a8-85959e41fee4","019ce875-66c2-7f0b-b5e8-086c75889f84","","null","
                    <div class=""stimulus-container"">
                        <img src=""images/causal_sequence/museum_causal/museum_causal_6.png"" class=""exp-image"">
                        <div class=""question-area""></div> 
                    </div>","null","","","","","","","",""
"","","","","","html-button-response","84","245380","0.0-84.0","68F7FB8FDAA247559572564C7042FB6D","019ce877-977d-781b-a5a8-85959e41fee4","019ce875-66c2-7f0b-b5e8-086c75889f84","","755","
                    <div class=""stimulus-container"">
                        <img src=""images/causal_sequence/museum_causal/museum_causal_6.png"" class=""exp-image"">
                        <div class=""question-area"">
                            <p style=""font-size: 20px; font-weight: bold; margin: 0;"">Is there a person in this image?</p>
                        </div>
                    </div>","0","main_causal_task","6","museum_causal","","","","",""
"","","","","","html-keyboard-response","85","250382","0.0-85.0","68F7FB8FDAA247559572564C7042FB6D","019ce877-977d-781b-a5a8-85959e41fee4","019ce875-66c2-7f0b-b5e8-086c75889f84","","null","
                    <div class=""stimulus-container"">
                        <img src=""images/causal_sequence/museum_causal/museum_causal_7.png"" class=""exp-image"">
                        <div class=""question-area""></div> 
                    </div>","null","","","","","","","",""
"","","","","","html-button-response","86","252019","0.0-86.0","68F7FB8FDAA247559572564C7042FB6D","019ce877-977d-781b-a5a8-85959e41fee4","019ce875-66c2-7f0b-b5e8-086c75889f84","","1635","
                    <div class=""stimulus-container"">
                        <img src=""images/causal_sequence/museum_causal/museum_causal_7.png"" class=""exp-image"">
                        <div class=""question-area"">
                            <p style=""font-size: 20px; font-weight: bold; margin: 0;"">Is there a person in this image?</p>
                        </div>
                    </div>","1","main_causal_task","7","museum_causal","","","","",""
"","","","","","html-keyboard-response","87","257022","0.0-87.0","68F7FB8FDAA247559572564C7042FB6D","019ce877-977d-781b-a5a8-85959e41fee4","019ce875-66c2-7f0b-b5e8-086c75889f84","","null","
                    <div class=""stimulus-container"">
                        <img src=""images/causal_sequence/museum_causal/museum_causal_8.png"" class=""exp-image"">
                        <div class=""question-area""></div> 
                    </div>","null","","","","","","","",""
"","","","","","html-button-response","88","258186","0.0-88.0","68F7FB8FDAA247559572564C7042FB6D","019ce877-977d-781b-a5a8-85959e41fee4","019ce875-66c2-7f0b-b5e8-086c75889f84","","1162","
                    <div class=""stimulus-container"">
                        <img src=""images/causal_sequence/museum_causal/museum_causal_8.png"" class=""exp-image"">
                        <div class=""question-area"">
                            <p style=""font-size: 20px; font-weight: bold; margin: 0;"">Is there a person in this image?</p>
                        </div>
                    </div>","0","main_causal_task","8","museum_causal","","","","",""
"","","","","","html-keyboard-response","89","263190","0.0-89.0","68F7FB8FDAA247559572564C7042FB6D","019ce877-977d-781b-a5a8-85959e41fee4","019ce875-66c2-7f0b-b5e8-086c75889f84","","null","
                    <div class=""stimulus-container"">
                        <img src=""images/causal_sequence/museum_causal/museum_causal_9.png"" class=""exp-image"">
                        <div class=""question-area""></div> 
                    </div>","null","","","","","","","",""
"","","","","","html-button-response","90","264381","0.0-90.0","68F7FB8FDAA247559572564C7042FB6D","019ce877-977d-781b-a5a8-85959e41fee4","019ce875-66c2-7f0b-b5e8-086c75889f84","","1190","
                    <div class=""stimulus-container"">
                        <img src=""images/causal_sequence/museum_causal/museum_causal_9.png"" class=""exp-image"">
                        <div class=""question-area"">
                            <p style=""font-size: 20px; font-weight: bold; margin: 0;"">Is there a person in this image?</p>
                        </div>
                    </div>","1","main_causal_task","9","museum_causal","","","","",""
"","","","","","html-keyboard-response","91","265384","0.0-91.0","68F7FB8FDAA247559572564C7042FB6D","019ce877-977d-781b-a5a8-85959e41fee4","019ce875-66c2-7f0b-b5e8-086c75889f84","","null","<div style=""background-color: gray; width: 100vw; height: 100vh;""></div>","null","","","","","","","",""
"","","","","","html-keyboard-response","92","270389","0.0-92.0","68F7FB8FDAA247559572564C7042FB6D","019ce877-977d-781b-a5a8-85959e41fee4","019ce875-66c2-7f0b-b5e8-086c75889f84","","null","
                    <div class=""stimulus-container"">
                        <img src=""images/causal_sequence/saving_a_cat_causal/saving_a_cat_causal_1.png"" class=""exp-image"">
                        <div class=""question-area""></div> 
                    </div>","null","","","","","","","",""
"","","","","","html-button-response","93","271696","0.0-93.0","68F7FB8FDAA247559572564C7042FB6D","019ce877-977d-781b-a5a8-85959e41fee4","019ce875-66c2-7f0b-b5e8-086c75889f84","","1306","
                    <div class=""stimulus-container"">
                        <img src=""images/causal_sequence/saving_a_cat_causal/saving_a_cat_causal_1.png"" class=""exp-image"">
                        <div class=""question-area"">
                            <p style=""font-size: 20px; font-weight: bold; margin: 0;"">Is there a person in this image?</p>
                        </div>
                    </div>","0","main_causal_task","1","saving_a_cat_causal","","","","",""
"","","","","","html-keyboard-response","94","276702","0.0-94.0","68F7FB8FDAA247559572564C7042FB6D","019ce877-977d-781b-a5a8-85959e41fee4","019ce875-66c2-7f0b-b5e8-086c75889f84","","null","
                    <div class=""stimulus-container"">
                        <img src=""images/causal_sequence/saving_a_cat_causal/saving_a_cat_causal_2.png"" class=""exp-image"">
                        <div class=""question-area""></div> 
                    </div>","null","","","","","","","",""
"","","","","","html-button-response","95","278099","0.0-95.0","68F7FB8FDAA247559572564C7042FB6D","019ce877-977d-781b-a5a8-85959e41fee4","019ce875-66c2-7f0b-b5e8-086c75889f84","","1396","
                    <div class=""stimulus-container"">
                        <img src=""images/causal_sequence/saving_a_cat_causal/saving_a_cat_causal_2.png"" class=""exp-image"">
                        <div class=""question-area"">
                            <p style=""font-size: 20px; font-weight: bold; margin: 0;"">Is there a person in this image?</p>
                        </div>
                    </div>","1","main_causal_task","2","saving_a_cat_causal","","","","",""
"","","","","","html-keyboard-response","96","283103","0.0-96.0","68F7FB8FDAA247559572564C7042FB6D","019ce877-977d-781b-a5a8-85959e41fee4","019ce875-66c2-7f0b-b5e8-086c75889f84","","null","
                    <div class=""stimulus-container"">
                        <img src=""images/causal_sequence/saving_a_cat_causal/saving_a_cat_causal_3.png"" class=""exp-image"">
                        <div class=""question-area""></div> 
                    </div>","null","","","","","","","",""
"","","","","","html-button-response","97","284014","0.0-97.0","68F7FB8FDAA247559572564C7042FB6D","019ce877-977d-781b-a5a8-85959e41fee4","019ce875-66c2-7f0b-b5e8-086c75889f84","","909","
                    <div class=""stimulus-container"">
                        <img src=""images/causal_sequence/saving_a_cat_causal/saving_a_cat_causal_3.png"" class=""exp-image"">
                        <div class=""question-area"">
                            <p style=""font-size: 20px; font-weight: bold; margin: 0;"">Is there a person in this image?</p>
                        </div>
                    </div>","1","main_causal_task","3","saving_a_cat_causal","","","","",""
"","","","","","html-keyboard-response","98","289018","0.0-98.0","68F7FB8FDAA247559572564C7042FB6D","019ce877-977d-781b-a5a8-85959e41fee4","019ce875-66c2-7f0b-b5e8-086c75889f84","","null","
                    <div class=""stimulus-container"">
                        <img src=""images/causal_sequence/saving_a_cat_causal/saving_a_cat_causal_4.png"" class=""exp-image"">
                        <div class=""question-area""></div> 
                    </div>","null","","","","","","","",""
"","","","","","html-button-response","99","290113","0.0-99.0","68F7FB8FDAA247559572564C7042FB6D","019ce877-977d-781b-a5a8-85959e41fee4","019ce875-66c2-7f0b-b5e8-086c75889f84","","1094","
                    <div class=""stimulus-container"">
                        <img src=""images/causal_sequence/saving_a_cat_causal/saving_a_cat_causal_4.png"" class=""exp-image"">
                        <div class=""question-area"">
                            <p style=""font-size: 20px; font-weight: bold; margin: 0;"">Is there a person in this image?</p>
                        </div>
                    </div>","0","main_causal_task","4","saving_a_cat_causal","","","","",""
"","","","","","html-keyboard-response","100","295119","0.0-100.0","68F7FB8FDAA247559572564C7042FB6D","019ce877-977d-781b-a5a8-85959e41fee4","019ce875-66c2-7f0b-b5e8-086c75889f84","","null","
                    <div class=""stimulus-container"">
                        <img src=""images/causal_sequence/saving_a_cat_causal/saving_a_cat_causal_5.png"" class=""exp-image"">
                        <div class=""question-area""></div> 
                    </div>","null","","","","","","","",""
"","","","","","html-button-response","101","295882","0.0-101.0","68F7FB8FDAA247559572564C7042FB6D","019ce877-977d-781b-a5a8-85959e41fee4","019ce875-66c2-7f0b-b5e8-086c75889f84","","762","
                    <div class=""stimulus-container"">
                        <img src=""images/causal_sequence/saving_a_cat_causal/saving_a_cat_causal_5.png"" class=""exp-image"">
                        <div class=""question-area"">
                            <p style=""font-size: 20px; font-weight: bold; margin: 0;"">Is there a person in this image?</p>
                        </div>
                    </div>","0","main_causal_task","5","saving_a_cat_causal","","","","",""
"","","","","","html-keyboard-response","102","300887","0.0-102.0","68F7FB8FDAA247559572564C7042FB6D","019ce877-977d-781b-a5a8-85959e41fee4","019ce875-66c2-7f0b-b5e8-086c75889f84","","null","
                    <div class=""stimulus-container"">
                        <img src=""images/causal_sequence/saving_a_cat_causal/saving_a_cat_causal_6.png"" class=""exp-image"">
                        <div class=""question-area""></div> 
                    </div>","null","","","","","","","",""
"","","","","","html-button-response","103","301655","0.0-103.0","68F7FB8FDAA247559572564C7042FB6D","019ce877-977d-781b-a5a8-85959e41fee4","019ce875-66c2-7f0b-b5e8-086c75889f84","","766","
                    <div class=""stimulus-container"">
                        <img src=""images/causal_sequence/saving_a_cat_causal/saving_a_cat_causal_6.png"" class=""exp-image"">
                        <div class=""question-area"">
                            <p style=""font-size: 20px; font-weight: bold; margin: 0;"">Is there a person in this image?</p>
                        </div>
                    </div>","0","main_causal_task","6","saving_a_cat_causal","","","","",""
"","","","","","html-keyboard-response","104","306656","0.0-104.0","68F7FB8FDAA247559572564C7042FB6D","019ce877-977d-781b-a5a8-85959e41fee4","019ce875-66c2-7f0b-b5e8-086c75889f84","","null","
                    <div class=""stimulus-container"">
                        <img src=""images/causal_sequence/saving_a_cat_causal/saving_a_cat_causal_7.png"" class=""exp-image"">
                        <div class=""question-area""></div> 
                    </div>","null","","","","","","","",""
"","","","","","html-button-response","105","307531","0.0-105.0","68F7FB8FDAA247559572564C7042FB6D","019ce877-977d-781b-a5a8-85959e41fee4","019ce875-66c2-7f0b-b5e8-086c75889f84","","874","
                    <div class=""stimulus-container"">
                        <img src=""images/causal_sequence/saving_a_cat_causal/saving_a_cat_causal_7.png"" class=""exp-image"">
                        <div class=""question-area"">
                            <p style=""font-size: 20px; font-weight: bold; margin: 0;"">Is there a person in this image?</p>
                        </div>
                    </div>","0","main_causal_task","7","saving_a_cat_causal","","","","",""
"","","","","","html-keyboard-response","106","312537","0.0-106.0","68F7FB8FDAA247559572564C7042FB6D","019ce877-977d-781b-a5a8-85959e41fee4","019ce875-66c2-7f0b-b5e8-086c75889f84","","null","
                    <div class=""stimulus-container"">
                        <img src=""images/causal_sequence/saving_a_cat_causal/saving_a_cat_causal_8.png"" class=""exp-image"">
                        <div class=""question-area""></div> 
                    </div>","null","","","","","","","",""
"","","","","","html-button-response","107","313313","0.0-107.0","68F7FB8FDAA247559572564C7042FB6D","019ce877-977d-781b-a5a8-85959e41fee4","019ce875-66c2-7f0b-b5e8-086c75889f84","","776","
                    <div class=""stimulus-container"">
                        <img src=""images/causal_sequence/saving_a_cat_causal/saving_a_cat_causal_8.png"" class=""exp-image"">
                        <div class=""question-area"">
                            <p style=""font-size: 20px; font-weight: bold; margin: 0;"">Is there a person in this image?</p>
                        </div>
                    </div>","0","main_causal_task","8","saving_a_cat_causal","","","","",""
"","","","","","html-keyboard-response","108","318319","0.0-108.0","68F7FB8FDAA247559572564C7042FB6D","019ce877-977d-781b-a5a8-85959e41fee4","019ce875-66c2-7f0b-b5e8-086c75889f84","","null","
                    <div class=""stimulus-container"">
                        <img src=""images/causal_sequence/saving_a_cat_causal/saving_a_cat_causal_9.png"" class=""exp-image"">
                        <div class=""question-area""></div> 
                    </div>","null","","","","","","","",""
"","","","","","html-button-response","109","318983","0.0-109.0","68F7FB8FDAA247559572564C7042FB6D","019ce877-977d-781b-a5a8-85959e41fee4","019ce875-66c2-7f0b-b5e8-086c75889f84","","663","
                    <div class=""stimulus-container"">
                        <img src=""images/causal_sequence/saving_a_cat_causal/saving_a_cat_causal_9.png"" class=""exp-image"">
                        <div class=""question-area"">
                            <p style=""font-size: 20px; font-weight: bold; margin: 0;"">Is there a person in this image?</p>
                        </div>
                    </div>","0","main_causal_task","9","saving_a_cat_causal","","","","",""
"","","","","","html-keyboard-response","110","319987","0.0-110.0","68F7FB8FDAA247559572564C7042FB6D","019ce877-977d-781b-a5a8-85959e41fee4","019ce875-66c2-7f0b-b5e8-086c75889f84","","null","<div style=""background-color: gray; width: 100vw; height: 100vh;""></div>","null","","","","","","","",""
"","","","","","html-keyboard-response","111","324991","0.0-111.0","68F7FB8FDAA247559572564C7042FB6D","019ce877-977d-781b-a5a8-85959e41fee4","019ce875-66c2-7f0b-b5e8-086c75889f84","","null","
                    <div class=""stimulus-container"">
                        <img src=""images/causal_sequence/coin_causal/coin_causal_1.png"" class=""exp-image"">
                        <div class=""question-area""></div> 
                    </div>","null","","","","","","","",""
"","","","","","html-button-response","112","325976","0.0-112.0","68F7FB8FDAA247559572564C7042FB6D","019ce877-977d-781b-a5a8-85959e41fee4","019ce875-66c2-7f0b-b5e8-086c75889f84","","984","
                    <div class=""stimulus-container"">
                        <img src=""images/causal_sequence/coin_causal/coin_causal_1.png"" class=""exp-image"">
                        <div class=""question-area"">
                            <p style=""font-size: 20px; font-weight: bold; margin: 0;"">Is there a person in this image?</p>
                        </div>
                    </div>","0","main_causal_task","1","coin_causal","","","","",""
"","","","","","html-keyboard-response","113","330979","0.0-113.0","68F7FB8FDAA247559572564C7042FB6D","019ce877-977d-781b-a5a8-85959e41fee4","019ce875-66c2-7f0b-b5e8-086c75889f84","","null","
                    <div class=""stimulus-container"">
                        <img src=""images/causal_sequence/coin_causal/coin_causal_2.png"" class=""exp-image"">
                        <div class=""question-area""></div> 
                    </div>","null","","","","","","","",""
"","","","","","html-button-response","114","331787","0.0-114.0","68F7FB8FDAA247559572564C7042FB6D","019ce877-977d-781b-a5a8-85959e41fee4","019ce875-66c2-7f0b-b5e8-086c75889f84","","805","
                    <div class=""stimulus-container"">
                        <img src=""images/causal_sequence/coin_causal/coin_causal_2.png"" class=""exp-image"">
                        <div class=""question-area"">
                            <p style=""font-size: 20px; font-weight: bold; margin: 0;"">Is there a person in this image?</p>
                        </div>
                    </div>","0","main_causal_task","2","coin_causal","","","","",""
"","","","","","html-keyboard-response","115","336790","0.0-115.0","68F7FB8FDAA247559572564C7042FB6D","019ce877-977d-781b-a5a8-85959e41fee4","019ce875-66c2-7f0b-b5e8-086c75889f84","","null","
                    <div class=""stimulus-container"">
                        <img src=""images/causal_sequence/coin_causal/coin_causal_3.png"" class=""exp-image"">
                        <div class=""question-area""></div> 
                    </div>","null","","","","","","","",""
"","","","","","html-button-response","116","337486","0.0-116.0","68F7FB8FDAA247559572564C7042FB6D","019ce877-977d-781b-a5a8-85959e41fee4","019ce875-66c2-7f0b-b5e8-086c75889f84","","693","
                    <div class=""stimulus-container"">
                        <img src=""images/causal_sequence/coin_causal/coin_causal_3.png"" class=""exp-image"">
                        <div class=""question-area"">
                            <p style=""font-size: 20px; font-weight: bold; margin: 0;"">Is there a person in this image?</p>
                        </div>
                    </div>","0","main_causal_task","3","coin_causal","","","","",""
"","","","","","html-keyboard-response","117","342491","0.0-117.0","68F7FB8FDAA247559572564C7042FB6D","019ce877-977d-781b-a5a8-85959e41fee4","019ce875-66c2-7f0b-b5e8-086c75889f84","","null","
                    <div class=""stimulus-container"">
                        <img src=""images/causal_sequence/coin_causal/coin_causal_4.png"" class=""exp-image"">
                        <div class=""question-area""></div> 
                    </div>","null","","","","","","","",""
"","","","","","html-button-response","118","343230","0.0-118.0","68F7FB8FDAA247559572564C7042FB6D","019ce877-977d-781b-a5a8-85959e41fee4","019ce875-66c2-7f0b-b5e8-086c75889f84","","737","
                    <div class=""stimulus-container"">
                        <img src=""images/causal_sequence/coin_causal/coin_causal_4.png"" class=""exp-image"">
                        <div class=""question-area"">
                            <p style=""font-size: 20px; font-weight: bold; margin: 0;"">Is there a person in this image?</p>
                        </div>
                    </div>","0","main_causal_task","4","coin_causal","","","","",""
"","","","","","html-keyboard-response","119","348236","0.0-119.0","68F7FB8FDAA247559572564C7042FB6D","019ce877-977d-781b-a5a8-85959e41fee4","019ce875-66c2-7f0b-b5e8-086c75889f84","","null","
                    <div class=""stimulus-container"">
                        <img src=""images/causal_sequence/coin_causal/coin_causal_5.png"" class=""exp-image"">
                        <div class=""question-area""></div> 
                    </div>","null","","","","","","","",""
"","","","","","html-button-response","120","348970","0.0-120.0","68F7FB8FDAA247559572564C7042FB6D","019ce877-977d-781b-a5a8-85959e41fee4","019ce875-66c2-7f0b-b5e8-086c75889f84","","733","
                    <div class=""stimulus-container"">
                        <img src=""images/causal_sequence/coin_causal/coin_causal_5.png"" class=""exp-image"">
                        <div class=""question-area"">
                            <p style=""font-size: 20px; font-weight: bold; margin: 0;"">Is there a person in this image?</p>
                        </div>
                    </div>","0","main_causal_task","5","coin_causal","","","","",""
"","","","","","html-keyboard-response","121","353972","0.0-121.0","68F7FB8FDAA247559572564C7042FB6D","019ce877-977d-781b-a5a8-85959e41fee4","019ce875-66c2-7f0b-b5e8-086c75889f84","","null","
                    <div class=""stimulus-container"">
                        <img src=""images/causal_sequence/coin_causal/coin_causal_6.png"" class=""exp-image"">
                        <div class=""question-area""></div> 
                    </div>","null","","","","","","","",""
"","","","","","html-button-response","122","354760","0.0-122.0","68F7FB8FDAA247559572564C7042FB6D","019ce877-977d-781b-a5a8-85959e41fee4","019ce875-66c2-7f0b-b5e8-086c75889f84","","788","
                    <div class=""stimulus-container"">
                        <img src=""images/causal_sequence/coin_causal/coin_causal_6.png"" class=""exp-image"">
                        <div class=""question-area"">
                            <p style=""font-size: 20px; font-weight: bold; margin: 0;"">Is there a person in this image?</p>
                        </div>
                    </div>","0","main_causal_task","6","coin_causal","","","","",""
"","","","","","html-keyboard-response","123","359767","0.0-123.0","68F7FB8FDAA247559572564C7042FB6D","019ce877-977d-781b-a5a8-85959e41fee4","019ce875-66c2-7f0b-b5e8-086c75889f84","","null","
                    <div class=""stimulus-container"">
                        <img src=""images/causal_sequence/coin_causal/coin_causal_7.png"" class=""exp-image"">
                        <div class=""question-area""></div> 
                    </div>","null","","","","","","","",""
"","","","","","html-button-response","124","360868","0.0-124.0","68F7FB8FDAA247559572564C7042FB6D","019ce877-977d-781b-a5a8-85959e41fee4","019ce875-66c2-7f0b-b5e8-086c75889f84","","1100","
                    <div class=""stimulus-container"">
                        <img src=""images/causal_sequence/coin_causal/coin_causal_7.png"" class=""exp-image"">
                        <div class=""question-area"">
                            <p style=""font-size: 20px; font-weight: bold; margin: 0;"">Is there a person in this image?</p>
                        </div>
                    </div>","1","main_causal_task","7","coin_causal","","","","",""
"","","","","","html-keyboard-response","125","365871","0.0-125.0","68F7FB8FDAA247559572564C7042FB6D","019ce877-977d-781b-a5a8-85959e41fee4","019ce875-66c2-7f0b-b5e8-086c75889f84","","null","
                    <div class=""stimulus-container"">
                        <img src=""images/causal_sequence/coin_causal/coin_causal_8.png"" class=""exp-image"">
                        <div class=""question-area""></div> 
                    </div>","null","","","","","","","",""
"","","","","","html-button-response","126","366668","0.0-126.0","68F7FB8FDAA247559572564C7042FB6D","019ce877-977d-781b-a5a8-85959e41fee4","019ce875-66c2-7f0b-b5e8-086c75889f84","","797","
                    <div class=""stimulus-container"">
                        <img src=""images/causal_sequence/coin_causal/coin_causal_8.png"" class=""exp-image"">
                        <div class=""question-area"">
                            <p style=""font-size: 20px; font-weight: bold; margin: 0;"">Is there a person in this image?</p>
                        </div>
                    </div>","0","main_causal_task","8","coin_causal","","","","",""
"","","","","","html-keyboard-response","127","371673","0.0-127.0","68F7FB8FDAA247559572564C7042FB6D","019ce877-977d-781b-a5a8-85959e41fee4","019ce875-66c2-7f0b-b5e8-086c75889f84","","null","
                    <div class=""stimulus-container"">
                        <img src=""images/causal_sequence/coin_causal/coin_causal_9.png"" class=""exp-image"">
                        <div class=""question-area""></div> 
                    </div>","null","","","","","","","",""
"","","","","","html-button-response","128","372532","0.0-128.0","68F7FB8FDAA247559572564C7042FB6D","019ce877-977d-781b-a5a8-85959e41fee4","019ce875-66c2-7f0b-b5e8-086c75889f84","","858","
                    <div class=""stimulus-container"">
                        <img src=""images/causal_sequence/coin_causal/coin_causal_9.png"" class=""exp-image"">
                        <div class=""question-area"">
                            <p style=""font-size: 20px; font-weight: bold; margin: 0;"">Is there a person in this image?</p>
                        </div>
                    </div>","0","main_causal_task","9","coin_causal","","","","",""
"","","","","","instructions","129","373942","0.0-129.0","68F7FB8FDAA247559572564C7042FB6D","019ce877-977d-781b-a5a8-85959e41fee4","019ce875-66c2-7f0b-b5e8-086c75889f84","[{""page_index"":0,""viewing_time"":1409}]","1409","","","","","","","","","",""
"","","","","","instructions","130","376742","0.0-130.0","68F7FB8FDAA247559572564C7042FB6D","019ce877-977d-781b-a5a8-85959e41fee4","019ce875-66c2-7f0b-b5e8-086c75889f84","[{""page_index"":0,""viewing_time"":2800}]","2800","","","","","","","","","",""
"","","","","","html-button-response","131","379171","0.0-131.0-0.0","68F7FB8FDAA247559572564C7042FB6D","019ce877-977d-781b-a5a8-85959e41fee4","019ce875-66c2-7f0b-b5e8-086c75889f84","","2428","
                <div style=""margin-bottom:20px;""><h3>Example: Valuable Image</h3></div>
                <div class=""stimulus-container"" style=""display: flex; align-items: center; justify-content: center; gap: 30px;"">
                    <img src=""images/instructions/movie_1.png"" class=""exp-image"">
                    <div style=""font-size: 35px; font-weight: bold; color: green; border: 5px solid green; padding: 20px; border-radius: 15px; background-color: #f0fff0;"">
                        WORTH<br>$1
                    </div>
                </div>
                <div class=""question-area""><p>Was there a person in this image?</p></div>","0","","","","","","","",""
"","","","","","html-button-response","132","380637","0.0-131.0-1.0","68F7FB8FDAA247559572564C7042FB6D","019ce877-977d-781b-a5a8-85959e41fee4","019ce875-66c2-7f0b-b5e8-086c75889f84","","1463","
                <div style=""margin-bottom:20px;""><h3>Example: Neutral Image</h3></div>
                <div class=""stimulus-container"" style=""display: flex; align-items: center; justify-content: center; gap: 30px;"">
                    <img src=""images/instructions/movie_2.png"" class=""exp-image"">
                    <div style=""font-size: 35px; font-weight: bold; color: grey; border: 5px solid grey; padding: 20px; border-radius: 15px; background-color: #f0f0f0;"">
                        NEUTRAL<br>VALUE
                    </div>
                </div>
                <div class=""question-area""><p>Was there a person in this image?</p></div>","1","","","","","","","",""
"","","","","","html-keyboard-response","133","388641","0.0-132.0","68F7FB8FDAA247559572564C7042FB6D","019ce877-977d-781b-a5a8-85959e41fee4","019ce875-66c2-7f0b-b5e8-086c75889f84","","null","
            <div class=""stimulus-container"" style=""display: flex; align-items: center; justify-content: center; gap: 30px;"">
                <img src=""images/causal_sequence/coin_causal/coin_causal_6.png"" class=""exp-image"">
                <div style=""font-size: 40px; font-weight: bold; color: green; border: 5px solid green; padding: 25px; border-radius: 15px; background-color: #f0fff0;"">
                    WORTH<br>$1
                </div>
            </div>
            <div class=""question-area""></div>","null","","","","","","","",""
"","","","","","html-button-response","134","389848","0.0-133.0","68F7FB8FDAA247559572564C7042FB6D","019ce877-977d-781b-a5a8-85959e41fee4","019ce875-66c2-7f0b-b5e8-086c75889f84","","1206","
            <div class=""stimulus-container"" style=""display: flex; align-items: center; justify-content: center; gap: 30px;"">
                <img src=""images/causal_sequence/coin_causal/coin_causal_6.png"" class=""exp-image"">
                <div style=""font-size: 40px; font-weight: bold; color: green; border: 5px solid green; padding: 25px; border-radius: 15px; background-color: #f0fff0;"">
                    WORTH<br>$1
                </div>
            </div>
            <div class=""question-area"">
                <p style=""font-size: 20px; font-weight: bold; margin: 0;"">Was there a person in this image?</p>
            </div>","0","part2_value_learning","","coin_causal","6","valuable","","",""
"","","","","","html-keyboard-response","135","397850","0.0-134.0","68F7FB8FDAA247559572564C7042FB6D","019ce877-977d-781b-a5a8-85959e41fee4","019ce875-66c2-7f0b-b5e8-086c75889f84","","null","
            <div class=""stimulus-container"" style=""display: flex; align-items: center; justify-content: center; gap: 30px;"">
                <img src=""images/causal_sequence/the_performance_causal/the_performance_causal_6.png"" class=""exp-image"">
                <div style=""font-size: 40px; font-weight: bold; color: green; border: 5px solid green; padding: 25px; border-radius: 15px; background-color: #f0fff0;"">
                    WORTH<br>$1
                </div>
            </div>
            <div class=""question-area""></div>","null","","","","","","","",""
"","","","","","html-button-response","136","399355","0.0-135.0","68F7FB8FDAA247559572564C7042FB6D","019ce877-977d-781b-a5a8-85959e41fee4","019ce875-66c2-7f0b-b5e8-086c75889f84","","1502","
            <div class=""stimulus-container"" style=""display: flex; align-items: center; justify-content: center; gap: 30px;"">
                <img src=""images/causal_sequence/the_performance_causal/the_performance_causal_6.png"" class=""exp-image"">
                <div style=""font-size: 40px; font-weight: bold; color: green; border: 5px solid green; padding: 25px; border-radius: 15px; background-color: #f0fff0;"">
                    WORTH<br>$1
                </div>
            </div>
            <div class=""question-area"">
                <p style=""font-size: 20px; font-weight: bold; margin: 0;"">Was there a person in this image?</p>
            </div>","0","part2_value_learning","","the_performance_causal","6","valuable","","",""
"","","","","","html-keyboard-response","137","407356","0.0-136.0","68F7FB8FDAA247559572564C7042FB6D","019ce877-977d-781b-a5a8-85959e41fee4","019ce875-66c2-7f0b-b5e8-086c75889f84","","null","
            <div class=""stimulus-container"" style=""display: flex; align-items: center; justify-content: center; gap: 30px;"">
                <img src=""images/causal_sequence/saving_a_cat_causal/saving_a_cat_causal_6.png"" class=""exp-image"">
                <div style=""font-size: 40px; font-weight: bold; color: green; border: 5px solid green; padding: 25px; border-radius: 15px; background-color: #f0fff0;"">
                    WORTH<br>$1
                </div>
            </div>
            <div class=""question-area""></div>","null","","","","","","","",""
"","","","","","html-button-response","138","408230","0.0-137.0","68F7FB8FDAA247559572564C7042FB6D","019ce877-977d-781b-a5a8-85959e41fee4","019ce875-66c2-7f0b-b5e8-086c75889f84","","873","
            <div class=""stimulus-container"" style=""display: flex; align-items: center; justify-content: center; gap: 30px;"">
                <img src=""images/causal_sequence/saving_a_cat_causal/saving_a_cat_causal_6.png"" class=""exp-image"">
                <div style=""font-size: 40px; font-weight: bold; color: green; border: 5px solid green; padding: 25px; border-radius: 15px; background-color: #f0fff0;"">
                    WORTH<br>$1
                </div>
            </div>
            <div class=""question-area"">
                <p style=""font-size: 20px; font-weight: bold; margin: 0;"">Was there a person in this image?</p>
            </div>","0","part2_value_learning","","saving_a_cat_causal","6","valuable","","",""
"","","","","","html-keyboard-response","139","416237","0.0-138.0","68F7FB8FDAA247559572564C7042FB6D","019ce877-977d-781b-a5a8-85959e41fee4","019ce875-66c2-7f0b-b5e8-086c75889f84","","null","
            <div class=""stimulus-container"" style=""display: flex; align-items: center; justify-content: center; gap: 30px;"">
                <img src=""images/causal_sequence/museum_causal/museum_causal_3.png"" class=""exp-image"">
                <div style=""font-size: 40px; font-weight: bold; color: grey; border: 5px solid grey; padding: 25px; border-radius: 15px; background-color: #f0f0f0;"">
                    NEUTRAL<br>VALUE
                </div>
            </div>
            <div class=""question-area""></div>","null","","","","","","","",""
"","","","","","html-button-response","140","417872","0.0-139.0","68F7FB8FDAA247559572564C7042FB6D","019ce877-977d-781b-a5a8-85959e41fee4","019ce875-66c2-7f0b-b5e8-086c75889f84","","1633","
            <div class=""stimulus-container"" style=""display: flex; align-items: center; justify-content: center; gap: 30px;"">
                <img src=""images/causal_sequence/museum_causal/museum_causal_3.png"" class=""exp-image"">
                <div style=""font-size: 40px; font-weight: bold; color: grey; border: 5px solid grey; padding: 25px; border-radius: 15px; background-color: #f0f0f0;"">
                    NEUTRAL<br>VALUE
                </div>
            </div>
            <div class=""question-area"">
                <p style=""font-size: 20px; font-weight: bold; margin: 0;"">Was there a person in this image?</p>
            </div>","1","part2_value_learning","","museum_causal","3","neutral","","",""
"","","","","","html-keyboard-response","141","425877","0.0-140.0","68F7FB8FDAA247559572564C7042FB6D","019ce877-977d-781b-a5a8-85959e41fee4","019ce875-66c2-7f0b-b5e8-086c75889f84","","null","
            <div class=""stimulus-container"" style=""display: flex; align-items: center; justify-content: center; gap: 30px;"">
                <img src=""images/causal_sequence/package_causal/package_causal_6.png"" class=""exp-image"">
                <div style=""font-size: 40px; font-weight: bold; color: grey; border: 5px solid grey; padding: 25px; border-radius: 15px; background-color: #f0f0f0;"">
                    NEUTRAL<br>VALUE
                </div>
            </div>
            <div class=""question-area""></div>","null","","","","","","","",""
"","","","","","html-button-response","142","427408","0.0-141.0","68F7FB8FDAA247559572564C7042FB6D","019ce877-977d-781b-a5a8-85959e41fee4","019ce875-66c2-7f0b-b5e8-086c75889f84","","1530","
            <div class=""stimulus-container"" style=""display: flex; align-items: center; justify-content: center; gap: 30px;"">
                <img src=""images/causal_sequence/package_causal/package_causal_6.png"" class=""exp-image"">
                <div style=""font-size: 40px; font-weight: bold; color: grey; border: 5px solid grey; padding: 25px; border-radius: 15px; background-color: #f0f0f0;"">
                    NEUTRAL<br>VALUE
                </div>
            </div>
            <div class=""question-area"">
                <p style=""font-size: 20px; font-weight: bold; margin: 0;"">Was there a person in this image?</p>
            </div>","0","part2_value_learning","","package_causal","6","neutral","","",""
"","","","","","html-keyboard-response","143","435411","0.0-142.0","68F7FB8FDAA247559572564C7042FB6D","019ce877-977d-781b-a5a8-85959e41fee4","019ce875-66c2-7f0b-b5e8-086c75889f84","","null","
            <div class=""stimulus-container"" style=""display: flex; align-items: center; justify-content: center; gap: 30px;"">
                <img src=""images/causal_sequence/dog_causal/dog_causal_5.png"" class=""exp-image"">
                <div style=""font-size: 40px; font-weight: bold; color: grey; border: 5px solid grey; padding: 25px; border-radius: 15px; background-color: #f0f0f0;"">
                    NEUTRAL<br>VALUE
                </div>
            </div>
            <div class=""question-area""></div>","null","","","","","","","",""
"","","","","","html-button-response","144","436186","0.0-143.0","68F7FB8FDAA247559572564C7042FB6D","019ce877-977d-781b-a5a8-85959e41fee4","019ce875-66c2-7f0b-b5e8-086c75889f84","","774","
            <div class=""stimulus-container"" style=""display: flex; align-items: center; justify-content: center; gap: 30px;"">
                <img src=""images/causal_sequence/dog_causal/dog_causal_5.png"" class=""exp-image"">
                <div style=""font-size: 40px; font-weight: bold; color: grey; border: 5px solid grey; padding: 25px; border-radius: 15px; background-color: #f0f0f0;"">
                    NEUTRAL<br>VALUE
                </div>
            </div>
            <div class=""question-area"">
                <p style=""font-size: 20px; font-weight: bold; margin: 0;"">Was there a person in this image?</p>
            </div>","0","part2_value_learning","","dog_causal","5","neutral","","",""
"","","","","","instructions","145","438125","0.0-144.0","68F7FB8FDAA247559572564C7042FB6D","019ce877-977d-781b-a5a8-85959e41fee4","019ce875-66c2-7f0b-b5e8-086c75889f84","[{""page_index"":0,""viewing_time"":1938}]","1939","","","","","","","","","",""
"","","","","","html-keyboard-response","146","448131","0.0-145.0-0.0","68F7FB8FDAA247559572564C7042FB6D","019ce877-977d-781b-a5a8-85959e41fee4","019ce875-66c2-7f0b-b5e8-086c75889f84","","null","
                        <div style=""font-family: Arial; margin-bottom: 20px;""><h3>Which image is more valuable?</h3></div>
                        <div class=""stimulus-container"" style=""display: flex; width: 1100px; justify-content: center; gap: 50px;"">
                            <img src=""images/causal_sequence/package_causal/package_causal_5.png"" class=""exp-image"">
                            <img src=""images/causal_sequence/package_causal/package_causal_7.png"" class=""exp-image"">
                        </div>","null","","","","","","","",""
"","","","","","html-button-response","147","451001","0.0-145.0-1.0","68F7FB8FDAA247559572564C7042FB6D","019ce877-977d-781b-a5a8-85959e41fee4","019ce875-66c2-7f0b-b5e8-086c75889f84","","2870","
                        <div style=""font-family: Arial; margin-bottom: 20px;""><h3>Which image is more valuable?</h3></div>
                        <div class=""stimulus-container"" style=""display: flex; width: 1100px; justify-content: center; gap: 50px;"">
                            <img src=""images/causal_sequence/package_causal/package_causal_5.png"" class=""exp-image"">
                            <img src=""images/causal_sequence/package_causal/package_causal_7.png"" class=""exp-image"">
                        </div>","1","part3_final_choice","","package_causal","","neutral","6","7","1"
"","","","","","html-keyboard-response","148","461004","0.0-146.0-0.0","68F7FB8FDAA247559572564C7042FB6D","019ce877-977d-781b-a5a8-85959e41fee4","019ce875-66c2-7f0b-b5e8-086c75889f84","","null","
                        <div style=""font-family: Arial; margin-bottom: 20px;""><h3>Which image is more valuable?</h3></div>
                        <div class=""stimulus-container"" style=""display: flex; width: 1100px; justify-content: center; gap: 50px;"">
                            <img src=""images/causal_sequence/saving_a_cat_causal/saving_a_cat_causal_7.png"" class=""exp-image"">
                            <img src=""images/causal_sequence/saving_a_cat_causal/saving_a_cat_causal_5.png"" class=""exp-image"">
                        </div>","null","","","","","","","",""
"","","","","","html-button-response","149","462271","0.0-146.0-1.0","68F7FB8FDAA247559572564C7042FB6D","019ce877-977d-781b-a5a8-85959e41fee4","019ce875-66c2-7f0b-b5e8-086c75889f84","","1264","
                        <div style=""font-family: Arial; margin-bottom: 20px;""><h3>Which image is more valuable?</h3></div>
                        <div class=""stimulus-container"" style=""display: flex; width: 1100px; justify-content: center; gap: 50px;"">
                            <img src=""images/causal_sequence/saving_a_cat_causal/saving_a_cat_causal_7.png"" class=""exp-image"">
                            <img src=""images/causal_sequence/saving_a_cat_causal/saving_a_cat_causal_5.png"" class=""exp-image"">
                        </div>","0","part3_final_choice","","saving_a_cat_causal","","valuable","6","7","1"
"","","","","","html-keyboard-response","150","472275","0.0-147.0-0.0","68F7FB8FDAA247559572564C7042FB6D","019ce877-977d-781b-a5a8-85959e41fee4","019ce875-66c2-7f0b-b5e8-086c75889f84","","null","
                        <div style=""font-family: Arial; margin-bottom: 20px;""><h3>Which image is more valuable?</h3></div>
                        <div class=""stimulus-container"" style=""display: flex; width: 1100px; justify-content: center; gap: 50px;"">
                            <img src=""images/causal_sequence/dog_causal/dog_causal_4.png"" class=""exp-image"">
                            <img src=""images/causal_sequence/dog_causal/dog_causal_6.png"" class=""exp-image"">
                        </div>","null","","","","","","","",""
"","","","","","html-button-response","151","473543","0.0-147.0-1.0","68F7FB8FDAA247559572564C7042FB6D","019ce877-977d-781b-a5a8-85959e41fee4","019ce875-66c2-7f0b-b5e8-086c75889f84","","1267","
                        <div style=""font-family: Arial; margin-bottom: 20px;""><h3>Which image is more valuable?</h3></div>
                        <div class=""stimulus-container"" style=""display: flex; width: 1100px; justify-content: center; gap: 50px;"">
                            <img src=""images/causal_sequence/dog_causal/dog_causal_4.png"" class=""exp-image"">
                            <img src=""images/causal_sequence/dog_causal/dog_causal_6.png"" class=""exp-image"">
                        </div>","0","part3_final_choice","","dog_causal","","neutral","5","4","-1"
"","","","","","html-keyboard-response","152","483545","0.0-148.0-0.0","68F7FB8FDAA247559572564C7042FB6D","019ce877-977d-781b-a5a8-85959e41fee4","019ce875-66c2-7f0b-b5e8-086c75889f84","","null","
                        <div style=""font-family: Arial; margin-bottom: 20px;""><h3>Which image is more valuable?</h3></div>
                        <div class=""stimulus-container"" style=""display: flex; width: 1100px; justify-content: center; gap: 50px;"">
                            <img src=""images/causal_sequence/the_performance_causal/the_performance_causal_5.png"" class=""exp-image"">
                            <img src=""images/causal_sequence/the_performance_causal/the_performance_causal_7.png"" class=""exp-image"">
                        </div>","null","","","","","","","",""
"","","","","","html-button-response","153","485073","0.0-148.0-1.0","68F7FB8FDAA247559572564C7042FB6D","019ce877-977d-781b-a5a8-85959e41fee4","019ce875-66c2-7f0b-b5e8-086c75889f84","","1527","
                        <div style=""font-family: Arial; margin-bottom: 20px;""><h3>Which image is more valuable?</h3></div>
                        <div class=""stimulus-container"" style=""display: flex; width: 1100px; justify-content: center; gap: 50px;"">
                            <img src=""images/causal_sequence/the_performance_causal/the_performance_causal_5.png"" class=""exp-image"">
                            <img src=""images/causal_sequence/the_performance_causal/the_performance_causal_7.png"" class=""exp-image"">
                        </div>","0","part3_final_choice","","the_performance_causal","","valuable","6","5","-1"
"","","","","","html-keyboard-response","154","495079","0.0-149.0-0.0","68F7FB8FDAA247559572564C7042FB6D","019ce877-977d-781b-a5a8-85959e41fee4","019ce875-66c2-7f0b-b5e8-086c75889f84","","null","
                        <div style=""font-family: Arial; margin-bottom: 20px;""><h3>Which image is more valuable?</h3></div>
                        <div class=""stimulus-container"" style=""display: flex; width: 1100px; justify-content: center; gap: 50px;"">
                            <img src=""images/causal_sequence/coin_causal/coin_causal_7.png"" class=""exp-image"">
                            <img src=""images/causal_sequence/coin_causal/coin_causal_5.png"" class=""exp-image"">
                        </div>","null","","","","","","","",""
"","","","","","html-button-response","155","496185","0.0-149.0-1.0","68F7FB8FDAA247559572564C7042FB6D","019ce877-977d-781b-a5a8-85959e41fee4","019ce875-66c2-7f0b-b5e8-086c75889f84","","1106","
                        <div style=""font-family: Arial; margin-bottom: 20px;""><h3>Which image is more valuable?</h3></div>
                        <div class=""stimulus-container"" style=""display: flex; width: 1100px; justify-content: center; gap: 50px;"">
                            <img src=""images/causal_sequence/coin_causal/coin_causal_7.png"" class=""exp-image"">
                            <img src=""images/causal_sequence/coin_causal/coin_causal_5.png"" class=""exp-image"">
                        </div>","1","part3_final_choice","","coin_causal","","valuable","6","5","-1"
"","","","","","html-keyboard-response","156","506188","0.0-150.0-0.0","68F7FB8FDAA247559572564C7042FB6D","019ce877-977d-781b-a5a8-85959e41fee4","019ce875-66c2-7f0b-b5e8-086c75889f84","","null","
                        <div style=""font-family: Arial; margin-bottom: 20px;""><h3>Which image is more valuable?</h3></div>
                        <div class=""stimulus-container"" style=""display: flex; width: 1100px; justify-content: center; gap: 50px;"">
                            <img src=""images/causal_sequence/museum_causal/museum_causal_4.png"" class=""exp-image"">
                            <img src=""images/causal_sequence/museum_causal/museum_causal_2.png"" class=""exp-image"">
                        </div>","null","","","","","","","",""
"","","","","","html-button-response","157","515094","0.0-150.0-1.0","68F7FB8FDAA247559572564C7042FB6D","019ce877-977d-781b-a5a8-85959e41fee4","019ce875-66c2-7f0b-b5e8-086c75889f84","","8906","
                        <div style=""font-family: Arial; margin-bottom: 20px;""><h3>Which image is more valuable?</h3></div>
                        <div class=""stimulus-container"" style=""display: flex; width: 1100px; justify-content: center; gap: 50px;"">
                            <img src=""images/causal_sequence/museum_causal/museum_causal_4.png"" class=""exp-image"">
                            <img src=""images/causal_sequence/museum_causal/museum_causal_2.png"" class=""exp-image"">
                        </div>","1","part3_final_choice","","museum_causal","","neutral","3","2","-1"
"","","","","","survey-text","158","553032","0.0-151.0","68F7FB8FDAA247559572564C7042FB6D","019ce877-977d-781b-a5a8-85959e41fee4","019ce875-66c2-7f0b-b5e8-086c75889f84","","37933","","{""gender"":""Female"",""age"":""29"",""decision_strategy"":""I just went with my gut. I didn't see a clear trend from the samples."",""consistency_check"":""I wasn't really using logic, so I suppose it stayed the same.""}","demographics_and_strategy","","","","","","",""
"","","","","","instructions","159","558746","0.0-152.0","68F7FB8FDAA247559572564C7042FB6D","019ce877-977d-781b-a5a8-85959e41fee4","019ce875-66c2-7f0b-b5e8-086c75889f84","[{""page_index"":0,""viewing_time"":5711}]","5711","","","","","","","","","",""
