"success","timeout","failed_images","failed_audio","failed_video","trial_type","trial_index","time_elapsed","internal_node_id","subject_id","study_id","session_id","view_history","rt","stimulus","response","task","image_index","folder","sequence_type","presentation_order","valuable_image_index","reward_type","chosen_image_index","target_X","correct_choice"
"true","false","[]","[]","[]","preload","0","2911","0.0-0.0","8355BBB7E35C49ACAC98CEA54C6D999B","019cf985-09df-7501-acef-0930b2facbf4","019cf974-7aee-7bc9-8ea4-9f55741b365d","","","","","","","","","","","","","",""
"","","","","","instructions","1","4352","0.0-1.0","8355BBB7E35C49ACAC98CEA54C6D999B","019cf985-09df-7501-acef-0930b2facbf4","019cf974-7aee-7bc9-8ea4-9f55741b365d","[{""page_index"":0,""viewing_time"":1440}]","1440","","","","","","","","","","","",""
"","","","","","instructions","2","7553","0.0-2.0","8355BBB7E35C49ACAC98CEA54C6D999B","019cf985-09df-7501-acef-0930b2facbf4","019cf974-7aee-7bc9-8ea4-9f55741b365d","[{""page_index"":0,""viewing_time"":3200}]","3201","","","","","","","","","","","",""
"true","","","","","fullscreen","3","9908","0.0-3.0","8355BBB7E35C49ACAC98CEA54C6D999B","019cf985-09df-7501-acef-0930b2facbf4","019cf974-7aee-7bc9-8ea4-9f55741b365d","","1352","","","","","","","","","","","",""
"","","","","","instructions","4","12105","0.0-4.0","8355BBB7E35C49ACAC98CEA54C6D999B","019cf985-09df-7501-acef-0930b2facbf4","019cf974-7aee-7bc9-8ea4-9f55741b365d","[{""page_index"":0,""viewing_time"":2196}]","2197","","","","","","","","","","","",""
"","","","","","instructions","5","13238","0.0-5.0","8355BBB7E35C49ACAC98CEA54C6D999B","019cf985-09df-7501-acef-0930b2facbf4","019cf974-7aee-7bc9-8ea4-9f55741b365d","[{""page_index"":0,""viewing_time"":1133}]","1133","","","","","","","","","","","",""
"","","","","","html-keyboard-response","6","17250","0.0-6.0","8355BBB7E35C49ACAC98CEA54C6D999B","019cf985-09df-7501-acef-0930b2facbf4","019cf974-7aee-7bc9-8ea4-9f55741b365d","","null","
                <div class=""stimulus-container"">
                    <img src=""images/instructions/movie_1.png"" class=""exp-image"">
                    <div class=""question-area""></div> 
                </div>","null","","","","","","","","","",""
"","","","","","html-button-response","7","20261","0.0-7.0","8355BBB7E35C49ACAC98CEA54C6D999B","019cf985-09df-7501-acef-0930b2facbf4","019cf974-7aee-7bc9-8ea4-9f55741b365d","","null","
                <div class=""stimulus-container"">
                    <img src=""images/instructions/movie_1.png"" class=""exp-image"">
                    <div class=""question-area"">
                        <p style=""font-size: 20px; font-weight: bold; margin: 0;"">Was there a person in this image?</p>
                    </div>
                </div>","null","example_question","1","","","","","","","",""
"","","","","","html-keyboard-response","8","24269","0.0-8.0","8355BBB7E35C49ACAC98CEA54C6D999B","019cf985-09df-7501-acef-0930b2facbf4","019cf974-7aee-7bc9-8ea4-9f55741b365d","","null","
                <div class=""stimulus-container"">
                    <img src=""images/instructions/movie_2.png"" class=""exp-image"">
                    <div class=""question-area""></div> 
                </div>","null","","","","","","","","","",""
"","","","","","html-button-response","9","27281","0.0-9.0","8355BBB7E35C49ACAC98CEA54C6D999B","019cf985-09df-7501-acef-0930b2facbf4","019cf974-7aee-7bc9-8ea4-9f55741b365d","","null","
                <div class=""stimulus-container"">
                    <img src=""images/instructions/movie_2.png"" class=""exp-image"">
                    <div class=""question-area"">
                        <p style=""font-size: 20px; font-weight: bold; margin: 0;"">Was there a person in this image?</p>
                    </div>
                </div>","null","example_question","2","","","","","","","",""
"","","","","","html-keyboard-response","10","31289","0.0-10.0","8355BBB7E35C49ACAC98CEA54C6D999B","019cf985-09df-7501-acef-0930b2facbf4","019cf974-7aee-7bc9-8ea4-9f55741b365d","","null","
                <div class=""stimulus-container"">
                    <img src=""images/instructions/movie_3.png"" class=""exp-image"">
                    <div class=""question-area""></div> 
                </div>","null","","","","","","","","","",""
"","","","","","html-button-response","11","32291","0.0-11.0","8355BBB7E35C49ACAC98CEA54C6D999B","019cf985-09df-7501-acef-0930b2facbf4","019cf974-7aee-7bc9-8ea4-9f55741b365d","","995","
                <div class=""stimulus-container"">
                    <img src=""images/instructions/movie_3.png"" class=""exp-image"">
                    <div class=""question-area"">
                        <p style=""font-size: 20px; font-weight: bold; margin: 0;"">Was there a person in this image?</p>
                    </div>
                </div>","0","example_question","3","","","","","","","",""
"","","","","","html-keyboard-response","12","36300","0.0-12.0","8355BBB7E35C49ACAC98CEA54C6D999B","019cf985-09df-7501-acef-0930b2facbf4","019cf974-7aee-7bc9-8ea4-9f55741b365d","","null","
                <div class=""stimulus-container"">
                    <img src=""images/instructions/movie_4.png"" class=""exp-image"">
                    <div class=""question-area""></div> 
                </div>","null","","","","","","","","","",""
"","","","","","html-button-response","13","37103","0.0-13.0","8355BBB7E35C49ACAC98CEA54C6D999B","019cf985-09df-7501-acef-0930b2facbf4","019cf974-7aee-7bc9-8ea4-9f55741b365d","","797","
                <div class=""stimulus-container"">
                    <img src=""images/instructions/movie_4.png"" class=""exp-image"">
                    <div class=""question-area"">
                        <p style=""font-size: 20px; font-weight: bold; margin: 0;"">Was there a person in this image?</p>
                    </div>
                </div>","0","example_question","4","","","","","","","",""
"","","","","","instructions","14","38637","0.0-14.0","8355BBB7E35C49ACAC98CEA54C6D999B","019cf985-09df-7501-acef-0930b2facbf4","019cf974-7aee-7bc9-8ea4-9f55741b365d","[{""page_index"":0,""viewing_time"":1533}]","1533","","","","","","","","","","","",""
"","","","","","instructions","15","40070","0.0-15.0","8355BBB7E35C49ACAC98CEA54C6D999B","019cf985-09df-7501-acef-0930b2facbf4","019cf974-7aee-7bc9-8ea4-9f55741b365d","[{""page_index"":0,""viewing_time"":1432}]","1433","","","","","","","","","","","",""
"","","","","","html-keyboard-response","16","45072","0.0-16.0","8355BBB7E35C49ACAC98CEA54C6D999B","019cf985-09df-7501-acef-0930b2facbf4","019cf974-7aee-7bc9-8ea4-9f55741b365d","","null","<div style=""background-color: white; width: 100vw; height: 100vh;""></div>","null","","","","","","","","","",""
"","","","","","html-keyboard-response","17","46079","0.0-17.0","8355BBB7E35C49ACAC98CEA54C6D999B","019cf985-09df-7501-acef-0930b2facbf4","019cf974-7aee-7bc9-8ea4-9f55741b365d","","null","
                <div class=""stimulus-container"">
                    <img src=""images/semantic_sequence/creative_activities_semantic/creative_activities_semantic_ten.png"" class=""exp-image"">
                    <div class=""question-area""></div> 
                </div>","null","","","","","","","","","",""
"","","","","","html-button-response","18","47121","0.0-18.0","8355BBB7E35C49ACAC98CEA54C6D999B","019cf985-09df-7501-acef-0930b2facbf4","019cf974-7aee-7bc9-8ea4-9f55741b365d","","1035","
                <div class=""stimulus-container"">
                    <img src=""images/semantic_sequence/creative_activities_semantic/creative_activities_semantic_ten.png"" class=""exp-image"">
                    <div class=""question-area"">
                        <p style=""font-size: 20px; font-weight: bold; margin: 0;"">Is there a person in this image?</p>
                    </div>
                </div>","0","main_experiment_trial","ten","creative_activities_semantic","semantic_sequence","randomized","","","","",""
"","","","","","html-keyboard-response","19","48129","0.0-19.0","8355BBB7E35C49ACAC98CEA54C6D999B","019cf985-09df-7501-acef-0930b2facbf4","019cf974-7aee-7bc9-8ea4-9f55741b365d","","null","
                <div class=""stimulus-container"">
                    <img src=""images/semantic_sequence/creative_activities_semantic/creative_activities_semantic_2.png"" class=""exp-image"">
                    <div class=""question-area""></div> 
                </div>","null","","","","","","","","","",""
"","","","","","html-button-response","20","48770","0.0-20.0","8355BBB7E35C49ACAC98CEA54C6D999B","019cf985-09df-7501-acef-0930b2facbf4","019cf974-7aee-7bc9-8ea4-9f55741b365d","","634","
                <div class=""stimulus-container"">
                    <img src=""images/semantic_sequence/creative_activities_semantic/creative_activities_semantic_2.png"" class=""exp-image"">
                    <div class=""question-area"">
                        <p style=""font-size: 20px; font-weight: bold; margin: 0;"">Is there a person in this image?</p>
                    </div>
                </div>","0","main_experiment_trial","2","creative_activities_semantic","semantic_sequence","randomized","","","","",""
"","","","","","html-keyboard-response","21","49778","0.0-21.0","8355BBB7E35C49ACAC98CEA54C6D999B","019cf985-09df-7501-acef-0930b2facbf4","019cf974-7aee-7bc9-8ea4-9f55741b365d","","null","
                <div class=""stimulus-container"">
                    <img src=""images/semantic_sequence/creative_activities_semantic/creative_activities_semantic_6.png"" class=""exp-image"">
                    <div class=""question-area""></div> 
                </div>","null","","","","","","","","","",""
"","","","","","html-button-response","22","50254","0.0-22.0","8355BBB7E35C49ACAC98CEA54C6D999B","019cf985-09df-7501-acef-0930b2facbf4","019cf974-7aee-7bc9-8ea4-9f55741b365d","","469","
                <div class=""stimulus-container"">
                    <img src=""images/semantic_sequence/creative_activities_semantic/creative_activities_semantic_6.png"" class=""exp-image"">
                    <div class=""question-area"">
                        <p style=""font-size: 20px; font-weight: bold; margin: 0;"">Is there a person in this image?</p>
                    </div>
                </div>","0","main_experiment_trial","6","creative_activities_semantic","semantic_sequence","randomized","","","","",""
"","","","","","html-keyboard-response","23","51263","0.0-23.0","8355BBB7E35C49ACAC98CEA54C6D999B","019cf985-09df-7501-acef-0930b2facbf4","019cf974-7aee-7bc9-8ea4-9f55741b365d","","null","
                <div class=""stimulus-container"">
                    <img src=""images/semantic_sequence/creative_activities_semantic/creative_activities_semantic_4.png"" class=""exp-image"">
                    <div class=""question-area""></div> 
                </div>","null","","","","","","","","","",""
"","","","","","html-button-response","24","51887","0.0-24.0","8355BBB7E35C49ACAC98CEA54C6D999B","019cf985-09df-7501-acef-0930b2facbf4","019cf974-7aee-7bc9-8ea4-9f55741b365d","","617","
                <div class=""stimulus-container"">
                    <img src=""images/semantic_sequence/creative_activities_semantic/creative_activities_semantic_4.png"" class=""exp-image"">
                    <div class=""question-area"">
                        <p style=""font-size: 20px; font-weight: bold; margin: 0;"">Is there a person in this image?</p>
                    </div>
                </div>","0","main_experiment_trial","4","creative_activities_semantic","semantic_sequence","randomized","","","","",""
"","","","","","html-keyboard-response","25","52895","0.0-25.0","8355BBB7E35C49ACAC98CEA54C6D999B","019cf985-09df-7501-acef-0930b2facbf4","019cf974-7aee-7bc9-8ea4-9f55741b365d","","null","
                <div class=""stimulus-container"">
                    <img src=""images/semantic_sequence/creative_activities_semantic/creative_activities_semantic_3.png"" class=""exp-image"">
                    <div class=""question-area""></div> 
                </div>","null","","","","","","","","","",""
"","","","","","html-button-response","26","53454","0.0-26.0","8355BBB7E35C49ACAC98CEA54C6D999B","019cf985-09df-7501-acef-0930b2facbf4","019cf974-7aee-7bc9-8ea4-9f55741b365d","","551","
                <div class=""stimulus-container"">
                    <img src=""images/semantic_sequence/creative_activities_semantic/creative_activities_semantic_3.png"" class=""exp-image"">
                    <div class=""question-area"">
                        <p style=""font-size: 20px; font-weight: bold; margin: 0;"">Is there a person in this image?</p>
                    </div>
                </div>","0","main_experiment_trial","3","creative_activities_semantic","semantic_sequence","randomized","","","","",""
"","","","","","html-keyboard-response","27","54463","0.0-27.0","8355BBB7E35C49ACAC98CEA54C6D999B","019cf985-09df-7501-acef-0930b2facbf4","019cf974-7aee-7bc9-8ea4-9f55741b365d","","null","
                <div class=""stimulus-container"">
                    <img src=""images/semantic_sequence/creative_activities_semantic/creative_activities_semantic_5.png"" class=""exp-image"">
                    <div class=""question-area""></div> 
                </div>","null","","","","","","","","","",""
"","","","","","html-button-response","28","55137","0.0-28.0","8355BBB7E35C49ACAC98CEA54C6D999B","019cf985-09df-7501-acef-0930b2facbf4","019cf974-7aee-7bc9-8ea4-9f55741b365d","","666","
                <div class=""stimulus-container"">
                    <img src=""images/semantic_sequence/creative_activities_semantic/creative_activities_semantic_5.png"" class=""exp-image"">
                    <div class=""question-area"">
                        <p style=""font-size: 20px; font-weight: bold; margin: 0;"">Is there a person in this image?</p>
                    </div>
                </div>","0","main_experiment_trial","5","creative_activities_semantic","semantic_sequence","randomized","","","","",""
"","","","","","html-keyboard-response","29","56145","0.0-29.0","8355BBB7E35C49ACAC98CEA54C6D999B","019cf985-09df-7501-acef-0930b2facbf4","019cf974-7aee-7bc9-8ea4-9f55741b365d","","null","
                <div class=""stimulus-container"">
                    <img src=""images/semantic_sequence/creative_activities_semantic/creative_activities_semantic_1.png"" class=""exp-image"">
                    <div class=""question-area""></div> 
                </div>","null","","","","","","","","","",""
"","","","","","html-button-response","30","56887","0.0-30.0","8355BBB7E35C49ACAC98CEA54C6D999B","019cf985-09df-7501-acef-0930b2facbf4","019cf974-7aee-7bc9-8ea4-9f55741b365d","","734","
                <div class=""stimulus-container"">
                    <img src=""images/semantic_sequence/creative_activities_semantic/creative_activities_semantic_1.png"" class=""exp-image"">
                    <div class=""question-area"">
                        <p style=""font-size: 20px; font-weight: bold; margin: 0;"">Is there a person in this image?</p>
                    </div>
                </div>","0","main_experiment_trial","1","creative_activities_semantic","semantic_sequence","randomized","","","","",""
"","","","","","html-keyboard-response","31","57896","0.0-31.0","8355BBB7E35C49ACAC98CEA54C6D999B","019cf985-09df-7501-acef-0930b2facbf4","019cf974-7aee-7bc9-8ea4-9f55741b365d","","null","
                <div class=""stimulus-container"">
                    <img src=""images/semantic_sequence/creative_activities_semantic/creative_activities_semantic_8.png"" class=""exp-image"">
                    <div class=""question-area""></div> 
                </div>","null","","","","","","","","","",""
"","","","","","html-button-response","32","58604","0.0-32.0","8355BBB7E35C49ACAC98CEA54C6D999B","019cf985-09df-7501-acef-0930b2facbf4","019cf974-7aee-7bc9-8ea4-9f55741b365d","","700","
                <div class=""stimulus-container"">
                    <img src=""images/semantic_sequence/creative_activities_semantic/creative_activities_semantic_8.png"" class=""exp-image"">
                    <div class=""question-area"">
                        <p style=""font-size: 20px; font-weight: bold; margin: 0;"">Is there a person in this image?</p>
                    </div>
                </div>","0","main_experiment_trial","8","creative_activities_semantic","semantic_sequence","randomized","","","","",""
"","","","","","html-keyboard-response","33","59612","0.0-33.0","8355BBB7E35C49ACAC98CEA54C6D999B","019cf985-09df-7501-acef-0930b2facbf4","019cf974-7aee-7bc9-8ea4-9f55741b365d","","null","
                <div class=""stimulus-container"">
                    <img src=""images/semantic_sequence/creative_activities_semantic/creative_activities_semantic_9.png"" class=""exp-image"">
                    <div class=""question-area""></div> 
                </div>","null","","","","","","","","","",""
"","","","","","html-button-response","34","60370","0.0-34.0","8355BBB7E35C49ACAC98CEA54C6D999B","019cf985-09df-7501-acef-0930b2facbf4","019cf974-7aee-7bc9-8ea4-9f55741b365d","","750","
                <div class=""stimulus-container"">
                    <img src=""images/semantic_sequence/creative_activities_semantic/creative_activities_semantic_9.png"" class=""exp-image"">
                    <div class=""question-area"">
                        <p style=""font-size: 20px; font-weight: bold; margin: 0;"">Is there a person in this image?</p>
                    </div>
                </div>","0","main_experiment_trial","9","creative_activities_semantic","semantic_sequence","randomized","","","","",""
"","","","","","html-keyboard-response","35","61378","0.0-35.0","8355BBB7E35C49ACAC98CEA54C6D999B","019cf985-09df-7501-acef-0930b2facbf4","019cf974-7aee-7bc9-8ea4-9f55741b365d","","null","
                <div class=""stimulus-container"">
                    <img src=""images/semantic_sequence/creative_activities_semantic/creative_activities_semantic_7.png"" class=""exp-image"">
                    <div class=""question-area""></div> 
                </div>","null","","","","","","","","","",""
"","","","","","html-button-response","36","61921","0.0-36.0","8355BBB7E35C49ACAC98CEA54C6D999B","019cf985-09df-7501-acef-0930b2facbf4","019cf974-7aee-7bc9-8ea4-9f55741b365d","","534","
                <div class=""stimulus-container"">
                    <img src=""images/semantic_sequence/creative_activities_semantic/creative_activities_semantic_7.png"" class=""exp-image"">
                    <div class=""question-area"">
                        <p style=""font-size: 20px; font-weight: bold; margin: 0;"">Is there a person in this image?</p>
                    </div>
                </div>","0","main_experiment_trial","7","creative_activities_semantic","semantic_sequence","randomized","","","","",""
"","","","","","html-keyboard-response","37","66923","0.0-37.0","8355BBB7E35C49ACAC98CEA54C6D999B","019cf985-09df-7501-acef-0930b2facbf4","019cf974-7aee-7bc9-8ea4-9f55741b365d","","null","<div style=""background-color: white; width: 100vw; height: 100vh;""></div>","null","","","","","","","","","",""
"","","","","","html-keyboard-response","38","67931","0.0-38.0","8355BBB7E35C49ACAC98CEA54C6D999B","019cf985-09df-7501-acef-0930b2facbf4","019cf974-7aee-7bc9-8ea4-9f55741b365d","","null","
                <div class=""stimulus-container"">
                    <img src=""images/semantic_sequence/using_technology_semantic/using_technology_semantic_8.png"" class=""exp-image"">
                    <div class=""question-area""></div> 
                </div>","null","","","","","","","","","",""
"","","","","","html-button-response","39","68820","0.0-39.0","8355BBB7E35C49ACAC98CEA54C6D999B","019cf985-09df-7501-acef-0930b2facbf4","019cf974-7aee-7bc9-8ea4-9f55741b365d","","882","
                <div class=""stimulus-container"">
                    <img src=""images/semantic_sequence/using_technology_semantic/using_technology_semantic_8.png"" class=""exp-image"">
                    <div class=""question-area"">
                        <p style=""font-size: 20px; font-weight: bold; margin: 0;"">Is there a person in this image?</p>
                    </div>
                </div>","0","main_experiment_trial","8","using_technology_semantic","semantic_sequence","randomized","","","","",""
"","","","","","html-keyboard-response","40","69829","0.0-40.0","8355BBB7E35C49ACAC98CEA54C6D999B","019cf985-09df-7501-acef-0930b2facbf4","019cf974-7aee-7bc9-8ea4-9f55741b365d","","null","
                <div class=""stimulus-container"">
                    <img src=""images/semantic_sequence/using_technology_semantic/using_technology_semantic_4.png"" class=""exp-image"">
                    <div class=""question-area""></div> 
                </div>","null","","","","","","","","","",""
"","","","","","html-button-response","41","71070","0.0-41.0","8355BBB7E35C49ACAC98CEA54C6D999B","019cf985-09df-7501-acef-0930b2facbf4","019cf974-7aee-7bc9-8ea4-9f55741b365d","","1234","
                <div class=""stimulus-container"">
                    <img src=""images/semantic_sequence/using_technology_semantic/using_technology_semantic_4.png"" class=""exp-image"">
                    <div class=""question-area"">
                        <p style=""font-size: 20px; font-weight: bold; margin: 0;"">Is there a person in this image?</p>
                    </div>
                </div>","0","main_experiment_trial","4","using_technology_semantic","semantic_sequence","randomized","","","","",""
"","","","","","html-keyboard-response","42","72077","0.0-42.0","8355BBB7E35C49ACAC98CEA54C6D999B","019cf985-09df-7501-acef-0930b2facbf4","019cf974-7aee-7bc9-8ea4-9f55741b365d","","null","
                <div class=""stimulus-container"">
                    <img src=""images/semantic_sequence/using_technology_semantic/using_technology_semantic_5.png"" class=""exp-image"">
                    <div class=""question-area""></div> 
                </div>","null","","","","","","","","","",""
"","","","","","html-button-response","43","72937","0.0-43.0","8355BBB7E35C49ACAC98CEA54C6D999B","019cf985-09df-7501-acef-0930b2facbf4","019cf974-7aee-7bc9-8ea4-9f55741b365d","","852","
                <div class=""stimulus-container"">
                    <img src=""images/semantic_sequence/using_technology_semantic/using_technology_semantic_5.png"" class=""exp-image"">
                    <div class=""question-area"">
                        <p style=""font-size: 20px; font-weight: bold; margin: 0;"">Is there a person in this image?</p>
                    </div>
                </div>","0","main_experiment_trial","5","using_technology_semantic","semantic_sequence","randomized","","","","",""
"","","","","","html-keyboard-response","44","73946","0.0-44.0","8355BBB7E35C49ACAC98CEA54C6D999B","019cf985-09df-7501-acef-0930b2facbf4","019cf974-7aee-7bc9-8ea4-9f55741b365d","","null","
                <div class=""stimulus-container"">
                    <img src=""images/semantic_sequence/using_technology_semantic/using_technology_semantic_2.png"" class=""exp-image"">
                    <div class=""question-area""></div> 
                </div>","null","","","","","","","","","",""
"","","","","","html-button-response","45","75003","0.0-45.0","8355BBB7E35C49ACAC98CEA54C6D999B","019cf985-09df-7501-acef-0930b2facbf4","019cf974-7aee-7bc9-8ea4-9f55741b365d","","1050","
                <div class=""stimulus-container"">
                    <img src=""images/semantic_sequence/using_technology_semantic/using_technology_semantic_2.png"" class=""exp-image"">
                    <div class=""question-area"">
                        <p style=""font-size: 20px; font-weight: bold; margin: 0;"">Is there a person in this image?</p>
                    </div>
                </div>","0","main_experiment_trial","2","using_technology_semantic","semantic_sequence","randomized","","","","",""
"","","","","","html-keyboard-response","46","76011","0.0-46.0","8355BBB7E35C49ACAC98CEA54C6D999B","019cf985-09df-7501-acef-0930b2facbf4","019cf974-7aee-7bc9-8ea4-9f55741b365d","","null","
                <div class=""stimulus-container"">
                    <img src=""images/semantic_sequence/using_technology_semantic/using_technology_semantic_1.png"" class=""exp-image"">
                    <div class=""question-area""></div> 
                </div>","null","","","","","","","","","",""
"","","","","","html-button-response","47","76937","0.0-47.0","8355BBB7E35C49ACAC98CEA54C6D999B","019cf985-09df-7501-acef-0930b2facbf4","019cf974-7aee-7bc9-8ea4-9f55741b365d","","917","
                <div class=""stimulus-container"">
                    <img src=""images/semantic_sequence/using_technology_semantic/using_technology_semantic_1.png"" class=""exp-image"">
                    <div class=""question-area"">
                        <p style=""font-size: 20px; font-weight: bold; margin: 0;"">Is there a person in this image?</p>
                    </div>
                </div>","0","main_experiment_trial","1","using_technology_semantic","semantic_sequence","randomized","","","","",""
"","","","","","html-keyboard-response","48","77945","0.0-48.0","8355BBB7E35C49ACAC98CEA54C6D999B","019cf985-09df-7501-acef-0930b2facbf4","019cf974-7aee-7bc9-8ea4-9f55741b365d","","null","
                <div class=""stimulus-container"">
                    <img src=""images/semantic_sequence/using_technology_semantic/using_technology_semantic_3.png"" class=""exp-image"">
                    <div class=""question-area""></div> 
                </div>","null","","","","","","","","","",""
"","","","","","html-button-response","49","78670","0.0-49.0","8355BBB7E35C49ACAC98CEA54C6D999B","019cf985-09df-7501-acef-0930b2facbf4","019cf974-7aee-7bc9-8ea4-9f55741b365d","","718","
                <div class=""stimulus-container"">
                    <img src=""images/semantic_sequence/using_technology_semantic/using_technology_semantic_3.png"" class=""exp-image"">
                    <div class=""question-area"">
                        <p style=""font-size: 20px; font-weight: bold; margin: 0;"">Is there a person in this image?</p>
                    </div>
                </div>","0","main_experiment_trial","3","using_technology_semantic","semantic_sequence","randomized","","","","",""
"","","","","","html-keyboard-response","50","79679","0.0-50.0","8355BBB7E35C49ACAC98CEA54C6D999B","019cf985-09df-7501-acef-0930b2facbf4","019cf974-7aee-7bc9-8ea4-9f55741b365d","","null","
                <div class=""stimulus-container"">
                    <img src=""images/semantic_sequence/using_technology_semantic/using_technology_semantic_ten.png"" class=""exp-image"">
                    <div class=""question-area""></div> 
                </div>","null","","","","","","","","","",""
"","","","","","html-button-response","51","80153","0.0-51.0","8355BBB7E35C49ACAC98CEA54C6D999B","019cf985-09df-7501-acef-0930b2facbf4","019cf974-7aee-7bc9-8ea4-9f55741b365d","","467","
                <div class=""stimulus-container"">
                    <img src=""images/semantic_sequence/using_technology_semantic/using_technology_semantic_ten.png"" class=""exp-image"">
                    <div class=""question-area"">
                        <p style=""font-size: 20px; font-weight: bold; margin: 0;"">Is there a person in this image?</p>
                    </div>
                </div>","0","main_experiment_trial","ten","using_technology_semantic","semantic_sequence","randomized","","","","",""
"","","","","","html-keyboard-response","52","81160","0.0-52.0","8355BBB7E35C49ACAC98CEA54C6D999B","019cf985-09df-7501-acef-0930b2facbf4","019cf974-7aee-7bc9-8ea4-9f55741b365d","","null","
                <div class=""stimulus-container"">
                    <img src=""images/semantic_sequence/using_technology_semantic/using_technology_semantic_6.png"" class=""exp-image"">
                    <div class=""question-area""></div> 
                </div>","null","","","","","","","","","",""
"","","","","","html-button-response","53","81570","0.0-53.0","8355BBB7E35C49ACAC98CEA54C6D999B","019cf985-09df-7501-acef-0930b2facbf4","019cf974-7aee-7bc9-8ea4-9f55741b365d","","401","
                <div class=""stimulus-container"">
                    <img src=""images/semantic_sequence/using_technology_semantic/using_technology_semantic_6.png"" class=""exp-image"">
                    <div class=""question-area"">
                        <p style=""font-size: 20px; font-weight: bold; margin: 0;"">Is there a person in this image?</p>
                    </div>
                </div>","0","main_experiment_trial","6","using_technology_semantic","semantic_sequence","randomized","","","","",""
"","","","","","html-keyboard-response","54","82578","0.0-54.0","8355BBB7E35C49ACAC98CEA54C6D999B","019cf985-09df-7501-acef-0930b2facbf4","019cf974-7aee-7bc9-8ea4-9f55741b365d","","null","
                <div class=""stimulus-container"">
                    <img src=""images/semantic_sequence/using_technology_semantic/using_technology_semantic_9.png"" class=""exp-image"">
                    <div class=""question-area""></div> 
                </div>","null","","","","","","","","","",""
"","","","","","html-button-response","55","83454","0.0-55.0","8355BBB7E35C49ACAC98CEA54C6D999B","019cf985-09df-7501-acef-0930b2facbf4","019cf974-7aee-7bc9-8ea4-9f55741b365d","","867","
                <div class=""stimulus-container"">
                    <img src=""images/semantic_sequence/using_technology_semantic/using_technology_semantic_9.png"" class=""exp-image"">
                    <div class=""question-area"">
                        <p style=""font-size: 20px; font-weight: bold; margin: 0;"">Is there a person in this image?</p>
                    </div>
                </div>","0","main_experiment_trial","9","using_technology_semantic","semantic_sequence","randomized","","","","",""
"","","","","","html-keyboard-response","56","84462","0.0-56.0","8355BBB7E35C49ACAC98CEA54C6D999B","019cf985-09df-7501-acef-0930b2facbf4","019cf974-7aee-7bc9-8ea4-9f55741b365d","","null","
                <div class=""stimulus-container"">
                    <img src=""images/semantic_sequence/using_technology_semantic/using_technology_semantic_7.png"" class=""exp-image"">
                    <div class=""question-area""></div> 
                </div>","null","","","","","","","","","",""
"","","","","","html-button-response","57","84920","0.0-57.0","8355BBB7E35C49ACAC98CEA54C6D999B","019cf985-09df-7501-acef-0930b2facbf4","019cf974-7aee-7bc9-8ea4-9f55741b365d","","450","
                <div class=""stimulus-container"">
                    <img src=""images/semantic_sequence/using_technology_semantic/using_technology_semantic_7.png"" class=""exp-image"">
                    <div class=""question-area"">
                        <p style=""font-size: 20px; font-weight: bold; margin: 0;"">Is there a person in this image?</p>
                    </div>
                </div>","0","main_experiment_trial","7","using_technology_semantic","semantic_sequence","randomized","","","","",""
"","","","","","html-keyboard-response","58","89922","0.0-58.0","8355BBB7E35C49ACAC98CEA54C6D999B","019cf985-09df-7501-acef-0930b2facbf4","019cf974-7aee-7bc9-8ea4-9f55741b365d","","null","<div style=""background-color: white; width: 100vw; height: 100vh;""></div>","null","","","","","","","","","",""
"","","","","","html-keyboard-response","59","90931","0.0-59.0","8355BBB7E35C49ACAC98CEA54C6D999B","019cf985-09df-7501-acef-0930b2facbf4","019cf974-7aee-7bc9-8ea4-9f55741b365d","","null","
                <div class=""stimulus-container"">
                    <img src=""images/causal_sequence/the_performance_causal/the_performance_causal_3.png"" class=""exp-image"">
                    <div class=""question-area""></div> 
                </div>","null","","","","","","","","","",""
"","","","","","html-button-response","60","91570","0.0-60.0","8355BBB7E35C49ACAC98CEA54C6D999B","019cf985-09df-7501-acef-0930b2facbf4","019cf974-7aee-7bc9-8ea4-9f55741b365d","","633","
                <div class=""stimulus-container"">
                    <img src=""images/causal_sequence/the_performance_causal/the_performance_causal_3.png"" class=""exp-image"">
                    <div class=""question-area"">
                        <p style=""font-size: 20px; font-weight: bold; margin: 0;"">Is there a person in this image?</p>
                    </div>
                </div>","0","main_experiment_trial","3","the_performance_causal","causal_sequence","randomized","","","","",""
"","","","","","html-keyboard-response","61","92577","0.0-61.0","8355BBB7E35C49ACAC98CEA54C6D999B","019cf985-09df-7501-acef-0930b2facbf4","019cf974-7aee-7bc9-8ea4-9f55741b365d","","null","
                <div class=""stimulus-container"">
                    <img src=""images/causal_sequence/the_performance_causal/the_performance_causal_8.png"" class=""exp-image"">
                    <div class=""question-area""></div> 
                </div>","null","","","","","","","","","",""
"","","","","","html-button-response","62","93087","0.0-62.0","8355BBB7E35C49ACAC98CEA54C6D999B","019cf985-09df-7501-acef-0930b2facbf4","019cf974-7aee-7bc9-8ea4-9f55741b365d","","501","
                <div class=""stimulus-container"">
                    <img src=""images/causal_sequence/the_performance_causal/the_performance_causal_8.png"" class=""exp-image"">
                    <div class=""question-area"">
                        <p style=""font-size: 20px; font-weight: bold; margin: 0;"">Is there a person in this image?</p>
                    </div>
                </div>","0","main_experiment_trial","8","the_performance_causal","causal_sequence","randomized","","","","",""
"","","","","","html-keyboard-response","63","94095","0.0-63.0","8355BBB7E35C49ACAC98CEA54C6D999B","019cf985-09df-7501-acef-0930b2facbf4","019cf974-7aee-7bc9-8ea4-9f55741b365d","","null","
                <div class=""stimulus-container"">
                    <img src=""images/causal_sequence/the_performance_causal/the_performance_causal_6.png"" class=""exp-image"">
                    <div class=""question-area""></div> 
                </div>","null","","","","","","","","","",""
"","","","","","html-button-response","64","94587","0.0-64.0","8355BBB7E35C49ACAC98CEA54C6D999B","019cf985-09df-7501-acef-0930b2facbf4","019cf974-7aee-7bc9-8ea4-9f55741b365d","","483","
                <div class=""stimulus-container"">
                    <img src=""images/causal_sequence/the_performance_causal/the_performance_causal_6.png"" class=""exp-image"">
                    <div class=""question-area"">
                        <p style=""font-size: 20px; font-weight: bold; margin: 0;"">Is there a person in this image?</p>
                    </div>
                </div>","0","main_experiment_trial","6","the_performance_causal","causal_sequence","randomized","","","","",""
"","","","","","html-keyboard-response","65","95596","0.0-65.0","8355BBB7E35C49ACAC98CEA54C6D999B","019cf985-09df-7501-acef-0930b2facbf4","019cf974-7aee-7bc9-8ea4-9f55741b365d","","null","
                <div class=""stimulus-container"">
                    <img src=""images/causal_sequence/the_performance_causal/the_performance_causal_9.png"" class=""exp-image"">
                    <div class=""question-area""></div> 
                </div>","null","","","","","","","","","",""
"","","","","","html-button-response","66","96204","0.0-66.0","8355BBB7E35C49ACAC98CEA54C6D999B","019cf985-09df-7501-acef-0930b2facbf4","019cf974-7aee-7bc9-8ea4-9f55741b365d","","600","
                <div class=""stimulus-container"">
                    <img src=""images/causal_sequence/the_performance_causal/the_performance_causal_9.png"" class=""exp-image"">
                    <div class=""question-area"">
                        <p style=""font-size: 20px; font-weight: bold; margin: 0;"">Is there a person in this image?</p>
                    </div>
                </div>","0","main_experiment_trial","9","the_performance_causal","causal_sequence","randomized","","","","",""
"","","","","","html-keyboard-response","67","97213","0.0-67.0","8355BBB7E35C49ACAC98CEA54C6D999B","019cf985-09df-7501-acef-0930b2facbf4","019cf974-7aee-7bc9-8ea4-9f55741b365d","","null","
                <div class=""stimulus-container"">
                    <img src=""images/causal_sequence/the_performance_causal/the_performance_causal_4.png"" class=""exp-image"">
                    <div class=""question-area""></div> 
                </div>","null","","","","","","","","","",""
"","","","","","html-button-response","68","98509","0.0-68.0","8355BBB7E35C49ACAC98CEA54C6D999B","019cf985-09df-7501-acef-0930b2facbf4","019cf974-7aee-7bc9-8ea4-9f55741b365d","","1288","
                <div class=""stimulus-container"">
                    <img src=""images/causal_sequence/the_performance_causal/the_performance_causal_4.png"" class=""exp-image"">
                    <div class=""question-area"">
                        <p style=""font-size: 20px; font-weight: bold; margin: 0;"">Is there a person in this image?</p>
                    </div>
                </div>","0","main_experiment_trial","4","the_performance_causal","causal_sequence","randomized","","","","",""
"","","","","","html-keyboard-response","69","99517","0.0-69.0","8355BBB7E35C49ACAC98CEA54C6D999B","019cf985-09df-7501-acef-0930b2facbf4","019cf974-7aee-7bc9-8ea4-9f55741b365d","","null","
                <div class=""stimulus-container"">
                    <img src=""images/causal_sequence/the_performance_causal/the_performance_causal_ten.png"" class=""exp-image"">
                    <div class=""question-area""></div> 
                </div>","null","","","","","","","","","",""
"","","","","","html-button-response","70","100103","0.0-70.0","8355BBB7E35C49ACAC98CEA54C6D999B","019cf985-09df-7501-acef-0930b2facbf4","019cf974-7aee-7bc9-8ea4-9f55741b365d","","579","
                <div class=""stimulus-container"">
                    <img src=""images/causal_sequence/the_performance_causal/the_performance_causal_ten.png"" class=""exp-image"">
                    <div class=""question-area"">
                        <p style=""font-size: 20px; font-weight: bold; margin: 0;"">Is there a person in this image?</p>
                    </div>
                </div>","0","main_experiment_trial","ten","the_performance_causal","causal_sequence","randomized","","","","",""
"","","","","","html-keyboard-response","71","101111","0.0-71.0","8355BBB7E35C49ACAC98CEA54C6D999B","019cf985-09df-7501-acef-0930b2facbf4","019cf974-7aee-7bc9-8ea4-9f55741b365d","","null","
                <div class=""stimulus-container"">
                    <img src=""images/causal_sequence/the_performance_causal/the_performance_causal_2.png"" class=""exp-image"">
                    <div class=""question-area""></div> 
                </div>","null","","","","","","","","","",""
"","","","","","html-button-response","72","102070","0.0-72.0","8355BBB7E35C49ACAC98CEA54C6D999B","019cf985-09df-7501-acef-0930b2facbf4","019cf974-7aee-7bc9-8ea4-9f55741b365d","","951","
                <div class=""stimulus-container"">
                    <img src=""images/causal_sequence/the_performance_causal/the_performance_causal_2.png"" class=""exp-image"">
                    <div class=""question-area"">
                        <p style=""font-size: 20px; font-weight: bold; margin: 0;"">Is there a person in this image?</p>
                    </div>
                </div>","0","main_experiment_trial","2","the_performance_causal","causal_sequence","randomized","","","","",""
"","","","","","html-keyboard-response","73","103075","0.0-73.0","8355BBB7E35C49ACAC98CEA54C6D999B","019cf985-09df-7501-acef-0930b2facbf4","019cf974-7aee-7bc9-8ea4-9f55741b365d","","null","
                <div class=""stimulus-container"">
                    <img src=""images/causal_sequence/the_performance_causal/the_performance_causal_1.png"" class=""exp-image"">
                    <div class=""question-area""></div> 
                </div>","null","","","","","","","","","",""
"","","","","","html-button-response","74","104403","0.0-74.0","8355BBB7E35C49ACAC98CEA54C6D999B","019cf985-09df-7501-acef-0930b2facbf4","019cf974-7aee-7bc9-8ea4-9f55741b365d","","1320","
                <div class=""stimulus-container"">
                    <img src=""images/causal_sequence/the_performance_causal/the_performance_causal_1.png"" class=""exp-image"">
                    <div class=""question-area"">
                        <p style=""font-size: 20px; font-weight: bold; margin: 0;"">Is there a person in this image?</p>
                    </div>
                </div>","0","main_experiment_trial","1","the_performance_causal","causal_sequence","randomized","","","","",""
"","","","","","html-keyboard-response","75","105411","0.0-75.0","8355BBB7E35C49ACAC98CEA54C6D999B","019cf985-09df-7501-acef-0930b2facbf4","019cf974-7aee-7bc9-8ea4-9f55741b365d","","null","
                <div class=""stimulus-container"">
                    <img src=""images/causal_sequence/the_performance_causal/the_performance_causal_7.png"" class=""exp-image"">
                    <div class=""question-area""></div> 
                </div>","null","","","","","","","","","",""
"","","","","","html-button-response","76","106370","0.0-76.0","8355BBB7E35C49ACAC98CEA54C6D999B","019cf985-09df-7501-acef-0930b2facbf4","019cf974-7aee-7bc9-8ea4-9f55741b365d","","952","
                <div class=""stimulus-container"">
                    <img src=""images/causal_sequence/the_performance_causal/the_performance_causal_7.png"" class=""exp-image"">
                    <div class=""question-area"">
                        <p style=""font-size: 20px; font-weight: bold; margin: 0;"">Is there a person in this image?</p>
                    </div>
                </div>","0","main_experiment_trial","7","the_performance_causal","causal_sequence","randomized","","","","",""
"","","","","","html-keyboard-response","77","107379","0.0-77.0","8355BBB7E35C49ACAC98CEA54C6D999B","019cf985-09df-7501-acef-0930b2facbf4","019cf974-7aee-7bc9-8ea4-9f55741b365d","","null","
                <div class=""stimulus-container"">
                    <img src=""images/causal_sequence/the_performance_causal/the_performance_causal_5.png"" class=""exp-image"">
                    <div class=""question-area""></div> 
                </div>","null","","","","","","","","","",""
"","","","","","html-button-response","78","108571","0.0-78.0","8355BBB7E35C49ACAC98CEA54C6D999B","019cf985-09df-7501-acef-0930b2facbf4","019cf974-7aee-7bc9-8ea4-9f55741b365d","","1183","
                <div class=""stimulus-container"">
                    <img src=""images/causal_sequence/the_performance_causal/the_performance_causal_5.png"" class=""exp-image"">
                    <div class=""question-area"">
                        <p style=""font-size: 20px; font-weight: bold; margin: 0;"">Is there a person in this image?</p>
                    </div>
                </div>","0","main_experiment_trial","5","the_performance_causal","causal_sequence","randomized","","","","",""
"","","","","","html-keyboard-response","79","113573","0.0-79.0","8355BBB7E35C49ACAC98CEA54C6D999B","019cf985-09df-7501-acef-0930b2facbf4","019cf974-7aee-7bc9-8ea4-9f55741b365d","","null","<div style=""background-color: white; width: 100vw; height: 100vh;""></div>","null","","","","","","","","","",""
"","","","","","html-keyboard-response","80","114581","0.0-80.0","8355BBB7E35C49ACAC98CEA54C6D999B","019cf985-09df-7501-acef-0930b2facbf4","019cf974-7aee-7bc9-8ea4-9f55741b365d","","null","
                <div class=""stimulus-container"">
                    <img src=""images/causal_sequence/package_causal/package_causal_5.png"" class=""exp-image"">
                    <div class=""question-area""></div> 
                </div>","null","","","","","","","","","",""
"","","","","","html-button-response","81","115070","0.0-81.0","8355BBB7E35C49ACAC98CEA54C6D999B","019cf985-09df-7501-acef-0930b2facbf4","019cf974-7aee-7bc9-8ea4-9f55741b365d","","481","
                <div class=""stimulus-container"">
                    <img src=""images/causal_sequence/package_causal/package_causal_5.png"" class=""exp-image"">
                    <div class=""question-area"">
                        <p style=""font-size: 20px; font-weight: bold; margin: 0;"">Is there a person in this image?</p>
                    </div>
                </div>","0","main_experiment_trial","5","package_causal","causal_sequence","randomized","","","","",""
"","","","","","html-keyboard-response","82","116079","0.0-82.0","8355BBB7E35C49ACAC98CEA54C6D999B","019cf985-09df-7501-acef-0930b2facbf4","019cf974-7aee-7bc9-8ea4-9f55741b365d","","null","
                <div class=""stimulus-container"">
                    <img src=""images/causal_sequence/package_causal/package_causal_4.png"" class=""exp-image"">
                    <div class=""question-area""></div> 
                </div>","null","","","","","","","","","",""
"","","","","","html-button-response","83","117103","0.0-83.0","8355BBB7E35C49ACAC98CEA54C6D999B","019cf985-09df-7501-acef-0930b2facbf4","019cf974-7aee-7bc9-8ea4-9f55741b365d","","1017","
                <div class=""stimulus-container"">
                    <img src=""images/causal_sequence/package_causal/package_causal_4.png"" class=""exp-image"">
                    <div class=""question-area"">
                        <p style=""font-size: 20px; font-weight: bold; margin: 0;"">Is there a person in this image?</p>
                    </div>
                </div>","0","main_experiment_trial","4","package_causal","causal_sequence","randomized","","","","",""
"","","","","","html-keyboard-response","84","118109","0.0-84.0","8355BBB7E35C49ACAC98CEA54C6D999B","019cf985-09df-7501-acef-0930b2facbf4","019cf974-7aee-7bc9-8ea4-9f55741b365d","","null","
                <div class=""stimulus-container"">
                    <img src=""images/causal_sequence/package_causal/package_causal_8.png"" class=""exp-image"">
                    <div class=""question-area""></div> 
                </div>","null","","","","","","","","","",""
"","","","","","html-button-response","85","121119","0.0-85.0","8355BBB7E35C49ACAC98CEA54C6D999B","019cf985-09df-7501-acef-0930b2facbf4","019cf974-7aee-7bc9-8ea4-9f55741b365d","","null","
                <div class=""stimulus-container"">
                    <img src=""images/causal_sequence/package_causal/package_causal_8.png"" class=""exp-image"">
                    <div class=""question-area"">
                        <p style=""font-size: 20px; font-weight: bold; margin: 0;"">Is there a person in this image?</p>
                    </div>
                </div>","null","main_experiment_trial","8","package_causal","causal_sequence","randomized","","","","",""
"","","","","","html-keyboard-response","86","122128","0.0-86.0","8355BBB7E35C49ACAC98CEA54C6D999B","019cf985-09df-7501-acef-0930b2facbf4","019cf974-7aee-7bc9-8ea4-9f55741b365d","","null","
                <div class=""stimulus-container"">
                    <img src=""images/causal_sequence/package_causal/package_causal_ten.png"" class=""exp-image"">
                    <div class=""question-area""></div> 
                </div>","null","","","","","","","","","",""
"","","","","","html-button-response","87","122637","0.0-87.0","8355BBB7E35C49ACAC98CEA54C6D999B","019cf985-09df-7501-acef-0930b2facbf4","019cf974-7aee-7bc9-8ea4-9f55741b365d","","501","
                <div class=""stimulus-container"">
                    <img src=""images/causal_sequence/package_causal/package_causal_ten.png"" class=""exp-image"">
                    <div class=""question-area"">
                        <p style=""font-size: 20px; font-weight: bold; margin: 0;"">Is there a person in this image?</p>
                    </div>
                </div>","0","main_experiment_trial","ten","package_causal","causal_sequence","randomized","","","","",""
"","","","","","html-keyboard-response","88","123646","0.0-88.0","8355BBB7E35C49ACAC98CEA54C6D999B","019cf985-09df-7501-acef-0930b2facbf4","019cf974-7aee-7bc9-8ea4-9f55741b365d","","null","
                <div class=""stimulus-container"">
                    <img src=""images/causal_sequence/package_causal/package_causal_3.png"" class=""exp-image"">
                    <div class=""question-area""></div> 
                </div>","null","","","","","","","","","",""
"","","","","","html-button-response","89","124553","0.0-89.0","8355BBB7E35C49ACAC98CEA54C6D999B","019cf985-09df-7501-acef-0930b2facbf4","019cf974-7aee-7bc9-8ea4-9f55741b365d","","900","
                <div class=""stimulus-container"">
                    <img src=""images/causal_sequence/package_causal/package_causal_3.png"" class=""exp-image"">
                    <div class=""question-area"">
                        <p style=""font-size: 20px; font-weight: bold; margin: 0;"">Is there a person in this image?</p>
                    </div>
                </div>","0","main_experiment_trial","3","package_causal","causal_sequence","randomized","","","","",""
"","","","","","html-keyboard-response","90","125563","0.0-90.0","8355BBB7E35C49ACAC98CEA54C6D999B","019cf985-09df-7501-acef-0930b2facbf4","019cf974-7aee-7bc9-8ea4-9f55741b365d","","null","
                <div class=""stimulus-container"">
                    <img src=""images/causal_sequence/package_causal/package_causal_1.png"" class=""exp-image"">
                    <div class=""question-area""></div> 
                </div>","null","","","","","","","","","",""
"","","","","","html-button-response","91","126304","0.0-91.0","8355BBB7E35C49ACAC98CEA54C6D999B","019cf985-09df-7501-acef-0930b2facbf4","019cf974-7aee-7bc9-8ea4-9f55741b365d","","733","
                <div class=""stimulus-container"">
                    <img src=""images/causal_sequence/package_causal/package_causal_1.png"" class=""exp-image"">
                    <div class=""question-area"">
                        <p style=""font-size: 20px; font-weight: bold; margin: 0;"">Is there a person in this image?</p>
                    </div>
                </div>","0","main_experiment_trial","1","package_causal","causal_sequence","randomized","","","","",""
"","","","","","html-keyboard-response","92","127313","0.0-92.0","8355BBB7E35C49ACAC98CEA54C6D999B","019cf985-09df-7501-acef-0930b2facbf4","019cf974-7aee-7bc9-8ea4-9f55741b365d","","null","
                <div class=""stimulus-container"">
                    <img src=""images/causal_sequence/package_causal/package_causal_2.png"" class=""exp-image"">
                    <div class=""question-area""></div> 
                </div>","null","","","","","","","","","",""
"","","","","","html-button-response","93","128037","0.0-93.0","8355BBB7E35C49ACAC98CEA54C6D999B","019cf985-09df-7501-acef-0930b2facbf4","019cf974-7aee-7bc9-8ea4-9f55741b365d","","715","
                <div class=""stimulus-container"">
                    <img src=""images/causal_sequence/package_causal/package_causal_2.png"" class=""exp-image"">
                    <div class=""question-area"">
                        <p style=""font-size: 20px; font-weight: bold; margin: 0;"">Is there a person in this image?</p>
                    </div>
                </div>","0","main_experiment_trial","2","package_causal","causal_sequence","randomized","","","","",""
"","","","","","html-keyboard-response","94","129044","0.0-94.0","8355BBB7E35C49ACAC98CEA54C6D999B","019cf985-09df-7501-acef-0930b2facbf4","019cf974-7aee-7bc9-8ea4-9f55741b365d","","null","
                <div class=""stimulus-container"">
                    <img src=""images/causal_sequence/package_causal/package_causal_6.png"" class=""exp-image"">
                    <div class=""question-area""></div> 
                </div>","null","","","","","","","","","",""
"","","","","","html-button-response","95","129870","0.0-95.0","8355BBB7E35C49ACAC98CEA54C6D999B","019cf985-09df-7501-acef-0930b2facbf4","019cf974-7aee-7bc9-8ea4-9f55741b365d","","818","
                <div class=""stimulus-container"">
                    <img src=""images/causal_sequence/package_causal/package_causal_6.png"" class=""exp-image"">
                    <div class=""question-area"">
                        <p style=""font-size: 20px; font-weight: bold; margin: 0;"">Is there a person in this image?</p>
                    </div>
                </div>","0","main_experiment_trial","6","package_causal","causal_sequence","randomized","","","","",""
"","","","","","html-keyboard-response","96","130879","0.0-96.0","8355BBB7E35C49ACAC98CEA54C6D999B","019cf985-09df-7501-acef-0930b2facbf4","019cf974-7aee-7bc9-8ea4-9f55741b365d","","null","
                <div class=""stimulus-container"">
                    <img src=""images/causal_sequence/package_causal/package_causal_7.png"" class=""exp-image"">
                    <div class=""question-area""></div> 
                </div>","null","","","","","","","","","",""
"","","","","","html-button-response","97","131603","0.0-97.0","8355BBB7E35C49ACAC98CEA54C6D999B","019cf985-09df-7501-acef-0930b2facbf4","019cf974-7aee-7bc9-8ea4-9f55741b365d","","717","
                <div class=""stimulus-container"">
                    <img src=""images/causal_sequence/package_causal/package_causal_7.png"" class=""exp-image"">
                    <div class=""question-area"">
                        <p style=""font-size: 20px; font-weight: bold; margin: 0;"">Is there a person in this image?</p>
                    </div>
                </div>","0","main_experiment_trial","7","package_causal","causal_sequence","randomized","","","","",""
"","","","","","html-keyboard-response","98","132611","0.0-98.0","8355BBB7E35C49ACAC98CEA54C6D999B","019cf985-09df-7501-acef-0930b2facbf4","019cf974-7aee-7bc9-8ea4-9f55741b365d","","null","
                <div class=""stimulus-container"">
                    <img src=""images/causal_sequence/package_causal/package_causal_9.png"" class=""exp-image"">
                    <div class=""question-area""></div> 
                </div>","null","","","","","","","","","",""
"","","","","","html-button-response","99","133087","0.0-99.0","8355BBB7E35C49ACAC98CEA54C6D999B","019cf985-09df-7501-acef-0930b2facbf4","019cf974-7aee-7bc9-8ea4-9f55741b365d","","467","
                <div class=""stimulus-container"">
                    <img src=""images/causal_sequence/package_causal/package_causal_9.png"" class=""exp-image"">
                    <div class=""question-area"">
                        <p style=""font-size: 20px; font-weight: bold; margin: 0;"">Is there a person in this image?</p>
                    </div>
                </div>","0","main_experiment_trial","9","package_causal","causal_sequence","randomized","","","","",""
"","","","","","html-keyboard-response","100","138089","0.0-100.0","8355BBB7E35C49ACAC98CEA54C6D999B","019cf985-09df-7501-acef-0930b2facbf4","019cf974-7aee-7bc9-8ea4-9f55741b365d","","null","<div style=""background-color: white; width: 100vw; height: 100vh;""></div>","null","","","","","","","","","",""
"","","","","","html-keyboard-response","101","139096","0.0-101.0","8355BBB7E35C49ACAC98CEA54C6D999B","019cf985-09df-7501-acef-0930b2facbf4","019cf974-7aee-7bc9-8ea4-9f55741b365d","","null","
                <div class=""stimulus-container"">
                    <img src=""images/semantic_sequence/maintaining_a_car_semantic/maintaining_a_car_semantic_7.png"" class=""exp-image"">
                    <div class=""question-area""></div> 
                </div>","null","","","","","","","","","",""
"","","","","","html-button-response","102","139870","0.0-102.0","8355BBB7E35C49ACAC98CEA54C6D999B","019cf985-09df-7501-acef-0930b2facbf4","019cf974-7aee-7bc9-8ea4-9f55741b365d","","767","
                <div class=""stimulus-container"">
                    <img src=""images/semantic_sequence/maintaining_a_car_semantic/maintaining_a_car_semantic_7.png"" class=""exp-image"">
                    <div class=""question-area"">
                        <p style=""font-size: 20px; font-weight: bold; margin: 0;"">Is there a person in this image?</p>
                    </div>
                </div>","0","main_experiment_trial","7","maintaining_a_car_semantic","semantic_sequence","randomized","","","","",""
"","","","","","html-keyboard-response","103","140877","0.0-103.0","8355BBB7E35C49ACAC98CEA54C6D999B","019cf985-09df-7501-acef-0930b2facbf4","019cf974-7aee-7bc9-8ea4-9f55741b365d","","null","
                <div class=""stimulus-container"">
                    <img src=""images/semantic_sequence/maintaining_a_car_semantic/maintaining_a_car_semantic_2.png"" class=""exp-image"">
                    <div class=""question-area""></div> 
                </div>","null","","","","","","","","","",""
"","","","","","html-button-response","104","142087","0.0-104.0","8355BBB7E35C49ACAC98CEA54C6D999B","019cf985-09df-7501-acef-0930b2facbf4","019cf974-7aee-7bc9-8ea4-9f55741b365d","","1202","
                <div class=""stimulus-container"">
                    <img src=""images/semantic_sequence/maintaining_a_car_semantic/maintaining_a_car_semantic_2.png"" class=""exp-image"">
                    <div class=""question-area"">
                        <p style=""font-size: 20px; font-weight: bold; margin: 0;"">Is there a person in this image?</p>
                    </div>
                </div>","0","main_experiment_trial","2","maintaining_a_car_semantic","semantic_sequence","randomized","","","","",""
"","","","","","html-keyboard-response","105","143095","0.0-105.0","8355BBB7E35C49ACAC98CEA54C6D999B","019cf985-09df-7501-acef-0930b2facbf4","019cf974-7aee-7bc9-8ea4-9f55741b365d","","null","
                <div class=""stimulus-container"">
                    <img src=""images/semantic_sequence/maintaining_a_car_semantic/maintaining_a_car_semantic_4.png"" class=""exp-image"">
                    <div class=""question-area""></div> 
                </div>","null","","","","","","","","","",""
"","","","","","html-button-response","106","144470","0.0-106.0","8355BBB7E35C49ACAC98CEA54C6D999B","019cf985-09df-7501-acef-0930b2facbf4","019cf974-7aee-7bc9-8ea4-9f55741b365d","","1368","
                <div class=""stimulus-container"">
                    <img src=""images/semantic_sequence/maintaining_a_car_semantic/maintaining_a_car_semantic_4.png"" class=""exp-image"">
                    <div class=""question-area"">
                        <p style=""font-size: 20px; font-weight: bold; margin: 0;"">Is there a person in this image?</p>
                    </div>
                </div>","0","main_experiment_trial","4","maintaining_a_car_semantic","semantic_sequence","randomized","","","","",""
"","","","","","html-keyboard-response","107","145480","0.0-107.0","8355BBB7E35C49ACAC98CEA54C6D999B","019cf985-09df-7501-acef-0930b2facbf4","019cf974-7aee-7bc9-8ea4-9f55741b365d","","null","
                <div class=""stimulus-container"">
                    <img src=""images/semantic_sequence/maintaining_a_car_semantic/maintaining_a_car_semantic_3.png"" class=""exp-image"">
                    <div class=""question-area""></div> 
                </div>","null","","","","","","","","","",""
"","","","","","html-button-response","108","147720","0.0-108.0","8355BBB7E35C49ACAC98CEA54C6D999B","019cf985-09df-7501-acef-0930b2facbf4","019cf974-7aee-7bc9-8ea4-9f55741b365d","","2232","
                <div class=""stimulus-container"">
                    <img src=""images/semantic_sequence/maintaining_a_car_semantic/maintaining_a_car_semantic_3.png"" class=""exp-image"">
                    <div class=""question-area"">
                        <p style=""font-size: 20px; font-weight: bold; margin: 0;"">Is there a person in this image?</p>
                    </div>
                </div>","0","main_experiment_trial","3","maintaining_a_car_semantic","semantic_sequence","randomized","","","","",""
"","","","","","html-keyboard-response","109","148729","0.0-109.0","8355BBB7E35C49ACAC98CEA54C6D999B","019cf985-09df-7501-acef-0930b2facbf4","019cf974-7aee-7bc9-8ea4-9f55741b365d","","null","
                <div class=""stimulus-container"">
                    <img src=""images/semantic_sequence/maintaining_a_car_semantic/maintaining_a_car_semantic_6.png"" class=""exp-image"">
                    <div class=""question-area""></div> 
                </div>","null","","","","","","","","","",""
"","","","","","html-button-response","110","149586","0.0-110.0","8355BBB7E35C49ACAC98CEA54C6D999B","019cf985-09df-7501-acef-0930b2facbf4","019cf974-7aee-7bc9-8ea4-9f55741b365d","","849","
                <div class=""stimulus-container"">
                    <img src=""images/semantic_sequence/maintaining_a_car_semantic/maintaining_a_car_semantic_6.png"" class=""exp-image"">
                    <div class=""question-area"">
                        <p style=""font-size: 20px; font-weight: bold; margin: 0;"">Is there a person in this image?</p>
                    </div>
                </div>","0","main_experiment_trial","6","maintaining_a_car_semantic","semantic_sequence","randomized","","","","",""
"","","","","","html-keyboard-response","111","150594","0.0-111.0","8355BBB7E35C49ACAC98CEA54C6D999B","019cf985-09df-7501-acef-0930b2facbf4","019cf974-7aee-7bc9-8ea4-9f55741b365d","","null","
                <div class=""stimulus-container"">
                    <img src=""images/semantic_sequence/maintaining_a_car_semantic/maintaining_a_car_semantic_5.png"" class=""exp-image"">
                    <div class=""question-area""></div> 
                </div>","null","","","","","","","","","",""
"","","","","","html-button-response","112","151553","0.0-112.0","8355BBB7E35C49ACAC98CEA54C6D999B","019cf985-09df-7501-acef-0930b2facbf4","019cf974-7aee-7bc9-8ea4-9f55741b365d","","951","
                <div class=""stimulus-container"">
                    <img src=""images/semantic_sequence/maintaining_a_car_semantic/maintaining_a_car_semantic_5.png"" class=""exp-image"">
                    <div class=""question-area"">
                        <p style=""font-size: 20px; font-weight: bold; margin: 0;"">Is there a person in this image?</p>
                    </div>
                </div>","0","main_experiment_trial","5","maintaining_a_car_semantic","semantic_sequence","randomized","","","","",""
"","","","","","html-keyboard-response","113","152562","0.0-113.0","8355BBB7E35C49ACAC98CEA54C6D999B","019cf985-09df-7501-acef-0930b2facbf4","019cf974-7aee-7bc9-8ea4-9f55741b365d","","null","
                <div class=""stimulus-container"">
                    <img src=""images/semantic_sequence/maintaining_a_car_semantic/maintaining_a_car_semantic_8.png"" class=""exp-image"">
                    <div class=""question-area""></div> 
                </div>","null","","","","","","","","","",""
"","","","","","html-button-response","114","153403","0.0-114.0","8355BBB7E35C49ACAC98CEA54C6D999B","019cf985-09df-7501-acef-0930b2facbf4","019cf974-7aee-7bc9-8ea4-9f55741b365d","","834","
                <div class=""stimulus-container"">
                    <img src=""images/semantic_sequence/maintaining_a_car_semantic/maintaining_a_car_semantic_8.png"" class=""exp-image"">
                    <div class=""question-area"">
                        <p style=""font-size: 20px; font-weight: bold; margin: 0;"">Is there a person in this image?</p>
                    </div>
                </div>","0","main_experiment_trial","8","maintaining_a_car_semantic","semantic_sequence","randomized","","","","",""
"","","","","","html-keyboard-response","115","154412","0.0-115.0","8355BBB7E35C49ACAC98CEA54C6D999B","019cf985-09df-7501-acef-0930b2facbf4","019cf974-7aee-7bc9-8ea4-9f55741b365d","","null","
                <div class=""stimulus-container"">
                    <img src=""images/semantic_sequence/maintaining_a_car_semantic/maintaining_a_car_semantic_1.png"" class=""exp-image"">
                    <div class=""question-area""></div> 
                </div>","null","","","","","","","","","",""
"","","","","","html-button-response","116","155120","0.0-116.0","8355BBB7E35C49ACAC98CEA54C6D999B","019cf985-09df-7501-acef-0930b2facbf4","019cf974-7aee-7bc9-8ea4-9f55741b365d","","700","
                <div class=""stimulus-container"">
                    <img src=""images/semantic_sequence/maintaining_a_car_semantic/maintaining_a_car_semantic_1.png"" class=""exp-image"">
                    <div class=""question-area"">
                        <p style=""font-size: 20px; font-weight: bold; margin: 0;"">Is there a person in this image?</p>
                    </div>
                </div>","0","main_experiment_trial","1","maintaining_a_car_semantic","semantic_sequence","randomized","","","","",""
"","","","","","html-keyboard-response","117","156128","0.0-117.0","8355BBB7E35C49ACAC98CEA54C6D999B","019cf985-09df-7501-acef-0930b2facbf4","019cf974-7aee-7bc9-8ea4-9f55741b365d","","null","
                <div class=""stimulus-container"">
                    <img src=""images/semantic_sequence/maintaining_a_car_semantic/maintaining_a_car_semantic_ten.png"" class=""exp-image"">
                    <div class=""question-area""></div> 
                </div>","null","","","","","","","","","",""
"","","","","","html-button-response","118","156770","0.0-118.0","8355BBB7E35C49ACAC98CEA54C6D999B","019cf985-09df-7501-acef-0930b2facbf4","019cf974-7aee-7bc9-8ea4-9f55741b365d","","636","
                <div class=""stimulus-container"">
                    <img src=""images/semantic_sequence/maintaining_a_car_semantic/maintaining_a_car_semantic_ten.png"" class=""exp-image"">
                    <div class=""question-area"">
                        <p style=""font-size: 20px; font-weight: bold; margin: 0;"">Is there a person in this image?</p>
                    </div>
                </div>","0","main_experiment_trial","ten","maintaining_a_car_semantic","semantic_sequence","randomized","","","","",""
"","","","","","html-keyboard-response","119","157778","0.0-119.0","8355BBB7E35C49ACAC98CEA54C6D999B","019cf985-09df-7501-acef-0930b2facbf4","019cf974-7aee-7bc9-8ea4-9f55741b365d","","null","
                <div class=""stimulus-container"">
                    <img src=""images/semantic_sequence/maintaining_a_car_semantic/maintaining_a_car_semantic_9.png"" class=""exp-image"">
                    <div class=""question-area""></div> 
                </div>","null","","","","","","","","","",""
"","","","","","html-button-response","120","158405","0.0-120.0","8355BBB7E35C49ACAC98CEA54C6D999B","019cf985-09df-7501-acef-0930b2facbf4","019cf974-7aee-7bc9-8ea4-9f55741b365d","","619","
                <div class=""stimulus-container"">
                    <img src=""images/semantic_sequence/maintaining_a_car_semantic/maintaining_a_car_semantic_9.png"" class=""exp-image"">
                    <div class=""question-area"">
                        <p style=""font-size: 20px; font-weight: bold; margin: 0;"">Is there a person in this image?</p>
                    </div>
                </div>","0","main_experiment_trial","9","maintaining_a_car_semantic","semantic_sequence","randomized","","","","",""
"","","","","","html-keyboard-response","121","163407","0.0-121.0","8355BBB7E35C49ACAC98CEA54C6D999B","019cf985-09df-7501-acef-0930b2facbf4","019cf974-7aee-7bc9-8ea4-9f55741b365d","","null","<div style=""background-color: white; width: 100vw; height: 100vh;""></div>","null","","","","","","","","","",""
"","","","","","html-keyboard-response","122","164414","0.0-122.0","8355BBB7E35C49ACAC98CEA54C6D999B","019cf985-09df-7501-acef-0930b2facbf4","019cf974-7aee-7bc9-8ea4-9f55741b365d","","null","
                <div class=""stimulus-container"">
                    <img src=""images/semantic_sequence/self_care_activities_semantic/self_care_activities_semantic_1.png"" class=""exp-image"">
                    <div class=""question-area""></div> 
                </div>","null","","","","","","","","","",""
"","","","","","html-button-response","123","165270","0.0-123.0","8355BBB7E35C49ACAC98CEA54C6D999B","019cf985-09df-7501-acef-0930b2facbf4","019cf974-7aee-7bc9-8ea4-9f55741b365d","","849","
                <div class=""stimulus-container"">
                    <img src=""images/semantic_sequence/self_care_activities_semantic/self_care_activities_semantic_1.png"" class=""exp-image"">
                    <div class=""question-area"">
                        <p style=""font-size: 20px; font-weight: bold; margin: 0;"">Is there a person in this image?</p>
                    </div>
                </div>","0","main_experiment_trial","1","self_care_activities_semantic","semantic_sequence","randomized","","","","",""
"","","","","","html-keyboard-response","124","166279","0.0-124.0","8355BBB7E35C49ACAC98CEA54C6D999B","019cf985-09df-7501-acef-0930b2facbf4","019cf974-7aee-7bc9-8ea4-9f55741b365d","","null","
                <div class=""stimulus-container"">
                    <img src=""images/semantic_sequence/self_care_activities_semantic/self_care_activities_semantic_4.png"" class=""exp-image"">
                    <div class=""question-area""></div> 
                </div>","null","","","","","","","","","",""
"","","","","","html-button-response","125","166670","0.0-125.0","8355BBB7E35C49ACAC98CEA54C6D999B","019cf985-09df-7501-acef-0930b2facbf4","019cf974-7aee-7bc9-8ea4-9f55741b365d","","384","
                <div class=""stimulus-container"">
                    <img src=""images/semantic_sequence/self_care_activities_semantic/self_care_activities_semantic_4.png"" class=""exp-image"">
                    <div class=""question-area"">
                        <p style=""font-size: 20px; font-weight: bold; margin: 0;"">Is there a person in this image?</p>
                    </div>
                </div>","0","main_experiment_trial","4","self_care_activities_semantic","semantic_sequence","randomized","","","","",""
"","","","","","html-keyboard-response","126","167676","0.0-126.0","8355BBB7E35C49ACAC98CEA54C6D999B","019cf985-09df-7501-acef-0930b2facbf4","019cf974-7aee-7bc9-8ea4-9f55741b365d","","null","
                <div class=""stimulus-container"">
                    <img src=""images/semantic_sequence/self_care_activities_semantic/self_care_activities_semantic_5.png"" class=""exp-image"">
                    <div class=""question-area""></div> 
                </div>","null","","","","","","","","","",""
"","","","","","html-button-response","127","168187","0.0-127.0","8355BBB7E35C49ACAC98CEA54C6D999B","019cf985-09df-7501-acef-0930b2facbf4","019cf974-7aee-7bc9-8ea4-9f55741b365d","","504","
                <div class=""stimulus-container"">
                    <img src=""images/semantic_sequence/self_care_activities_semantic/self_care_activities_semantic_5.png"" class=""exp-image"">
                    <div class=""question-area"">
                        <p style=""font-size: 20px; font-weight: bold; margin: 0;"">Is there a person in this image?</p>
                    </div>
                </div>","0","main_experiment_trial","5","self_care_activities_semantic","semantic_sequence","randomized","","","","",""
"","","","","","html-keyboard-response","128","169196","0.0-128.0","8355BBB7E35C49ACAC98CEA54C6D999B","019cf985-09df-7501-acef-0930b2facbf4","019cf974-7aee-7bc9-8ea4-9f55741b365d","","null","
                <div class=""stimulus-container"">
                    <img src=""images/semantic_sequence/self_care_activities_semantic/self_care_activities_semantic_7.png"" class=""exp-image"">
                    <div class=""question-area""></div> 
                </div>","null","","","","","","","","","",""
"","","","","","html-button-response","129","170253","0.0-129.0","8355BBB7E35C49ACAC98CEA54C6D999B","019cf985-09df-7501-acef-0930b2facbf4","019cf974-7aee-7bc9-8ea4-9f55741b365d","","1049","
                <div class=""stimulus-container"">
                    <img src=""images/semantic_sequence/self_care_activities_semantic/self_care_activities_semantic_7.png"" class=""exp-image"">
                    <div class=""question-area"">
                        <p style=""font-size: 20px; font-weight: bold; margin: 0;"">Is there a person in this image?</p>
                    </div>
                </div>","0","main_experiment_trial","7","self_care_activities_semantic","semantic_sequence","randomized","","","","",""
"","","","","","html-keyboard-response","130","171262","0.0-130.0","8355BBB7E35C49ACAC98CEA54C6D999B","019cf985-09df-7501-acef-0930b2facbf4","019cf974-7aee-7bc9-8ea4-9f55741b365d","","null","
                <div class=""stimulus-container"">
                    <img src=""images/semantic_sequence/self_care_activities_semantic/self_care_activities_semantic_3.png"" class=""exp-image"">
                    <div class=""question-area""></div> 
                </div>","null","","","","","","","","","",""
"","","","","","html-button-response","131","171987","0.0-131.0","8355BBB7E35C49ACAC98CEA54C6D999B","019cf985-09df-7501-acef-0930b2facbf4","019cf974-7aee-7bc9-8ea4-9f55741b365d","","717","
                <div class=""stimulus-container"">
                    <img src=""images/semantic_sequence/self_care_activities_semantic/self_care_activities_semantic_3.png"" class=""exp-image"">
                    <div class=""question-area"">
                        <p style=""font-size: 20px; font-weight: bold; margin: 0;"">Is there a person in this image?</p>
                    </div>
                </div>","0","main_experiment_trial","3","self_care_activities_semantic","semantic_sequence","randomized","","","","",""
"","","","","","html-keyboard-response","132","172996","0.0-132.0","8355BBB7E35C49ACAC98CEA54C6D999B","019cf985-09df-7501-acef-0930b2facbf4","019cf974-7aee-7bc9-8ea4-9f55741b365d","","null","
                <div class=""stimulus-container"">
                    <img src=""images/semantic_sequence/self_care_activities_semantic/self_care_activities_semantic_2.png"" class=""exp-image"">
                    <div class=""question-area""></div> 
                </div>","null","","","","","","","","","",""
"","","","","","html-button-response","133","173786","0.0-133.0","8355BBB7E35C49ACAC98CEA54C6D999B","019cf985-09df-7501-acef-0930b2facbf4","019cf974-7aee-7bc9-8ea4-9f55741b365d","","783","
                <div class=""stimulus-container"">
                    <img src=""images/semantic_sequence/self_care_activities_semantic/self_care_activities_semantic_2.png"" class=""exp-image"">
                    <div class=""question-area"">
                        <p style=""font-size: 20px; font-weight: bold; margin: 0;"">Is there a person in this image?</p>
                    </div>
                </div>","0","main_experiment_trial","2","self_care_activities_semantic","semantic_sequence","randomized","","","","",""
"","","","","","html-keyboard-response","134","174795","0.0-134.0","8355BBB7E35C49ACAC98CEA54C6D999B","019cf985-09df-7501-acef-0930b2facbf4","019cf974-7aee-7bc9-8ea4-9f55741b365d","","null","
                <div class=""stimulus-container"">
                    <img src=""images/semantic_sequence/self_care_activities_semantic/self_care_activities_semantic_6.png"" class=""exp-image"">
                    <div class=""question-area""></div> 
                </div>","null","","","","","","","","","",""
"","","","","","html-button-response","135","175387","0.0-135.0","8355BBB7E35C49ACAC98CEA54C6D999B","019cf985-09df-7501-acef-0930b2facbf4","019cf974-7aee-7bc9-8ea4-9f55741b365d","","584","
                <div class=""stimulus-container"">
                    <img src=""images/semantic_sequence/self_care_activities_semantic/self_care_activities_semantic_6.png"" class=""exp-image"">
                    <div class=""question-area"">
                        <p style=""font-size: 20px; font-weight: bold; margin: 0;"">Is there a person in this image?</p>
                    </div>
                </div>","0","main_experiment_trial","6","self_care_activities_semantic","semantic_sequence","randomized","","","","",""
"","","","","","html-keyboard-response","136","176396","0.0-136.0","8355BBB7E35C49ACAC98CEA54C6D999B","019cf985-09df-7501-acef-0930b2facbf4","019cf974-7aee-7bc9-8ea4-9f55741b365d","","null","
                <div class=""stimulus-container"">
                    <img src=""images/semantic_sequence/self_care_activities_semantic/self_care_activities_semantic_9.png"" class=""exp-image"">
                    <div class=""question-area""></div> 
                </div>","null","","","","","","","","","",""
"","","","","","html-button-response","137","177136","0.0-137.0","8355BBB7E35C49ACAC98CEA54C6D999B","019cf985-09df-7501-acef-0930b2facbf4","019cf974-7aee-7bc9-8ea4-9f55741b365d","","730","
                <div class=""stimulus-container"">
                    <img src=""images/semantic_sequence/self_care_activities_semantic/self_care_activities_semantic_9.png"" class=""exp-image"">
                    <div class=""question-area"">
                        <p style=""font-size: 20px; font-weight: bold; margin: 0;"">Is there a person in this image?</p>
                    </div>
                </div>","0","main_experiment_trial","9","self_care_activities_semantic","semantic_sequence","randomized","","","","",""
"","","","","","html-keyboard-response","138","178142","0.0-138.0","8355BBB7E35C49ACAC98CEA54C6D999B","019cf985-09df-7501-acef-0930b2facbf4","019cf974-7aee-7bc9-8ea4-9f55741b365d","","null","
                <div class=""stimulus-container"">
                    <img src=""images/semantic_sequence/self_care_activities_semantic/self_care_activities_semantic_ten.png"" class=""exp-image"">
                    <div class=""question-area""></div> 
                </div>","null","","","","","","","","","",""
"","","","","","html-button-response","139","179553","0.0-139.0","8355BBB7E35C49ACAC98CEA54C6D999B","019cf985-09df-7501-acef-0930b2facbf4","019cf974-7aee-7bc9-8ea4-9f55741b365d","","1401","
                <div class=""stimulus-container"">
                    <img src=""images/semantic_sequence/self_care_activities_semantic/self_care_activities_semantic_ten.png"" class=""exp-image"">
                    <div class=""question-area"">
                        <p style=""font-size: 20px; font-weight: bold; margin: 0;"">Is there a person in this image?</p>
                    </div>
                </div>","0","main_experiment_trial","ten","self_care_activities_semantic","semantic_sequence","randomized","","","","",""
"","","","","","html-keyboard-response","140","180563","0.0-140.0","8355BBB7E35C49ACAC98CEA54C6D999B","019cf985-09df-7501-acef-0930b2facbf4","019cf974-7aee-7bc9-8ea4-9f55741b365d","","null","
                <div class=""stimulus-container"">
                    <img src=""images/semantic_sequence/self_care_activities_semantic/self_care_activities_semantic_8.png"" class=""exp-image"">
                    <div class=""question-area""></div> 
                </div>","null","","","","","","","","","",""
"","","","","","html-button-response","141","181387","0.0-141.0","8355BBB7E35C49ACAC98CEA54C6D999B","019cf985-09df-7501-acef-0930b2facbf4","019cf974-7aee-7bc9-8ea4-9f55741b365d","","814","
                <div class=""stimulus-container"">
                    <img src=""images/semantic_sequence/self_care_activities_semantic/self_care_activities_semantic_8.png"" class=""exp-image"">
                    <div class=""question-area"">
                        <p style=""font-size: 20px; font-weight: bold; margin: 0;"">Is there a person in this image?</p>
                    </div>
                </div>","0","main_experiment_trial","8","self_care_activities_semantic","semantic_sequence","randomized","","","","",""
"","","","","","html-keyboard-response","142","186388","0.0-142.0","8355BBB7E35C49ACAC98CEA54C6D999B","019cf985-09df-7501-acef-0930b2facbf4","019cf974-7aee-7bc9-8ea4-9f55741b365d","","null","<div style=""background-color: white; width: 100vw; height: 100vh;""></div>","null","","","","","","","","","",""
"","","","","","html-keyboard-response","143","187401","0.0-143.0","8355BBB7E35C49ACAC98CEA54C6D999B","019cf985-09df-7501-acef-0930b2facbf4","019cf974-7aee-7bc9-8ea4-9f55741b365d","","null","
                <div class=""stimulus-container"">
                    <img src=""images/causal_sequence/saving_a_cat_causal/saving_a_cat_causal_6.png"" class=""exp-image"">
                    <div class=""question-area""></div> 
                </div>","null","","","","","","","","","",""
"","","","","","html-button-response","144","188187","0.0-144.0","8355BBB7E35C49ACAC98CEA54C6D999B","019cf985-09df-7501-acef-0930b2facbf4","019cf974-7aee-7bc9-8ea4-9f55741b365d","","777","
                <div class=""stimulus-container"">
                    <img src=""images/causal_sequence/saving_a_cat_causal/saving_a_cat_causal_6.png"" class=""exp-image"">
                    <div class=""question-area"">
                        <p style=""font-size: 20px; font-weight: bold; margin: 0;"">Is there a person in this image?</p>
                    </div>
                </div>","0","main_experiment_trial","6","saving_a_cat_causal","causal_sequence","randomized","","","","",""
"","","","","","html-keyboard-response","145","189197","0.0-145.0","8355BBB7E35C49ACAC98CEA54C6D999B","019cf985-09df-7501-acef-0930b2facbf4","019cf974-7aee-7bc9-8ea4-9f55741b365d","","null","
                <div class=""stimulus-container"">
                    <img src=""images/causal_sequence/saving_a_cat_causal/saving_a_cat_causal_9.png"" class=""exp-image"">
                    <div class=""question-area""></div> 
                </div>","null","","","","","","","","","",""
"","","","","","html-button-response","146","189920","0.0-146.0","8355BBB7E35C49ACAC98CEA54C6D999B","019cf985-09df-7501-acef-0930b2facbf4","019cf974-7aee-7bc9-8ea4-9f55741b365d","","715","
                <div class=""stimulus-container"">
                    <img src=""images/causal_sequence/saving_a_cat_causal/saving_a_cat_causal_9.png"" class=""exp-image"">
                    <div class=""question-area"">
                        <p style=""font-size: 20px; font-weight: bold; margin: 0;"">Is there a person in this image?</p>
                    </div>
                </div>","0","main_experiment_trial","9","saving_a_cat_causal","causal_sequence","randomized","","","","",""
"","","","","","html-keyboard-response","147","190930","0.0-147.0","8355BBB7E35C49ACAC98CEA54C6D999B","019cf985-09df-7501-acef-0930b2facbf4","019cf974-7aee-7bc9-8ea4-9f55741b365d","","null","
                <div class=""stimulus-container"">
                    <img src=""images/causal_sequence/saving_a_cat_causal/saving_a_cat_causal_5.png"" class=""exp-image"">
                    <div class=""question-area""></div> 
                </div>","null","","","","","","","","","",""
"","","","","","html-button-response","148","191571","0.0-148.0","8355BBB7E35C49ACAC98CEA54C6D999B","019cf985-09df-7501-acef-0930b2facbf4","019cf974-7aee-7bc9-8ea4-9f55741b365d","","630","
                <div class=""stimulus-container"">
                    <img src=""images/causal_sequence/saving_a_cat_causal/saving_a_cat_causal_5.png"" class=""exp-image"">
                    <div class=""question-area"">
                        <p style=""font-size: 20px; font-weight: bold; margin: 0;"">Is there a person in this image?</p>
                    </div>
                </div>","0","main_experiment_trial","5","saving_a_cat_causal","causal_sequence","randomized","","","","",""
"","","","","","html-keyboard-response","149","192580","0.0-149.0","8355BBB7E35C49ACAC98CEA54C6D999B","019cf985-09df-7501-acef-0930b2facbf4","019cf974-7aee-7bc9-8ea4-9f55741b365d","","null","
                <div class=""stimulus-container"">
                    <img src=""images/causal_sequence/saving_a_cat_causal/saving_a_cat_causal_ten.png"" class=""exp-image"">
                    <div class=""question-area""></div> 
                </div>","null","","","","","","","","","",""
"","","","","","html-button-response","150","193309","0.0-150.0","8355BBB7E35C49ACAC98CEA54C6D999B","019cf985-09df-7501-acef-0930b2facbf4","019cf974-7aee-7bc9-8ea4-9f55741b365d","","719","
                <div class=""stimulus-container"">
                    <img src=""images/causal_sequence/saving_a_cat_causal/saving_a_cat_causal_ten.png"" class=""exp-image"">
                    <div class=""question-area"">
                        <p style=""font-size: 20px; font-weight: bold; margin: 0;"">Is there a person in this image?</p>
                    </div>
                </div>","0","main_experiment_trial","ten","saving_a_cat_causal","causal_sequence","randomized","","","","",""
"","","","","","html-keyboard-response","151","194319","0.0-151.0","8355BBB7E35C49ACAC98CEA54C6D999B","019cf985-09df-7501-acef-0930b2facbf4","019cf974-7aee-7bc9-8ea4-9f55741b365d","","null","
                <div class=""stimulus-container"">
                    <img src=""images/causal_sequence/saving_a_cat_causal/saving_a_cat_causal_8.png"" class=""exp-image"">
                    <div class=""question-area""></div> 
                </div>","null","","","","","","","","","",""
"","","","","","html-button-response","152","195187","0.0-152.0","8355BBB7E35C49ACAC98CEA54C6D999B","019cf985-09df-7501-acef-0930b2facbf4","019cf974-7aee-7bc9-8ea4-9f55741b365d","","857","
                <div class=""stimulus-container"">
                    <img src=""images/causal_sequence/saving_a_cat_causal/saving_a_cat_causal_8.png"" class=""exp-image"">
                    <div class=""question-area"">
                        <p style=""font-size: 20px; font-weight: bold; margin: 0;"">Is there a person in this image?</p>
                    </div>
                </div>","0","main_experiment_trial","8","saving_a_cat_causal","causal_sequence","randomized","","","","",""
"","","","","","html-keyboard-response","153","196197","0.0-153.0","8355BBB7E35C49ACAC98CEA54C6D999B","019cf985-09df-7501-acef-0930b2facbf4","019cf974-7aee-7bc9-8ea4-9f55741b365d","","null","
                <div class=""stimulus-container"">
                    <img src=""images/causal_sequence/saving_a_cat_causal/saving_a_cat_causal_3.png"" class=""exp-image"">
                    <div class=""question-area""></div> 
                </div>","null","","","","","","","","","",""
"","","","","","html-button-response","154","196653","0.0-154.0","8355BBB7E35C49ACAC98CEA54C6D999B","019cf985-09df-7501-acef-0930b2facbf4","019cf974-7aee-7bc9-8ea4-9f55741b365d","","449","
                <div class=""stimulus-container"">
                    <img src=""images/causal_sequence/saving_a_cat_causal/saving_a_cat_causal_3.png"" class=""exp-image"">
                    <div class=""question-area"">
                        <p style=""font-size: 20px; font-weight: bold; margin: 0;"">Is there a person in this image?</p>
                    </div>
                </div>","1","main_experiment_trial","3","saving_a_cat_causal","causal_sequence","randomized","","","","",""
"","","","","","html-keyboard-response","155","197663","0.0-155.0","8355BBB7E35C49ACAC98CEA54C6D999B","019cf985-09df-7501-acef-0930b2facbf4","019cf974-7aee-7bc9-8ea4-9f55741b365d","","null","
                <div class=""stimulus-container"">
                    <img src=""images/causal_sequence/saving_a_cat_causal/saving_a_cat_causal_1.png"" class=""exp-image"">
                    <div class=""question-area""></div> 
                </div>","null","","","","","","","","","",""
"","","","","","html-button-response","156","198069","0.0-156.0","8355BBB7E35C49ACAC98CEA54C6D999B","019cf985-09df-7501-acef-0930b2facbf4","019cf974-7aee-7bc9-8ea4-9f55741b365d","","397","
                <div class=""stimulus-container"">
                    <img src=""images/causal_sequence/saving_a_cat_causal/saving_a_cat_causal_1.png"" class=""exp-image"">
                    <div class=""question-area"">
                        <p style=""font-size: 20px; font-weight: bold; margin: 0;"">Is there a person in this image?</p>
                    </div>
                </div>","0","main_experiment_trial","1","saving_a_cat_causal","causal_sequence","randomized","","","","",""
"","","","","","html-keyboard-response","157","199080","0.0-157.0","8355BBB7E35C49ACAC98CEA54C6D999B","019cf985-09df-7501-acef-0930b2facbf4","019cf974-7aee-7bc9-8ea4-9f55741b365d","","null","
                <div class=""stimulus-container"">
                    <img src=""images/causal_sequence/saving_a_cat_causal/saving_a_cat_causal_2.png"" class=""exp-image"">
                    <div class=""question-area""></div> 
                </div>","null","","","","","","","","","",""
"","","","","","html-button-response","158","199537","0.0-158.0","8355BBB7E35C49ACAC98CEA54C6D999B","019cf985-09df-7501-acef-0930b2facbf4","019cf974-7aee-7bc9-8ea4-9f55741b365d","","446","
                <div class=""stimulus-container"">
                    <img src=""images/causal_sequence/saving_a_cat_causal/saving_a_cat_causal_2.png"" class=""exp-image"">
                    <div class=""question-area"">
                        <p style=""font-size: 20px; font-weight: bold; margin: 0;"">Is there a person in this image?</p>
                    </div>
                </div>","1","main_experiment_trial","2","saving_a_cat_causal","causal_sequence","randomized","","","","",""
"","","","","","html-keyboard-response","159","200548","0.0-159.0","8355BBB7E35C49ACAC98CEA54C6D999B","019cf985-09df-7501-acef-0930b2facbf4","019cf974-7aee-7bc9-8ea4-9f55741b365d","","null","
                <div class=""stimulus-container"">
                    <img src=""images/causal_sequence/saving_a_cat_causal/saving_a_cat_causal_4.png"" class=""exp-image"">
                    <div class=""question-area""></div> 
                </div>","null","","","","","","","","","",""
"","","","","","html-button-response","160","201287","0.0-160.0","8355BBB7E35C49ACAC98CEA54C6D999B","019cf985-09df-7501-acef-0930b2facbf4","019cf974-7aee-7bc9-8ea4-9f55741b365d","","729","
                <div class=""stimulus-container"">
                    <img src=""images/causal_sequence/saving_a_cat_causal/saving_a_cat_causal_4.png"" class=""exp-image"">
                    <div class=""question-area"">
                        <p style=""font-size: 20px; font-weight: bold; margin: 0;"">Is there a person in this image?</p>
                    </div>
                </div>","0","main_experiment_trial","4","saving_a_cat_causal","causal_sequence","randomized","","","","",""
"","","","","","html-keyboard-response","161","202298","0.0-161.0","8355BBB7E35C49ACAC98CEA54C6D999B","019cf985-09df-7501-acef-0930b2facbf4","019cf974-7aee-7bc9-8ea4-9f55741b365d","","null","
                <div class=""stimulus-container"">
                    <img src=""images/causal_sequence/saving_a_cat_causal/saving_a_cat_causal_7.png"" class=""exp-image"">
                    <div class=""question-area""></div> 
                </div>","null","","","","","","","","","",""
"","","","","","html-button-response","162","202770","0.0-162.0","8355BBB7E35C49ACAC98CEA54C6D999B","019cf985-09df-7501-acef-0930b2facbf4","019cf974-7aee-7bc9-8ea4-9f55741b365d","","461","
                <div class=""stimulus-container"">
                    <img src=""images/causal_sequence/saving_a_cat_causal/saving_a_cat_causal_7.png"" class=""exp-image"">
                    <div class=""question-area"">
                        <p style=""font-size: 20px; font-weight: bold; margin: 0;"">Is there a person in this image?</p>
                    </div>
                </div>","0","main_experiment_trial","7","saving_a_cat_causal","causal_sequence","randomized","","","","",""
"","","","","","html-keyboard-response","163","207772","0.0-163.0","8355BBB7E35C49ACAC98CEA54C6D999B","019cf985-09df-7501-acef-0930b2facbf4","019cf974-7aee-7bc9-8ea4-9f55741b365d","","null","<div style=""background-color: white; width: 100vw; height: 100vh;""></div>","null","","","","","","","","","",""
"","","","","","html-keyboard-response","164","208785","0.0-164.0","8355BBB7E35C49ACAC98CEA54C6D999B","019cf985-09df-7501-acef-0930b2facbf4","019cf974-7aee-7bc9-8ea4-9f55741b365d","","null","
                <div class=""stimulus-container"">
                    <img src=""images/causal_sequence/museum_causal/museum_causal_7.png"" class=""exp-image"">
                    <div class=""question-area""></div> 
                </div>","null","","","","","","","","","",""
"","","","","","html-button-response","165","209520","0.0-165.0","8355BBB7E35C49ACAC98CEA54C6D999B","019cf985-09df-7501-acef-0930b2facbf4","019cf974-7aee-7bc9-8ea4-9f55741b365d","","728","
                <div class=""stimulus-container"">
                    <img src=""images/causal_sequence/museum_causal/museum_causal_7.png"" class=""exp-image"">
                    <div class=""question-area"">
                        <p style=""font-size: 20px; font-weight: bold; margin: 0;"">Is there a person in this image?</p>
                    </div>
                </div>","1","main_experiment_trial","7","museum_causal","causal_sequence","randomized","","","","",""
"","","","","","html-keyboard-response","166","210530","0.0-166.0","8355BBB7E35C49ACAC98CEA54C6D999B","019cf985-09df-7501-acef-0930b2facbf4","019cf974-7aee-7bc9-8ea4-9f55741b365d","","null","
                <div class=""stimulus-container"">
                    <img src=""images/causal_sequence/museum_causal/museum_causal_3.png"" class=""exp-image"">
                    <div class=""question-area""></div> 
                </div>","null","","","","","","","","","",""
"","","","","","html-button-response","167","211556","0.0-167.0","8355BBB7E35C49ACAC98CEA54C6D999B","019cf985-09df-7501-acef-0930b2facbf4","019cf974-7aee-7bc9-8ea4-9f55741b365d","","1015","
                <div class=""stimulus-container"">
                    <img src=""images/causal_sequence/museum_causal/museum_causal_3.png"" class=""exp-image"">
                    <div class=""question-area"">
                        <p style=""font-size: 20px; font-weight: bold; margin: 0;"">Is there a person in this image?</p>
                    </div>
                </div>","0","main_experiment_trial","3","museum_causal","causal_sequence","randomized","","","","",""
"","","","","","html-keyboard-response","168","212566","0.0-168.0","8355BBB7E35C49ACAC98CEA54C6D999B","019cf985-09df-7501-acef-0930b2facbf4","019cf974-7aee-7bc9-8ea4-9f55741b365d","","null","
                <div class=""stimulus-container"">
                    <img src=""images/causal_sequence/museum_causal/museum_causal_2.png"" class=""exp-image"">
                    <div class=""question-area""></div> 
                </div>","null","","","","","","","","","",""
"","","","","","html-button-response","169","213236","0.0-169.0","8355BBB7E35C49ACAC98CEA54C6D999B","019cf985-09df-7501-acef-0930b2facbf4","019cf974-7aee-7bc9-8ea4-9f55741b365d","","659","
                <div class=""stimulus-container"">
                    <img src=""images/causal_sequence/museum_causal/museum_causal_2.png"" class=""exp-image"">
                    <div class=""question-area"">
                        <p style=""font-size: 20px; font-weight: bold; margin: 0;"">Is there a person in this image?</p>
                    </div>
                </div>","1","main_experiment_trial","2","museum_causal","causal_sequence","randomized","","","","",""
"","","","","","html-keyboard-response","170","214246","0.0-170.0","8355BBB7E35C49ACAC98CEA54C6D999B","019cf985-09df-7501-acef-0930b2facbf4","019cf974-7aee-7bc9-8ea4-9f55741b365d","","null","
                <div class=""stimulus-container"">
                    <img src=""images/causal_sequence/museum_causal/museum_causal_8.png"" class=""exp-image"">
                    <div class=""question-area""></div> 
                </div>","null","","","","","","","","","",""
"","","","","","html-button-response","171","214686","0.0-171.0","8355BBB7E35C49ACAC98CEA54C6D999B","019cf985-09df-7501-acef-0930b2facbf4","019cf974-7aee-7bc9-8ea4-9f55741b365d","","430","
                <div class=""stimulus-container"">
                    <img src=""images/causal_sequence/museum_causal/museum_causal_8.png"" class=""exp-image"">
                    <div class=""question-area"">
                        <p style=""font-size: 20px; font-weight: bold; margin: 0;"">Is there a person in this image?</p>
                    </div>
                </div>","0","main_experiment_trial","8","museum_causal","causal_sequence","randomized","","","","",""
"","","","","","html-keyboard-response","172","215695","0.0-172.0","8355BBB7E35C49ACAC98CEA54C6D999B","019cf985-09df-7501-acef-0930b2facbf4","019cf974-7aee-7bc9-8ea4-9f55741b365d","","null","
                <div class=""stimulus-container"">
                    <img src=""images/causal_sequence/museum_causal/museum_causal_ten.png"" class=""exp-image"">
                    <div class=""question-area""></div> 
                </div>","null","","","","","","","","","",""
"","","","","","html-button-response","173","217054","0.0-173.0","8355BBB7E35C49ACAC98CEA54C6D999B","019cf985-09df-7501-acef-0930b2facbf4","019cf974-7aee-7bc9-8ea4-9f55741b365d","","1349","
                <div class=""stimulus-container"">
                    <img src=""images/causal_sequence/museum_causal/museum_causal_ten.png"" class=""exp-image"">
                    <div class=""question-area"">
                        <p style=""font-size: 20px; font-weight: bold; margin: 0;"">Is there a person in this image?</p>
                    </div>
                </div>","0","main_experiment_trial","ten","museum_causal","causal_sequence","randomized","","","","",""
"","","","","","html-keyboard-response","174","218063","0.0-174.0","8355BBB7E35C49ACAC98CEA54C6D999B","019cf985-09df-7501-acef-0930b2facbf4","019cf974-7aee-7bc9-8ea4-9f55741b365d","","null","
                <div class=""stimulus-container"">
                    <img src=""images/causal_sequence/museum_causal/museum_causal_4.png"" class=""exp-image"">
                    <div class=""question-area""></div> 
                </div>","null","","","","","","","","","",""
"","","","","","html-button-response","175","218735","0.0-175.0","8355BBB7E35C49ACAC98CEA54C6D999B","019cf985-09df-7501-acef-0930b2facbf4","019cf974-7aee-7bc9-8ea4-9f55741b365d","","667","
                <div class=""stimulus-container"">
                    <img src=""images/causal_sequence/museum_causal/museum_causal_4.png"" class=""exp-image"">
                    <div class=""question-area"">
                        <p style=""font-size: 20px; font-weight: bold; margin: 0;"">Is there a person in this image?</p>
                    </div>
                </div>","0","main_experiment_trial","4","museum_causal","causal_sequence","randomized","","","","",""
"","","","","","html-keyboard-response","176","219741","0.0-176.0","8355BBB7E35C49ACAC98CEA54C6D999B","019cf985-09df-7501-acef-0930b2facbf4","019cf974-7aee-7bc9-8ea4-9f55741b365d","","null","
                <div class=""stimulus-container"">
                    <img src=""images/causal_sequence/museum_causal/museum_causal_9.png"" class=""exp-image"">
                    <div class=""question-area""></div> 
                </div>","null","","","","","","","","","",""
"","","","","","html-button-response","177","220155","0.0-177.0","8355BBB7E35C49ACAC98CEA54C6D999B","019cf985-09df-7501-acef-0930b2facbf4","019cf974-7aee-7bc9-8ea4-9f55741b365d","","406","
