"success","timeout","failed_images","failed_audio","failed_video","trial_type","trial_index","time_elapsed","internal_node_id","subject_id","study_id","session_id","view_history","rt","stimulus","response","task","image_index","folder","valuable_image_index","valuable_X","chosen_image_index","distance_from_X"
"false","false","[]","[]","[]","preload","0","61838","0.0-0.0","3548ED1EF50548C1830BF8B831807AE5","019ce7b8-10c6-7649-bf94-d472ce7974f6","019ce7a0-0965-7aa7-a556-174d32a8e773","","","","","","","","","","",""
"","","","","","instructions","1","65727","0.0-1.0","3548ED1EF50548C1830BF8B831807AE5","019ce7b8-10c6-7649-bf94-d472ce7974f6","019ce7a0-0965-7aa7-a556-174d32a8e773","[{""page_index"":0,""viewing_time"":3884}]","3885","","","","","","","","",""
"","","","","","instructions","2","69949","0.0-2.0","3548ED1EF50548C1830BF8B831807AE5","019ce7b8-10c6-7649-bf94-d472ce7974f6","019ce7a0-0965-7aa7-a556-174d32a8e773","[{""page_index"":0,""viewing_time"":4219}]","4220","","","","","","","","",""
"true","","","","","fullscreen","3","73714","0.0-3.0","3548ED1EF50548C1830BF8B831807AE5","019ce7b8-10c6-7649-bf94-d472ce7974f6","019ce7a0-0965-7aa7-a556-174d32a8e773","","2753","","","","","","","","",""
"","","","","","instructions","4","80402","0.0-4.0","3548ED1EF50548C1830BF8B831807AE5","019ce7b8-10c6-7649-bf94-d472ce7974f6","019ce7a0-0965-7aa7-a556-174d32a8e773","[{""page_index"":0,""viewing_time"":6686}]","6687","","","","","","","","",""
"","","","","","instructions","5","90347","0.0-5.0","3548ED1EF50548C1830BF8B831807AE5","019ce7b8-10c6-7649-bf94-d472ce7974f6","019ce7a0-0965-7aa7-a556-174d32a8e773","[{""page_index"":0,""viewing_time"":9943}]","9944","","","","","","","","",""
"","","","","","html-keyboard-response","6","94355","0.0-6.0","3548ED1EF50548C1830BF8B831807AE5","019ce7b8-10c6-7649-bf94-d472ce7974f6","019ce7a0-0965-7aa7-a556-174d32a8e773","","null","
                <div class=""stimulus-container"">
                    <img src=""images/instructions/movie_1.png"" class=""exp-image"">
                    <div class=""question-area""></div> 
                </div>","null","","","","","","",""
"","","","","","html-button-response","7","95846","0.0-7.0","3548ED1EF50548C1830BF8B831807AE5","019ce7b8-10c6-7649-bf94-d472ce7974f6","019ce7a0-0965-7aa7-a556-174d32a8e773","","1484","
                <div class=""stimulus-container"">
                    <img src=""images/instructions/movie_1.png"" class=""exp-image"">
                    <div class=""question-area"">
                        <p style=""font-size: 20px; font-weight: bold; margin: 0;"">Was there a person in this image?</p>
                    </div>
                </div>","0","example_question","1","","","","",""
"","","","","","html-keyboard-response","8","99849","0.0-8.0","3548ED1EF50548C1830BF8B831807AE5","019ce7b8-10c6-7649-bf94-d472ce7974f6","019ce7a0-0965-7aa7-a556-174d32a8e773","","null","
                <div class=""stimulus-container"">
                    <img src=""images/instructions/movie_2.png"" class=""exp-image"">
                    <div class=""question-area""></div> 
                </div>","null","","","","","","",""
"","","","","","html-button-response","9","100530","0.0-9.0","3548ED1EF50548C1830BF8B831807AE5","019ce7b8-10c6-7649-bf94-d472ce7974f6","019ce7a0-0965-7aa7-a556-174d32a8e773","","679","
                <div class=""stimulus-container"">
                    <img src=""images/instructions/movie_2.png"" class=""exp-image"">
                    <div class=""question-area"">
                        <p style=""font-size: 20px; font-weight: bold; margin: 0;"">Was there a person in this image?</p>
                    </div>
                </div>","0","example_question","2","","","","",""
"","","","","","html-keyboard-response","10","104533","0.0-10.0","3548ED1EF50548C1830BF8B831807AE5","019ce7b8-10c6-7649-bf94-d472ce7974f6","019ce7a0-0965-7aa7-a556-174d32a8e773","","null","
                <div class=""stimulus-container"">
                    <img src=""images/instructions/movie_3.png"" class=""exp-image"">
                    <div class=""question-area""></div> 
                </div>","null","","","","","","",""
"","","","","","html-button-response","11","105322","0.0-11.0","3548ED1EF50548C1830BF8B831807AE5","019ce7b8-10c6-7649-bf94-d472ce7974f6","019ce7a0-0965-7aa7-a556-174d32a8e773","","787","
                <div class=""stimulus-container"">
                    <img src=""images/instructions/movie_3.png"" class=""exp-image"">
                    <div class=""question-area"">
                        <p style=""font-size: 20px; font-weight: bold; margin: 0;"">Was there a person in this image?</p>
                    </div>
                </div>","0","example_question","3","","","","",""
"","","","","","html-keyboard-response","12","109325","0.0-12.0","3548ED1EF50548C1830BF8B831807AE5","019ce7b8-10c6-7649-bf94-d472ce7974f6","019ce7a0-0965-7aa7-a556-174d32a8e773","","null","
                <div class=""stimulus-container"">
                    <img src=""images/instructions/movie_4.png"" class=""exp-image"">
                    <div class=""question-area""></div> 
                </div>","null","","","","","","",""
"","","","","","html-button-response","13","109971","0.0-13.0","3548ED1EF50548C1830BF8B831807AE5","019ce7b8-10c6-7649-bf94-d472ce7974f6","019ce7a0-0965-7aa7-a556-174d32a8e773","","643","
                <div class=""stimulus-container"">
                    <img src=""images/instructions/movie_4.png"" class=""exp-image"">
                    <div class=""question-area"">
                        <p style=""font-size: 20px; font-weight: bold; margin: 0;"">Was there a person in this image?</p>
                    </div>
                </div>","0","example_question","4","","","","",""
"","","","","","instructions","14","112019","0.0-14.0","3548ED1EF50548C1830BF8B831807AE5","019ce7b8-10c6-7649-bf94-d472ce7974f6","019ce7a0-0965-7aa7-a556-174d32a8e773","[{""page_index"":0,""viewing_time"":2046}]","2047","","","","","","","","",""
"","","","","","html-keyboard-response","15","113028","0.0-15.0","3548ED1EF50548C1830BF8B831807AE5","019ce7b8-10c6-7649-bf94-d472ce7974f6","019ce7a0-0965-7aa7-a556-174d32a8e773","","null","<div style=""background-color: gray; width: 100vw; height: 100vh;""></div>","null","","","","","","",""
"","","","","","html-keyboard-response","16","118042","0.0-16.0","3548ED1EF50548C1830BF8B831807AE5","019ce7b8-10c6-7649-bf94-d472ce7974f6","019ce7a0-0965-7aa7-a556-174d32a8e773","","null","
                    <div class=""stimulus-container"">
                        <img src=""images/causal_sequence/saving_a_cat_causal/saving_a_cat_causal_1.png"" class=""exp-image"">
                        <div class=""question-area""></div> 
                    </div>","null","","","","","","",""
"","","","","","html-button-response","17","119211","0.0-17.0","3548ED1EF50548C1830BF8B831807AE5","019ce7b8-10c6-7649-bf94-d472ce7974f6","019ce7a0-0965-7aa7-a556-174d32a8e773","","1167","
                    <div class=""stimulus-container"">
                        <img src=""images/causal_sequence/saving_a_cat_causal/saving_a_cat_causal_1.png"" class=""exp-image"">
                        <div class=""question-area"">
                            <p style=""font-size: 20px; font-weight: bold; margin: 0;"">Is there a person in this image?</p>
                        </div>
                    </div>","0","main_causal_task","1","saving_a_cat_causal","","","",""
"","","","","","html-keyboard-response","18","124219","0.0-18.0","3548ED1EF50548C1830BF8B831807AE5","019ce7b8-10c6-7649-bf94-d472ce7974f6","019ce7a0-0965-7aa7-a556-174d32a8e773","","null","
                    <div class=""stimulus-container"">
                        <img src=""images/causal_sequence/saving_a_cat_causal/saving_a_cat_causal_2.png"" class=""exp-image"">
                        <div class=""question-area""></div> 
                    </div>","null","","","","","","",""
"","","","","","html-button-response","19","124939","0.0-19.0","3548ED1EF50548C1830BF8B831807AE5","019ce7b8-10c6-7649-bf94-d472ce7974f6","019ce7a0-0965-7aa7-a556-174d32a8e773","","717","
                    <div class=""stimulus-container"">
                        <img src=""images/causal_sequence/saving_a_cat_causal/saving_a_cat_causal_2.png"" class=""exp-image"">
                        <div class=""question-area"">
                            <p style=""font-size: 20px; font-weight: bold; margin: 0;"">Is there a person in this image?</p>
                        </div>
                    </div>","1","main_causal_task","2","saving_a_cat_causal","","","",""
"","","","","","html-keyboard-response","20","129943","0.0-20.0","3548ED1EF50548C1830BF8B831807AE5","019ce7b8-10c6-7649-bf94-d472ce7974f6","019ce7a0-0965-7aa7-a556-174d32a8e773","","null","
                    <div class=""stimulus-container"">
                        <img src=""images/causal_sequence/saving_a_cat_causal/saving_a_cat_causal_3.png"" class=""exp-image"">
                        <div class=""question-area""></div> 
                    </div>","null","","","","","","",""
"","","","","","html-button-response","21","130868","0.0-21.0","3548ED1EF50548C1830BF8B831807AE5","019ce7b8-10c6-7649-bf94-d472ce7974f6","019ce7a0-0965-7aa7-a556-174d32a8e773","","920","
                    <div class=""stimulus-container"">
                        <img src=""images/causal_sequence/saving_a_cat_causal/saving_a_cat_causal_3.png"" class=""exp-image"">
                        <div class=""question-area"">
                            <p style=""font-size: 20px; font-weight: bold; margin: 0;"">Is there a person in this image?</p>
                        </div>
                    </div>","1","main_causal_task","3","saving_a_cat_causal","","","",""
"","","","","","html-keyboard-response","22","135874","0.0-22.0","3548ED1EF50548C1830BF8B831807AE5","019ce7b8-10c6-7649-bf94-d472ce7974f6","019ce7a0-0965-7aa7-a556-174d32a8e773","","null","
                    <div class=""stimulus-container"">
                        <img src=""images/causal_sequence/saving_a_cat_causal/saving_a_cat_causal_4.png"" class=""exp-image"">
                        <div class=""question-area""></div> 
                    </div>","null","","","","","","",""
"","","","","","html-button-response","23","136899","0.0-23.0","3548ED1EF50548C1830BF8B831807AE5","019ce7b8-10c6-7649-bf94-d472ce7974f6","019ce7a0-0965-7aa7-a556-174d32a8e773","","1022","
                    <div class=""stimulus-container"">
                        <img src=""images/causal_sequence/saving_a_cat_causal/saving_a_cat_causal_4.png"" class=""exp-image"">
                        <div class=""question-area"">
                            <p style=""font-size: 20px; font-weight: bold; margin: 0;"">Is there a person in this image?</p>
                        </div>
                    </div>","0","main_causal_task","4","saving_a_cat_causal","","","",""
"","","","","","html-keyboard-response","24","141908","0.0-24.0","3548ED1EF50548C1830BF8B831807AE5","019ce7b8-10c6-7649-bf94-d472ce7974f6","019ce7a0-0965-7aa7-a556-174d32a8e773","","null","
                    <div class=""stimulus-container"">
                        <img src=""images/causal_sequence/saving_a_cat_causal/saving_a_cat_causal_5.png"" class=""exp-image"">
                        <div class=""question-area""></div> 
                    </div>","null","","","","","","",""
"","","","","","html-button-response","25","142772","0.0-25.0","3548ED1EF50548C1830BF8B831807AE5","019ce7b8-10c6-7649-bf94-d472ce7974f6","019ce7a0-0965-7aa7-a556-174d32a8e773","","860","
                    <div class=""stimulus-container"">
                        <img src=""images/causal_sequence/saving_a_cat_causal/saving_a_cat_causal_5.png"" class=""exp-image"">
                        <div class=""question-area"">
                            <p style=""font-size: 20px; font-weight: bold; margin: 0;"">Is there a person in this image?</p>
                        </div>
                    </div>","0","main_causal_task","5","saving_a_cat_causal","","","",""
"","","","","","html-keyboard-response","26","147781","0.0-26.0","3548ED1EF50548C1830BF8B831807AE5","019ce7b8-10c6-7649-bf94-d472ce7974f6","019ce7a0-0965-7aa7-a556-174d32a8e773","","null","
                    <div class=""stimulus-container"">
                        <img src=""images/causal_sequence/saving_a_cat_causal/saving_a_cat_causal_6.png"" class=""exp-image"">
                        <div class=""question-area""></div> 
                    </div>","null","","","","","","",""
"","","","","","html-button-response","27","148357","0.0-27.0","3548ED1EF50548C1830BF8B831807AE5","019ce7b8-10c6-7649-bf94-d472ce7974f6","019ce7a0-0965-7aa7-a556-174d32a8e773","","573","
                    <div class=""stimulus-container"">
                        <img src=""images/causal_sequence/saving_a_cat_causal/saving_a_cat_causal_6.png"" class=""exp-image"">
                        <div class=""question-area"">
                            <p style=""font-size: 20px; font-weight: bold; margin: 0;"">Is there a person in this image?</p>
                        </div>
                    </div>","0","main_causal_task","6","saving_a_cat_causal","","","",""
"","","","","","html-keyboard-response","28","153366","0.0-28.0","3548ED1EF50548C1830BF8B831807AE5","019ce7b8-10c6-7649-bf94-d472ce7974f6","019ce7a0-0965-7aa7-a556-174d32a8e773","","null","
                    <div class=""stimulus-container"">
                        <img src=""images/causal_sequence/saving_a_cat_causal/saving_a_cat_causal_7.png"" class=""exp-image"">
                        <div class=""question-area""></div> 
                    </div>","null","","","","","","",""
"","","","","","html-button-response","29","154453","0.0-29.0","3548ED1EF50548C1830BF8B831807AE5","019ce7b8-10c6-7649-bf94-d472ce7974f6","019ce7a0-0965-7aa7-a556-174d32a8e773","","1083","
                    <div class=""stimulus-container"">
                        <img src=""images/causal_sequence/saving_a_cat_causal/saving_a_cat_causal_7.png"" class=""exp-image"">
                        <div class=""question-area"">
                            <p style=""font-size: 20px; font-weight: bold; margin: 0;"">Is there a person in this image?</p>
                        </div>
                    </div>","0","main_causal_task","7","saving_a_cat_causal","","","",""
"","","","","","html-keyboard-response","30","159458","0.0-30.0","3548ED1EF50548C1830BF8B831807AE5","019ce7b8-10c6-7649-bf94-d472ce7974f6","019ce7a0-0965-7aa7-a556-174d32a8e773","","null","
                    <div class=""stimulus-container"">
                        <img src=""images/causal_sequence/saving_a_cat_causal/saving_a_cat_causal_8.png"" class=""exp-image"">
                        <div class=""question-area""></div> 
                    </div>","null","","","","","","",""
"","","","","","html-button-response","31","160469","0.0-31.0","3548ED1EF50548C1830BF8B831807AE5","019ce7b8-10c6-7649-bf94-d472ce7974f6","019ce7a0-0965-7aa7-a556-174d32a8e773","","1007","
                    <div class=""stimulus-container"">
                        <img src=""images/causal_sequence/saving_a_cat_causal/saving_a_cat_causal_8.png"" class=""exp-image"">
                        <div class=""question-area"">
                            <p style=""font-size: 20px; font-weight: bold; margin: 0;"">Is there a person in this image?</p>
                        </div>
                    </div>","0","main_causal_task","8","saving_a_cat_causal","","","",""
"","","","","","html-keyboard-response","32","165481","0.0-32.0","3548ED1EF50548C1830BF8B831807AE5","019ce7b8-10c6-7649-bf94-d472ce7974f6","019ce7a0-0965-7aa7-a556-174d32a8e773","","null","
                    <div class=""stimulus-container"">
                        <img src=""images/causal_sequence/saving_a_cat_causal/saving_a_cat_causal_9.png"" class=""exp-image"">
                        <div class=""question-area""></div> 
                    </div>","null","","","","","","",""
"","","","","","html-button-response","33","165973","0.0-33.0","3548ED1EF50548C1830BF8B831807AE5","019ce7b8-10c6-7649-bf94-d472ce7974f6","019ce7a0-0965-7aa7-a556-174d32a8e773","","488","
                    <div class=""stimulus-container"">
                        <img src=""images/causal_sequence/saving_a_cat_causal/saving_a_cat_causal_9.png"" class=""exp-image"">
                        <div class=""question-area"">
                            <p style=""font-size: 20px; font-weight: bold; margin: 0;"">Is there a person in this image?</p>
                        </div>
                    </div>","0","main_causal_task","9","saving_a_cat_causal","","","",""
"","","","","","html-keyboard-response","34","166981","0.0-34.0","3548ED1EF50548C1830BF8B831807AE5","019ce7b8-10c6-7649-bf94-d472ce7974f6","019ce7a0-0965-7aa7-a556-174d32a8e773","","null","<div style=""background-color: gray; width: 100vw; height: 100vh;""></div>","null","","","","","","",""
"","","","","","html-keyboard-response","35","171989","0.0-35.0","3548ED1EF50548C1830BF8B831807AE5","019ce7b8-10c6-7649-bf94-d472ce7974f6","019ce7a0-0965-7aa7-a556-174d32a8e773","","null","
                    <div class=""stimulus-container"">
                        <img src=""images/causal_sequence/package_causal/package_causal_1.png"" class=""exp-image"">
                        <div class=""question-area""></div> 
                    </div>","null","","","","","","",""
"","","","","","html-button-response","36","172869","0.0-36.0","3548ED1EF50548C1830BF8B831807AE5","019ce7b8-10c6-7649-bf94-d472ce7974f6","019ce7a0-0965-7aa7-a556-174d32a8e773","","875","
                    <div class=""stimulus-container"">
                        <img src=""images/causal_sequence/package_causal/package_causal_1.png"" class=""exp-image"">
                        <div class=""question-area"">
                            <p style=""font-size: 20px; font-weight: bold; margin: 0;"">Is there a person in this image?</p>
                        </div>
                    </div>","0","main_causal_task","1","package_causal","","","",""
"","","","","","html-keyboard-response","37","177873","0.0-37.0","3548ED1EF50548C1830BF8B831807AE5","019ce7b8-10c6-7649-bf94-d472ce7974f6","019ce7a0-0965-7aa7-a556-174d32a8e773","","null","
                    <div class=""stimulus-container"">
                        <img src=""images/causal_sequence/package_causal/package_causal_2.png"" class=""exp-image"">
                        <div class=""question-area""></div> 
                    </div>","null","","","","","","",""
"","","","","","html-button-response","38","178415","0.0-38.0","3548ED1EF50548C1830BF8B831807AE5","019ce7b8-10c6-7649-bf94-d472ce7974f6","019ce7a0-0965-7aa7-a556-174d32a8e773","","536","
                    <div class=""stimulus-container"">
                        <img src=""images/causal_sequence/package_causal/package_causal_2.png"" class=""exp-image"">
                        <div class=""question-area"">
                            <p style=""font-size: 20px; font-weight: bold; margin: 0;"">Is there a person in this image?</p>
                        </div>
                    </div>","0","main_causal_task","2","package_causal","","","",""
"","","","","","html-keyboard-response","39","183422","0.0-39.0","3548ED1EF50548C1830BF8B831807AE5","019ce7b8-10c6-7649-bf94-d472ce7974f6","019ce7a0-0965-7aa7-a556-174d32a8e773","","null","
                    <div class=""stimulus-container"">
                        <img src=""images/causal_sequence/package_causal/package_causal_3.png"" class=""exp-image"">
                        <div class=""question-area""></div> 
                    </div>","null","","","","","","",""
"","","","","","html-button-response","40","183958","0.0-40.0","3548ED1EF50548C1830BF8B831807AE5","019ce7b8-10c6-7649-bf94-d472ce7974f6","019ce7a0-0965-7aa7-a556-174d32a8e773","","532","
                    <div class=""stimulus-container"">
                        <img src=""images/causal_sequence/package_causal/package_causal_3.png"" class=""exp-image"">
                        <div class=""question-area"">
                            <p style=""font-size: 20px; font-weight: bold; margin: 0;"">Is there a person in this image?</p>
                        </div>
                    </div>","0","main_causal_task","3","package_causal","","","",""
"","","","","","html-keyboard-response","41","188962","0.0-41.0","3548ED1EF50548C1830BF8B831807AE5","019ce7b8-10c6-7649-bf94-d472ce7974f6","019ce7a0-0965-7aa7-a556-174d32a8e773","","null","
                    <div class=""stimulus-container"">
                        <img src=""images/causal_sequence/package_causal/package_causal_4.png"" class=""exp-image"">
                        <div class=""question-area""></div> 
                    </div>","null","","","","","","",""
"","","","","","html-button-response","42","189719","0.0-42.0","3548ED1EF50548C1830BF8B831807AE5","019ce7b8-10c6-7649-bf94-d472ce7974f6","019ce7a0-0965-7aa7-a556-174d32a8e773","","751","
                    <div class=""stimulus-container"">
                        <img src=""images/causal_sequence/package_causal/package_causal_4.png"" class=""exp-image"">
                        <div class=""question-area"">
                            <p style=""font-size: 20px; font-weight: bold; margin: 0;"">Is there a person in this image?</p>
                        </div>
                    </div>","1","main_causal_task","4","package_causal","","","",""
"","","","","","html-keyboard-response","43","194728","0.0-43.0","3548ED1EF50548C1830BF8B831807AE5","019ce7b8-10c6-7649-bf94-d472ce7974f6","019ce7a0-0965-7aa7-a556-174d32a8e773","","null","
                    <div class=""stimulus-container"">
                        <img src=""images/causal_sequence/package_causal/package_causal_5.png"" class=""exp-image"">
                        <div class=""question-area""></div> 
                    </div>","null","","","","","","",""
"","","","","","html-button-response","44","195150","0.0-44.0","3548ED1EF50548C1830BF8B831807AE5","019ce7b8-10c6-7649-bf94-d472ce7974f6","019ce7a0-0965-7aa7-a556-174d32a8e773","","416","
                    <div class=""stimulus-container"">
                        <img src=""images/causal_sequence/package_causal/package_causal_5.png"" class=""exp-image"">
                        <div class=""question-area"">
                            <p style=""font-size: 20px; font-weight: bold; margin: 0;"">Is there a person in this image?</p>
                        </div>
                    </div>","0","main_causal_task","5","package_causal","","","",""
"","","","","","html-keyboard-response","45","200155","0.0-45.0","3548ED1EF50548C1830BF8B831807AE5","019ce7b8-10c6-7649-bf94-d472ce7974f6","019ce7a0-0965-7aa7-a556-174d32a8e773","","null","
                    <div class=""stimulus-container"">
                        <img src=""images/causal_sequence/package_causal/package_causal_6.png"" class=""exp-image"">
                        <div class=""question-area""></div> 
                    </div>","null","","","","","","",""
"","","","","","html-button-response","46","200830","0.0-46.0","3548ED1EF50548C1830BF8B831807AE5","019ce7b8-10c6-7649-bf94-d472ce7974f6","019ce7a0-0965-7aa7-a556-174d32a8e773","","670","
                    <div class=""stimulus-container"">
                        <img src=""images/causal_sequence/package_causal/package_causal_6.png"" class=""exp-image"">
                        <div class=""question-area"">
                            <p style=""font-size: 20px; font-weight: bold; margin: 0;"">Is there a person in this image?</p>
                        </div>
                    </div>","0","main_causal_task","6","package_causal","","","",""
"","","","","","html-keyboard-response","47","205842","0.0-47.0","3548ED1EF50548C1830BF8B831807AE5","019ce7b8-10c6-7649-bf94-d472ce7974f6","019ce7a0-0965-7aa7-a556-174d32a8e773","","null","
                    <div class=""stimulus-container"">
                        <img src=""images/causal_sequence/package_causal/package_causal_7.png"" class=""exp-image"">
                        <div class=""question-area""></div> 
                    </div>","null","","","","","","",""
"","","","","","html-button-response","48","206741","0.0-48.0","3548ED1EF50548C1830BF8B831807AE5","019ce7b8-10c6-7649-bf94-d472ce7974f6","019ce7a0-0965-7aa7-a556-174d32a8e773","","897","
                    <div class=""stimulus-container"">
                        <img src=""images/causal_sequence/package_causal/package_causal_7.png"" class=""exp-image"">
                        <div class=""question-area"">
                            <p style=""font-size: 20px; font-weight: bold; margin: 0;"">Is there a person in this image?</p>
                        </div>
                    </div>","0","main_causal_task","7","package_causal","","","",""
"","","","","","html-keyboard-response","49","211751","0.0-49.0","3548ED1EF50548C1830BF8B831807AE5","019ce7b8-10c6-7649-bf94-d472ce7974f6","019ce7a0-0965-7aa7-a556-174d32a8e773","","null","
                    <div class=""stimulus-container"">
                        <img src=""images/causal_sequence/package_causal/package_causal_8.png"" class=""exp-image"">
                        <div class=""question-area""></div> 
                    </div>","null","","","","","","",""
"","","","","","html-button-response","50","212284","0.0-50.0","3548ED1EF50548C1830BF8B831807AE5","019ce7b8-10c6-7649-bf94-d472ce7974f6","019ce7a0-0965-7aa7-a556-174d32a8e773","","528","
                    <div class=""stimulus-container"">
                        <img src=""images/causal_sequence/package_causal/package_causal_8.png"" class=""exp-image"">
                        <div class=""question-area"">
                            <p style=""font-size: 20px; font-weight: bold; margin: 0;"">Is there a person in this image?</p>
                        </div>
                    </div>","0","main_causal_task","8","package_causal","","","",""
"","","","","","html-keyboard-response","51","217296","0.0-51.0","3548ED1EF50548C1830BF8B831807AE5","019ce7b8-10c6-7649-bf94-d472ce7974f6","019ce7a0-0965-7aa7-a556-174d32a8e773","","null","
                    <div class=""stimulus-container"">
                        <img src=""images/causal_sequence/package_causal/package_causal_9.png"" class=""exp-image"">
                        <div class=""question-area""></div> 
                    </div>","null","","","","","","",""
"","","","","","html-button-response","52","218054","0.0-52.0","3548ED1EF50548C1830BF8B831807AE5","019ce7b8-10c6-7649-bf94-d472ce7974f6","019ce7a0-0965-7aa7-a556-174d32a8e773","","755","
                    <div class=""stimulus-container"">
                        <img src=""images/causal_sequence/package_causal/package_causal_9.png"" class=""exp-image"">
                        <div class=""question-area"">
                            <p style=""font-size: 20px; font-weight: bold; margin: 0;"">Is there a person in this image?</p>
                        </div>
                    </div>","0","main_causal_task","9","package_causal","","","",""
"","","","","","html-keyboard-response","53","219065","0.0-53.0","3548ED1EF50548C1830BF8B831807AE5","019ce7b8-10c6-7649-bf94-d472ce7974f6","019ce7a0-0965-7aa7-a556-174d32a8e773","","null","<div style=""background-color: gray; width: 100vw; height: 100vh;""></div>","null","","","","","","",""
"","","","","","html-keyboard-response","54","224074","0.0-54.0","3548ED1EF50548C1830BF8B831807AE5","019ce7b8-10c6-7649-bf94-d472ce7974f6","019ce7a0-0965-7aa7-a556-174d32a8e773","","null","
                    <div class=""stimulus-container"">
                        <img src=""images/causal_sequence/museum_causal/museum_causal_1.png"" class=""exp-image"">
                        <div class=""question-area""></div> 
                    </div>","null","","","","","","",""
"","","","","","html-button-response","55","224838","0.0-55.0","3548ED1EF50548C1830BF8B831807AE5","019ce7b8-10c6-7649-bf94-d472ce7974f6","019ce7a0-0965-7aa7-a556-174d32a8e773","","762","
                    <div class=""stimulus-container"">
                        <img src=""images/causal_sequence/museum_causal/museum_causal_1.png"" class=""exp-image"">
                        <div class=""question-area"">
                            <p style=""font-size: 20px; font-weight: bold; margin: 0;"">Is there a person in this image?</p>
                        </div>
                    </div>","0","main_causal_task","1","museum_causal","","","",""
"","","","","","html-keyboard-response","56","229845","0.0-56.0","3548ED1EF50548C1830BF8B831807AE5","019ce7b8-10c6-7649-bf94-d472ce7974f6","019ce7a0-0965-7aa7-a556-174d32a8e773","","null","
                    <div class=""stimulus-container"">
                        <img src=""images/causal_sequence/museum_causal/museum_causal_2.png"" class=""exp-image"">
                        <div class=""question-area""></div> 
                    </div>","null","","","","","","",""
"","","","","","html-button-response","57","232853","0.0-57.0","3548ED1EF50548C1830BF8B831807AE5","019ce7b8-10c6-7649-bf94-d472ce7974f6","019ce7a0-0965-7aa7-a556-174d32a8e773","","null","
                    <div class=""stimulus-container"">
                        <img src=""images/causal_sequence/museum_causal/museum_causal_2.png"" class=""exp-image"">
                        <div class=""question-area"">
                            <p style=""font-size: 20px; font-weight: bold; margin: 0;"">Is there a person in this image?</p>
                        </div>
                    </div>","null","main_causal_task","2","museum_causal","","","",""
"","","","","","html-keyboard-response","58","237859","0.0-58.0","3548ED1EF50548C1830BF8B831807AE5","019ce7b8-10c6-7649-bf94-d472ce7974f6","019ce7a0-0965-7aa7-a556-174d32a8e773","","null","
                    <div class=""stimulus-container"">
                        <img src=""images/causal_sequence/museum_causal/museum_causal_3.png"" class=""exp-image"">
                        <div class=""question-area""></div> 
                    </div>","null","","","","","","",""
"","","","","","html-button-response","59","238568","0.0-59.0","3548ED1EF50548C1830BF8B831807AE5","019ce7b8-10c6-7649-bf94-d472ce7974f6","019ce7a0-0965-7aa7-a556-174d32a8e773","","706","
                    <div class=""stimulus-container"">
                        <img src=""images/causal_sequence/museum_causal/museum_causal_3.png"" class=""exp-image"">
                        <div class=""question-area"">
                            <p style=""font-size: 20px; font-weight: bold; margin: 0;"">Is there a person in this image?</p>
                        </div>
                    </div>","0","main_causal_task","3","museum_causal","","","",""
"","","","","","html-keyboard-response","60","243578","0.0-60.0","3548ED1EF50548C1830BF8B831807AE5","019ce7b8-10c6-7649-bf94-d472ce7974f6","019ce7a0-0965-7aa7-a556-174d32a8e773","","null","
                    <div class=""stimulus-container"">
                        <img src=""images/causal_sequence/museum_causal/museum_causal_4.png"" class=""exp-image"">
                        <div class=""question-area""></div> 
                    </div>","null","","","","","","",""
"","","","","","html-button-response","61","244080","0.0-61.0","3548ED1EF50548C1830BF8B831807AE5","019ce7b8-10c6-7649-bf94-d472ce7974f6","019ce7a0-0965-7aa7-a556-174d32a8e773","","497","
                    <div class=""stimulus-container"">
                        <img src=""images/causal_sequence/museum_causal/museum_causal_4.png"" class=""exp-image"">
                        <div class=""question-area"">
                            <p style=""font-size: 20px; font-weight: bold; margin: 0;"">Is there a person in this image?</p>
                        </div>
                    </div>","1","main_causal_task","4","museum_causal","","","",""
"","","","","","html-keyboard-response","62","249090","0.0-62.0","3548ED1EF50548C1830BF8B831807AE5","019ce7b8-10c6-7649-bf94-d472ce7974f6","019ce7a0-0965-7aa7-a556-174d32a8e773","","null","
                    <div class=""stimulus-container"">
                        <img src=""images/causal_sequence/museum_causal/museum_causal_5.png"" class=""exp-image"">
                        <div class=""question-area""></div> 
                    </div>","null","","","","","","",""
"","","","","","html-button-response","63","249711","0.0-63.0","3548ED1EF50548C1830BF8B831807AE5","019ce7b8-10c6-7649-bf94-d472ce7974f6","019ce7a0-0965-7aa7-a556-174d32a8e773","","618","
                    <div class=""stimulus-container"">
                        <img src=""images/causal_sequence/museum_causal/museum_causal_5.png"" class=""exp-image"">
                        <div class=""question-area"">
                            <p style=""font-size: 20px; font-weight: bold; margin: 0;"">Is there a person in this image?</p>
                        </div>
                    </div>","0","main_causal_task","5","museum_causal","","","",""
"","","","","","html-keyboard-response","64","254720","0.0-64.0","3548ED1EF50548C1830BF8B831807AE5","019ce7b8-10c6-7649-bf94-d472ce7974f6","019ce7a0-0965-7aa7-a556-174d32a8e773","","null","
                    <div class=""stimulus-container"">
                        <img src=""images/causal_sequence/museum_causal/museum_causal_6.png"" class=""exp-image"">
                        <div class=""question-area""></div> 
                    </div>","null","","","","","","",""
"","","","","","html-button-response","65","255152","0.0-65.0","3548ED1EF50548C1830BF8B831807AE5","019ce7b8-10c6-7649-bf94-d472ce7974f6","019ce7a0-0965-7aa7-a556-174d32a8e773","","430","
                    <div class=""stimulus-container"">
                        <img src=""images/causal_sequence/museum_causal/museum_causal_6.png"" class=""exp-image"">
                        <div class=""question-area"">
                            <p style=""font-size: 20px; font-weight: bold; margin: 0;"">Is there a person in this image?</p>
                        </div>
                    </div>","0","main_causal_task","6","museum_causal","","","",""
"","","","","","html-keyboard-response","66","260160","0.0-66.0","3548ED1EF50548C1830BF8B831807AE5","019ce7b8-10c6-7649-bf94-d472ce7974f6","019ce7a0-0965-7aa7-a556-174d32a8e773","","null","
                    <div class=""stimulus-container"">
                        <img src=""images/causal_sequence/museum_causal/museum_causal_7.png"" class=""exp-image"">
                        <div class=""question-area""></div> 
                    </div>","null","","","","","","",""
"","","","","","html-button-response","67","260671","0.0-67.0","3548ED1EF50548C1830BF8B831807AE5","019ce7b8-10c6-7649-bf94-d472ce7974f6","019ce7a0-0965-7aa7-a556-174d32a8e773","","508","
                    <div class=""stimulus-container"">
                        <img src=""images/causal_sequence/museum_causal/museum_causal_7.png"" class=""exp-image"">
                        <div class=""question-area"">
                            <p style=""font-size: 20px; font-weight: bold; margin: 0;"">Is there a person in this image?</p>
                        </div>
                    </div>","1","main_causal_task","7","museum_causal","","","",""
"","","","","","html-keyboard-response","68","265673","0.0-68.0","3548ED1EF50548C1830BF8B831807AE5","019ce7b8-10c6-7649-bf94-d472ce7974f6","019ce7a0-0965-7aa7-a556-174d32a8e773","","null","
                    <div class=""stimulus-container"">
                        <img src=""images/causal_sequence/museum_causal/museum_causal_8.png"" class=""exp-image"">
                        <div class=""question-area""></div> 
                    </div>","null","","","","","","",""
"","","","","","html-button-response","69","266216","0.0-69.0","3548ED1EF50548C1830BF8B831807AE5","019ce7b8-10c6-7649-bf94-d472ce7974f6","019ce7a0-0965-7aa7-a556-174d32a8e773","","540","
                    <div class=""stimulus-container"">
                        <img src=""images/causal_sequence/museum_causal/museum_causal_8.png"" class=""exp-image"">
                        <div class=""question-area"">
                            <p style=""font-size: 20px; font-weight: bold; margin: 0;"">Is there a person in this image?</p>
                        </div>
                    </div>","0","main_causal_task","8","museum_causal","","","",""
"","","","","","html-keyboard-response","70","271224","0.0-70.0","3548ED1EF50548C1830BF8B831807AE5","019ce7b8-10c6-7649-bf94-d472ce7974f6","019ce7a0-0965-7aa7-a556-174d32a8e773","","null","
                    <div class=""stimulus-container"">
                        <img src=""images/causal_sequence/museum_causal/museum_causal_9.png"" class=""exp-image"">
                        <div class=""question-area""></div> 
                    </div>","null","","","","","","",""
"","","","","","html-button-response","71","271880","0.0-71.0","3548ED1EF50548C1830BF8B831807AE5","019ce7b8-10c6-7649-bf94-d472ce7974f6","019ce7a0-0965-7aa7-a556-174d32a8e773","","653","
                    <div class=""stimulus-container"">
                        <img src=""images/causal_sequence/museum_causal/museum_causal_9.png"" class=""exp-image"">
                        <div class=""question-area"">
                            <p style=""font-size: 20px; font-weight: bold; margin: 0;"">Is there a person in this image?</p>
                        </div>
                    </div>","1","main_causal_task","9","museum_causal","","","",""
"","","","","","html-keyboard-response","72","272884","0.0-72.0","3548ED1EF50548C1830BF8B831807AE5","019ce7b8-10c6-7649-bf94-d472ce7974f6","019ce7a0-0965-7aa7-a556-174d32a8e773","","null","<div style=""background-color: gray; width: 100vw; height: 100vh;""></div>","null","","","","","","",""
"","","","","","html-keyboard-response","73","277890","0.0-73.0","3548ED1EF50548C1830BF8B831807AE5","019ce7b8-10c6-7649-bf94-d472ce7974f6","019ce7a0-0965-7aa7-a556-174d32a8e773","","null","
                    <div class=""stimulus-container"">
                        <img src=""images/causal_sequence/the_performance_causal/the_performance_causal_1.png"" class=""exp-image"">
                        <div class=""question-area""></div> 
                    </div>","null","","","","","","",""
"","","","","","html-button-response","74","278416","0.0-74.0","3548ED1EF50548C1830BF8B831807AE5","019ce7b8-10c6-7649-bf94-d472ce7974f6","019ce7a0-0965-7aa7-a556-174d32a8e773","","523","
                    <div class=""stimulus-container"">
                        <img src=""images/causal_sequence/the_performance_causal/the_performance_causal_1.png"" class=""exp-image"">
                        <div class=""question-area"">
                            <p style=""font-size: 20px; font-weight: bold; margin: 0;"">Is there a person in this image?</p>
                        </div>
                    </div>","0","main_causal_task","1","the_performance_causal","","","",""
"","","","","","html-keyboard-response","75","283420","0.0-75.0","3548ED1EF50548C1830BF8B831807AE5","019ce7b8-10c6-7649-bf94-d472ce7974f6","019ce7a0-0965-7aa7-a556-174d32a8e773","","null","
                    <div class=""stimulus-container"">
                        <img src=""images/causal_sequence/the_performance_causal/the_performance_causal_2.png"" class=""exp-image"">
                        <div class=""question-area""></div> 
                    </div>","null","","","","","","",""
"","","","","","html-button-response","76","283802","0.0-76.0","3548ED1EF50548C1830BF8B831807AE5","019ce7b8-10c6-7649-bf94-d472ce7974f6","019ce7a0-0965-7aa7-a556-174d32a8e773","","377","
                    <div class=""stimulus-container"">
                        <img src=""images/causal_sequence/the_performance_causal/the_performance_causal_2.png"" class=""exp-image"">
                        <div class=""question-area"">
                            <p style=""font-size: 20px; font-weight: bold; margin: 0;"">Is there a person in this image?</p>
                        </div>
                    </div>","0","main_causal_task","2","the_performance_causal","","","",""
"","","","","","html-keyboard-response","77","288805","0.0-77.0","3548ED1EF50548C1830BF8B831807AE5","019ce7b8-10c6-7649-bf94-d472ce7974f6","019ce7a0-0965-7aa7-a556-174d32a8e773","","null","
                    <div class=""stimulus-container"">
                        <img src=""images/causal_sequence/the_performance_causal/the_performance_causal_3.png"" class=""exp-image"">
                        <div class=""question-area""></div> 
                    </div>","null","","","","","","",""
"","","","","","html-button-response","78","289176","0.0-78.0","3548ED1EF50548C1830BF8B831807AE5","019ce7b8-10c6-7649-bf94-d472ce7974f6","019ce7a0-0965-7aa7-a556-174d32a8e773","","369","
                    <div class=""stimulus-container"">
                        <img src=""images/causal_sequence/the_performance_causal/the_performance_causal_3.png"" class=""exp-image"">
                        <div class=""question-area"">
                            <p style=""font-size: 20px; font-weight: bold; margin: 0;"">Is there a person in this image?</p>
                        </div>
                    </div>","0","main_causal_task","3","the_performance_causal","","","",""
"","","","","","html-keyboard-response","79","294183","0.0-79.0","3548ED1EF50548C1830BF8B831807AE5","019ce7b8-10c6-7649-bf94-d472ce7974f6","019ce7a0-0965-7aa7-a556-174d32a8e773","","null","
                    <div class=""stimulus-container"">
                        <img src=""images/causal_sequence/the_performance_causal/the_performance_causal_4.png"" class=""exp-image"">
                        <div class=""question-area""></div> 
                    </div>","null","","","","","","",""
"","","","","","html-button-response","80","294624","0.0-80.0","3548ED1EF50548C1830BF8B831807AE5","019ce7b8-10c6-7649-bf94-d472ce7974f6","019ce7a0-0965-7aa7-a556-174d32a8e773","","439","
                    <div class=""stimulus-container"">
                        <img src=""images/causal_sequence/the_performance_causal/the_performance_causal_4.png"" class=""exp-image"">
                        <div class=""question-area"">
                            <p style=""font-size: 20px; font-weight: bold; margin: 0;"">Is there a person in this image?</p>
                        </div>
                    </div>","0","main_causal_task","4","the_performance_causal","","","",""
"","","","","","html-keyboard-response","81","299634","0.0-81.0","3548ED1EF50548C1830BF8B831807AE5","019ce7b8-10c6-7649-bf94-d472ce7974f6","019ce7a0-0965-7aa7-a556-174d32a8e773","","null","
                    <div class=""stimulus-container"">
                        <img src=""images/causal_sequence/the_performance_causal/the_performance_causal_5.png"" class=""exp-image"">
                        <div class=""question-area""></div> 
                    </div>","null","","","","","","",""
"","","","","","html-button-response","82","300009","0.0-82.0","3548ED1EF50548C1830BF8B831807AE5","019ce7b8-10c6-7649-bf94-d472ce7974f6","019ce7a0-0965-7aa7-a556-174d32a8e773","","371","
                    <div class=""stimulus-container"">
                        <img src=""images/causal_sequence/the_performance_causal/the_performance_causal_5.png"" class=""exp-image"">
                        <div class=""question-area"">
                            <p style=""font-size: 20px; font-weight: bold; margin: 0;"">Is there a person in this image?</p>
                        </div>
                    </div>","0","main_causal_task","5","the_performance_causal","","","",""
"","","","","","html-keyboard-response","83","305018","0.0-83.0","3548ED1EF50548C1830BF8B831807AE5","019ce7b8-10c6-7649-bf94-d472ce7974f6","019ce7a0-0965-7aa7-a556-174d32a8e773","","null","
                    <div class=""stimulus-container"">
                        <img src=""images/causal_sequence/the_performance_causal/the_performance_causal_6.png"" class=""exp-image"">
                        <div class=""question-area""></div> 
                    </div>","null","","","","","","",""
"","","","","","html-button-response","84","306403","0.0-84.0","3548ED1EF50548C1830BF8B831807AE5","019ce7b8-10c6-7649-bf94-d472ce7974f6","019ce7a0-0965-7aa7-a556-174d32a8e773","","1379","
                    <div class=""stimulus-container"">
                        <img src=""images/causal_sequence/the_performance_causal/the_performance_causal_6.png"" class=""exp-image"">
                        <div class=""question-area"">
                            <p style=""font-size: 20px; font-weight: bold; margin: 0;"">Is there a person in this image?</p>
                        </div>
                    </div>","0","main_causal_task","6","the_performance_causal","","","",""
"","","","","","html-keyboard-response","85","311410","0.0-85.0","3548ED1EF50548C1830BF8B831807AE5","019ce7b8-10c6-7649-bf94-d472ce7974f6","019ce7a0-0965-7aa7-a556-174d32a8e773","","null","
                    <div class=""stimulus-container"">
                        <img src=""images/causal_sequence/the_performance_causal/the_performance_causal_7.png"" class=""exp-image"">
                        <div class=""question-area""></div> 
                    </div>","null","","","","","","",""
"","","","","","html-button-response","86","311938","0.0-86.0","3548ED1EF50548C1830BF8B831807AE5","019ce7b8-10c6-7649-bf94-d472ce7974f6","019ce7a0-0965-7aa7-a556-174d32a8e773","","524","
                    <div class=""stimulus-container"">
                        <img src=""images/causal_sequence/the_performance_causal/the_performance_causal_7.png"" class=""exp-image"">
                        <div class=""question-area"">
                            <p style=""font-size: 20px; font-weight: bold; margin: 0;"">Is there a person in this image?</p>
                        </div>
                    </div>","0","main_causal_task","7","the_performance_causal","","","",""
"","","","","","html-keyboard-response","87","316941","0.0-87.0","3548ED1EF50548C1830BF8B831807AE5","019ce7b8-10c6-7649-bf94-d472ce7974f6","019ce7a0-0965-7aa7-a556-174d32a8e773","","null","
                    <div class=""stimulus-container"">
                        <img src=""images/causal_sequence/the_performance_causal/the_performance_causal_8.png"" class=""exp-image"">
                        <div class=""question-area""></div> 
                    </div>","null","","","","","","",""
"","","","","","html-button-response","88","317955","0.0-88.0","3548ED1EF50548C1830BF8B831807AE5","019ce7b8-10c6-7649-bf94-d472ce7974f6","019ce7a0-0965-7aa7-a556-174d32a8e773","","1011","
                    <div class=""stimulus-container"">
                        <img src=""images/causal_sequence/the_performance_causal/the_performance_causal_8.png"" class=""exp-image"">
                        <div class=""question-area"">
                            <p style=""font-size: 20px; font-weight: bold; margin: 0;"">Is there a person in this image?</p>
                        </div>
                    </div>","0","main_causal_task","8","the_performance_causal","","","",""
"","","","","","html-keyboard-response","89","322963","0.0-89.0","3548ED1EF50548C1830BF8B831807AE5","019ce7b8-10c6-7649-bf94-d472ce7974f6","019ce7a0-0965-7aa7-a556-174d32a8e773","","null","
                    <div class=""stimulus-container"">
                        <img src=""images/causal_sequence/the_performance_causal/the_performance_causal_9.png"" class=""exp-image"">
                        <div class=""question-area""></div> 
                    </div>","null","","","","","","",""
"","","","","","html-button-response","90","323491","0.0-90.0","3548ED1EF50548C1830BF8B831807AE5","019ce7b8-10c6-7649-bf94-d472ce7974f6","019ce7a0-0965-7aa7-a556-174d32a8e773","","523","
                    <div class=""stimulus-container"">
                        <img src=""images/causal_sequence/the_performance_causal/the_performance_causal_9.png"" class=""exp-image"">
                        <div class=""question-area"">
                            <p style=""font-size: 20px; font-weight: bold; margin: 0;"">Is there a person in this image?</p>
                        </div>
                    </div>","0","main_causal_task","9","the_performance_causal","","","",""
"","","","","","html-keyboard-response","91","324495","0.0-91.0","3548ED1EF50548C1830BF8B831807AE5","019ce7b8-10c6-7649-bf94-d472ce7974f6","019ce7a0-0965-7aa7-a556-174d32a8e773","","null","<div style=""background-color: gray; width: 100vw; height: 100vh;""></div>","null","","","","","","",""
"","","","","","html-keyboard-response","92","329502","0.0-92.0","3548ED1EF50548C1830BF8B831807AE5","019ce7b8-10c6-7649-bf94-d472ce7974f6","019ce7a0-0965-7aa7-a556-174d32a8e773","","null","
                    <div class=""stimulus-container"">
                        <img src=""images/causal_sequence/dog_causal/dog_causal_1.png"" class=""exp-image"">
                        <div class=""question-area""></div> 
                    </div>","null","","","","","","",""
"","","","","","html-button-response","93","330005","0.0-93.0","3548ED1EF50548C1830BF8B831807AE5","019ce7b8-10c6-7649-bf94-d472ce7974f6","019ce7a0-0965-7aa7-a556-174d32a8e773","","496","
                    <div class=""stimulus-container"">
                        <img src=""images/causal_sequence/dog_causal/dog_causal_1.png"" class=""exp-image"">
                        <div class=""question-area"">
                            <p style=""font-size: 20px; font-weight: bold; margin: 0;"">Is there a person in this image?</p>
                        </div>
                    </div>","0","main_causal_task","1","dog_causal","","","",""
"","","","","","html-keyboard-response","94","335008","0.0-94.0","3548ED1EF50548C1830BF8B831807AE5","019ce7b8-10c6-7649-bf94-d472ce7974f6","019ce7a0-0965-7aa7-a556-174d32a8e773","","null","
                    <div class=""stimulus-container"">
                        <img src=""images/causal_sequence/dog_causal/dog_causal_2.png"" class=""exp-image"">
                        <div class=""question-area""></div> 
                    </div>","null","","","","","","",""
"","","","","","html-button-response","95","335459","0.0-95.0","3548ED1EF50548C1830BF8B831807AE5","019ce7b8-10c6-7649-bf94-d472ce7974f6","019ce7a0-0965-7aa7-a556-174d32a8e773","","447","
                    <div class=""stimulus-container"">
                        <img src=""images/causal_sequence/dog_causal/dog_causal_2.png"" class=""exp-image"">
                        <div class=""question-area"">
                            <p style=""font-size: 20px; font-weight: bold; margin: 0;"">Is there a person in this image?</p>
                        </div>
                    </div>","0","main_causal_task","2","dog_causal","","","",""
"","","","","","html-keyboard-response","96","340461","0.0-96.0","3548ED1EF50548C1830BF8B831807AE5","019ce7b8-10c6-7649-bf94-d472ce7974f6","019ce7a0-0965-7aa7-a556-174d32a8e773","","null","
                    <div class=""stimulus-container"">
                        <img src=""images/causal_sequence/dog_causal/dog_causal_3.png"" class=""exp-image"">
                        <div class=""question-area""></div> 
                    </div>","null","","","","","","",""
"","","","","","html-button-response","97","340900","0.0-97.0","3548ED1EF50548C1830BF8B831807AE5","019ce7b8-10c6-7649-bf94-d472ce7974f6","019ce7a0-0965-7aa7-a556-174d32a8e773","","436","
                    <div class=""stimulus-container"">
                        <img src=""images/causal_sequence/dog_causal/dog_causal_3.png"" class=""exp-image"">
                        <div class=""question-area"">
                            <p style=""font-size: 20px; font-weight: bold; margin: 0;"">Is there a person in this image?</p>
                        </div>
                    </div>","0","main_causal_task","3","dog_causal","","","",""
"","","","","","html-keyboard-response","98","345905","0.0-98.0","3548ED1EF50548C1830BF8B831807AE5","019ce7b8-10c6-7649-bf94-d472ce7974f6","019ce7a0-0965-7aa7-a556-174d32a8e773","","null","
                    <div class=""stimulus-container"">
                        <img src=""images/causal_sequence/dog_causal/dog_causal_4.png"" class=""exp-image"">
                        <div class=""question-area""></div> 
                    </div>","null","","","","","","",""
"","","","","","html-button-response","99","346523","0.0-99.0","3548ED1EF50548C1830BF8B831807AE5","019ce7b8-10c6-7649-bf94-d472ce7974f6","019ce7a0-0965-7aa7-a556-174d32a8e773","","613","
                    <div class=""stimulus-container"">
                        <img src=""images/causal_sequence/dog_causal/dog_causal_4.png"" class=""exp-image"">
                        <div class=""question-area"">
                            <p style=""font-size: 20px; font-weight: bold; margin: 0;"">Is there a person in this image?</p>
                        </div>
                    </div>","0","main_causal_task","4","dog_causal","","","",""
"","","","","","html-keyboard-response","100","351533","0.0-100.0","3548ED1EF50548C1830BF8B831807AE5","019ce7b8-10c6-7649-bf94-d472ce7974f6","019ce7a0-0965-7aa7-a556-174d32a8e773","","null","
                    <div class=""stimulus-container"">
                        <img src=""images/causal_sequence/dog_causal/dog_causal_5.png"" class=""exp-image"">
                        <div class=""question-area""></div> 
                    </div>","null","","","","","","",""
"","","","","","html-button-response","101","352324","0.0-101.0","3548ED1EF50548C1830BF8B831807AE5","019ce7b8-10c6-7649-bf94-d472ce7974f6","019ce7a0-0965-7aa7-a556-174d32a8e773","","785","
                    <div class=""stimulus-container"">
                        <img src=""images/causal_sequence/dog_causal/dog_causal_5.png"" class=""exp-image"">
                        <div class=""question-area"">
                            <p style=""font-size: 20px; font-weight: bold; margin: 0;"">Is there a person in this image?</p>
                        </div>
                    </div>","0","main_causal_task","5","dog_causal","","","",""
"","","","","","html-keyboard-response","102","357327","0.0-102.0","3548ED1EF50548C1830BF8B831807AE5","019ce7b8-10c6-7649-bf94-d472ce7974f6","019ce7a0-0965-7aa7-a556-174d32a8e773","","null","
                    <div class=""stimulus-container"">
                        <img src=""images/causal_sequence/dog_causal/dog_causal_6.png"" class=""exp-image"">
                        <div class=""question-area""></div> 
                    </div>","null","","","","","","",""
"","","","","","html-button-response","103","358148","0.0-103.0","3548ED1EF50548C1830BF8B831807AE5","019ce7b8-10c6-7649-bf94-d472ce7974f6","019ce7a0-0965-7aa7-a556-174d32a8e773","","817","
                    <div class=""stimulus-container"">
                        <img src=""images/causal_sequence/dog_causal/dog_causal_6.png"" class=""exp-image"">
                        <div class=""question-area"">
                            <p style=""font-size: 20px; font-weight: bold; margin: 0;"">Is there a person in this image?</p>
                        </div>
                    </div>","0","main_causal_task","6","dog_causal","","","",""
"","","","","","html-keyboard-response","104","363158","0.0-104.0","3548ED1EF50548C1830BF8B831807AE5","019ce7b8-10c6-7649-bf94-d472ce7974f6","019ce7a0-0965-7aa7-a556-174d32a8e773","","null","
                    <div class=""stimulus-container"">
                        <img src=""images/causal_sequence/dog_causal/dog_causal_7.png"" class=""exp-image"">
                        <div class=""question-area""></div> 
                    </div>","null","","","","","","",""
"","","","","","html-button-response","105","363940","0.0-105.0","3548ED1EF50548C1830BF8B831807AE5","019ce7b8-10c6-7649-bf94-d472ce7974f6","019ce7a0-0965-7aa7-a556-174d32a8e773","","777","
                    <div class=""stimulus-container"">
                        <img src=""images/causal_sequence/dog_causal/dog_causal_7.png"" class=""exp-image"">
                        <div class=""question-area"">
                            <p style=""font-size: 20px; font-weight: bold; margin: 0;"">Is there a person in this image?</p>
                        </div>
                    </div>","0","main_causal_task","7","dog_causal","","","",""
"","","","","","html-keyboard-response","106","368950","0.0-106.0","3548ED1EF50548C1830BF8B831807AE5","019ce7b8-10c6-7649-bf94-d472ce7974f6","019ce7a0-0965-7aa7-a556-174d32a8e773","","null","
                    <div class=""stimulus-container"">
                        <img src=""images/causal_sequence/dog_causal/dog_causal_8.png"" class=""exp-image"">
                        <div class=""question-area""></div> 
                    </div>","null","","","","","","",""
"","","","","","html-button-response","107","369588","0.0-107.0","3548ED1EF50548C1830BF8B831807AE5","019ce7b8-10c6-7649-bf94-d472ce7974f6","019ce7a0-0965-7aa7-a556-174d32a8e773","","633","
                    <div class=""stimulus-container"">
                        <img src=""images/causal_sequence/dog_causal/dog_causal_8.png"" class=""exp-image"">
                        <div class=""question-area"">
                            <p style=""font-size: 20px; font-weight: bold; margin: 0;"">Is there a person in this image?</p>
                        </div>
                    </div>","0","main_causal_task","8","dog_causal","","","",""
"","","","","","html-keyboard-response","108","374599","0.0-108.0","3548ED1EF50548C1830BF8B831807AE5","019ce7b8-10c6-7649-bf94-d472ce7974f6","019ce7a0-0965-7aa7-a556-174d32a8e773","","null","
                    <div class=""stimulus-container"">
                        <img src=""images/causal_sequence/dog_causal/dog_causal_9.png"" class=""exp-image"">
                        <div class=""question-area""></div> 
                    </div>","null","","","","","","",""
"","","","","","html-button-response","109","375557","0.0-109.0","3548ED1EF50548C1830BF8B831807AE5","019ce7b8-10c6-7649-bf94-d472ce7974f6","019ce7a0-0965-7aa7-a556-174d32a8e773","","953","
                    <div class=""stimulus-container"">
                        <img src=""images/causal_sequence/dog_causal/dog_causal_9.png"" class=""exp-image"">
                        <div class=""question-area"">
                            <p style=""font-size: 20px; font-weight: bold; margin: 0;"">Is there a person in this image?</p>
                        </div>
                    </div>","0","main_causal_task","9","dog_causal","","","",""
"","","","","","html-keyboard-response","110","376575","0.0-110.0","3548ED1EF50548C1830BF8B831807AE5","019ce7b8-10c6-7649-bf94-d472ce7974f6","019ce7a0-0965-7aa7-a556-174d32a8e773","","null","<div style=""background-color: gray; width: 100vw; height: 100vh;""></div>","null","","","","","","",""
"","","","","","html-keyboard-response","111","381580","0.0-111.0","3548ED1EF50548C1830BF8B831807AE5","019ce7b8-10c6-7649-bf94-d472ce7974f6","019ce7a0-0965-7aa7-a556-174d32a8e773","","null","
                    <div class=""stimulus-container"">
                        <img src=""images/causal_sequence/coin_causal/coin_causal_1.png"" class=""exp-image"">
                        <div class=""question-area""></div> 
                    </div>","null","","","","","","",""
"","","","","","html-button-response","112","382131","0.0-112.0","3548ED1EF50548C1830BF8B831807AE5","019ce7b8-10c6-7649-bf94-d472ce7974f6","019ce7a0-0965-7aa7-a556-174d32a8e773","","548","
                    <div class=""stimulus-container"">
                        <img src=""images/causal_sequence/coin_causal/coin_causal_1.png"" class=""exp-image"">
                        <div class=""question-area"">
                            <p style=""font-size: 20px; font-weight: bold; margin: 0;"">Is there a person in this image?</p>
                        </div>
                    </div>","0","main_causal_task","1","coin_causal","","","",""
"","","","","","html-keyboard-response","113","387142","0.0-113.0","3548ED1EF50548C1830BF8B831807AE5","019ce7b8-10c6-7649-bf94-d472ce7974f6","019ce7a0-0965-7aa7-a556-174d32a8e773","","null","
                    <div class=""stimulus-container"">
                        <img src=""images/causal_sequence/coin_causal/coin_causal_2.png"" class=""exp-image"">
                        <div class=""question-area""></div> 
                    </div>","null","","","","","","",""
"","","","","","html-button-response","114","387667","0.0-114.0","3548ED1EF50548C1830BF8B831807AE5","019ce7b8-10c6-7649-bf94-d472ce7974f6","019ce7a0-0965-7aa7-a556-174d32a8e773","","523","
                    <div class=""stimulus-container"">
                        <img src=""images/causal_sequence/coin_causal/coin_causal_2.png"" class=""exp-image"">
                        <div class=""question-area"">
                            <p style=""font-size: 20px; font-weight: bold; margin: 0;"">Is there a person in this image?</p>
                        </div>
                    </div>","0","main_causal_task","2","coin_causal","","","",""
"","","","","","html-keyboard-response","115","392676","0.0-115.0","3548ED1EF50548C1830BF8B831807AE5","019ce7b8-10c6-7649-bf94-d472ce7974f6","019ce7a0-0965-7aa7-a556-174d32a8e773","","null","
                    <div class=""stimulus-container"">
                        <img src=""images/causal_sequence/coin_causal/coin_causal_3.png"" class=""exp-image"">
                        <div class=""question-area""></div> 
                    </div>","null","","","","","","",""
"","","","","","html-button-response","116","393237","0.0-116.0","3548ED1EF50548C1830BF8B831807AE5","019ce7b8-10c6-7649-bf94-d472ce7974f6","019ce7a0-0965-7aa7-a556-174d32a8e773","","556","
                    <div class=""stimulus-container"">
                        <img src=""images/causal_sequence/coin_causal/coin_causal_3.png"" class=""exp-image"">
                        <div class=""question-area"">
                            <p style=""font-size: 20px; font-weight: bold; margin: 0;"">Is there a person in this image?</p>
                        </div>
                    </div>","0","main_causal_task","3","coin_causal","","","",""
"","","","","","html-keyboard-response","117","398245","0.0-117.0","3548ED1EF50548C1830BF8B831807AE5","019ce7b8-10c6-7649-bf94-d472ce7974f6","019ce7a0-0965-7aa7-a556-174d32a8e773","","null","
                    <div class=""stimulus-container"">
                        <img src=""images/causal_sequence/coin_causal/coin_causal_4.png"" class=""exp-image"">
                        <div class=""question-area""></div> 
                    </div>","null","","","","","","",""
"","","","","","html-button-response","118","398675","0.0-118.0","3548ED1EF50548C1830BF8B831807AE5","019ce7b8-10c6-7649-bf94-d472ce7974f6","019ce7a0-0965-7aa7-a556-174d32a8e773","","428","
                    <div class=""stimulus-container"">
                        <img src=""images/causal_sequence/coin_causal/coin_causal_4.png"" class=""exp-image"">
                        <div class=""question-area"">
                            <p style=""font-size: 20px; font-weight: bold; margin: 0;"">Is there a person in this image?</p>
                        </div>
                    </div>","0","main_causal_task","4","coin_causal","","","",""
"","","","","","html-keyboard-response","119","403685","0.0-119.0","3548ED1EF50548C1830BF8B831807AE5","019ce7b8-10c6-7649-bf94-d472ce7974f6","019ce7a0-0965-7aa7-a556-174d32a8e773","","null","
                    <div class=""stimulus-container"">
                        <img src=""images/causal_sequence/coin_causal/coin_causal_5.png"" class=""exp-image"">
                        <div class=""question-area""></div> 
                    </div>","null","","","","","","",""
"","","","","","html-button-response","120","404141","0.0-120.0","3548ED1EF50548C1830BF8B831807AE5","019ce7b8-10c6-7649-bf94-d472ce7974f6","019ce7a0-0965-7aa7-a556-174d32a8e773","","453","
                    <div class=""stimulus-container"">
                        <img src=""images/causal_sequence/coin_causal/coin_causal_5.png"" class=""exp-image"">
                        <div class=""question-area"">
                            <p style=""font-size: 20px; font-weight: bold; margin: 0;"">Is there a person in this image?</p>
                        </div>
                    </div>","0","main_causal_task","5","coin_causal","","","",""
"","","","","","html-keyboard-response","121","409148","0.0-121.0","3548ED1EF50548C1830BF8B831807AE5","019ce7b8-10c6-7649-bf94-d472ce7974f6","019ce7a0-0965-7aa7-a556-174d32a8e773","","null","
                    <div class=""stimulus-container"">
                        <img src=""images/causal_sequence/coin_causal/coin_causal_6.png"" class=""exp-image"">
                        <div class=""question-area""></div> 
                    </div>","null","","","","","","",""
"","","","","","html-button-response","122","409596","0.0-122.0","3548ED1EF50548C1830BF8B831807AE5","019ce7b8-10c6-7649-bf94-d472ce7974f6","019ce7a0-0965-7aa7-a556-174d32a8e773","","445","
                    <div class=""stimulus-container"">
                        <img src=""images/causal_sequence/coin_causal/coin_causal_6.png"" class=""exp-image"">
                        <div class=""question-area"">
                            <p style=""font-size: 20px; font-weight: bold; margin: 0;"">Is there a person in this image?</p>
                        </div>
                    </div>","0","main_causal_task","6","coin_causal","","","",""
"","","","","","html-keyboard-response","123","414605","0.0-123.0","3548ED1EF50548C1830BF8B831807AE5","019ce7b8-10c6-7649-bf94-d472ce7974f6","019ce7a0-0965-7aa7-a556-174d32a8e773","","null","
                    <div class=""stimulus-container"">
                        <img src=""images/causal_sequence/coin_causal/coin_causal_7.png"" class=""exp-image"">
                        <div class=""question-area""></div> 
                    </div>","null","","","","","","",""
"","","","","","html-button-response","124","415116","0.0-124.0","3548ED1EF50548C1830BF8B831807AE5","019ce7b8-10c6-7649-bf94-d472ce7974f6","019ce7a0-0965-7aa7-a556-174d32a8e773","","508","
                    <div class=""stimulus-container"">
                        <img src=""images/causal_sequence/coin_causal/coin_causal_7.png"" class=""exp-image"">
                        <div class=""question-area"">
                            <p style=""font-size: 20px; font-weight: bold; margin: 0;"">Is there a person in this image?</p>
                        </div>
                    </div>","1","main_causal_task","7","coin_causal","","","",""
"","","","","","html-keyboard-response","125","420124","0.0-125.0","3548ED1EF50548C1830BF8B831807AE5","019ce7b8-10c6-7649-bf94-d472ce7974f6","019ce7a0-0965-7aa7-a556-174d32a8e773","","null","
                    <div class=""stimulus-container"">
                        <img src=""images/causal_sequence/coin_causal/coin_causal_8.png"" class=""exp-image"">
                        <div class=""question-area""></div> 
                    </div>","null","","","","","","",""
"","","","","","html-button-response","126","420724","0.0-126.0","3548ED1EF50548C1830BF8B831807AE5","019ce7b8-10c6-7649-bf94-d472ce7974f6","019ce7a0-0965-7aa7-a556-174d32a8e773","","599","
                    <div class=""stimulus-container"">
                        <img src=""images/causal_sequence/coin_causal/coin_causal_8.png"" class=""exp-image"">
                        <div class=""question-area"">
                            <p style=""font-size: 20px; font-weight: bold; margin: 0;"">Is there a person in this image?</p>
                        </div>
                    </div>","0","main_causal_task","8","coin_causal","","","",""
"","","","","","html-keyboard-response","127","425729","0.0-127.0","3548ED1EF50548C1830BF8B831807AE5","019ce7b8-10c6-7649-bf94-d472ce7974f6","019ce7a0-0965-7aa7-a556-174d32a8e773","","null","
                    <div class=""stimulus-container"">
                        <img src=""images/causal_sequence/coin_causal/coin_causal_9.png"" class=""exp-image"">
                        <div class=""question-area""></div> 
                    </div>","null","","","","","","",""
"","","","","","html-button-response","128","426453","0.0-128.0","3548ED1EF50548C1830BF8B831807AE5","019ce7b8-10c6-7649-bf94-d472ce7974f6","019ce7a0-0965-7aa7-a556-174d32a8e773","","721","
                    <div class=""stimulus-container"">
                        <img src=""images/causal_sequence/coin_causal/coin_causal_9.png"" class=""exp-image"">
                        <div class=""question-area"">
                            <p style=""font-size: 20px; font-weight: bold; margin: 0;"">Is there a person in this image?</p>
                        </div>
                    </div>","0","main_causal_task","9","coin_causal","","","",""
"","","","","","instructions","129","428188","0.0-129.0","3548ED1EF50548C1830BF8B831807AE5","019ce7b8-10c6-7649-bf94-d472ce7974f6","019ce7a0-0965-7aa7-a556-174d32a8e773","[{""page_index"":0,""viewing_time"":1733}]","1734","","","","","","","","",""
"","","","","","instructions","130","437559","0.0-130.0","3548ED1EF50548C1830BF8B831807AE5","019ce7b8-10c6-7649-bf94-d472ce7974f6","019ce7a0-0965-7aa7-a556-174d32a8e773","[{""page_index"":0,""viewing_time"":9369}]","9370","","","","","","","","",""
"","","","","","html-keyboard-response","131","438565","0.0-131.0","3548ED1EF50548C1830BF8B831807AE5","019ce7b8-10c6-7649-bf94-d472ce7974f6","019ce7a0-0965-7aa7-a556-174d32a8e773","","null","
        <div class=""stimulus-container"" style=""display: flex; align-items: center; justify-content: center; gap: 30px;"">
            <img src=""images/instructions/movie_1.png"" class=""exp-image"">
            <div style=""font-size: 40px; font-weight: bold; color: green; border: 5px solid green; padding: 25px; border-radius: 15px; background-color: #f0fff0;"">
                WORTH<br>$1
            </div>
        </div>
        <div class=""question-area""></div>","null","","","","","","",""
"","","","","","html-button-response","132","440189","0.0-132.0","3548ED1EF50548C1830BF8B831807AE5","019ce7b8-10c6-7649-bf94-d472ce7974f6","019ce7a0-0965-7aa7-a556-174d32a8e773","","1621","
        <div class=""stimulus-container"" style=""display: flex; align-items: center; justify-content: center; gap: 30px;"">
            <img src=""images/instructions/movie_1.png"" class=""exp-image"">
            <div style=""font-size: 40px; font-weight: bold; color: green; border: 5px solid green; padding: 25px; border-radius: 15px; background-color: #f0fff0;"">
                WORTH<br>$1
            </div>
        </div>
        <div class=""question-area"">
            <p style=""font-size: 20px; font-weight: bold; margin: 0;"">Was there a person in this image?</p>
        </div>","0","","","","","","",""
"","","","","","instructions","133","443405","0.0-133.0","3548ED1EF50548C1830BF8B831807AE5","019ce7b8-10c6-7649-bf94-d472ce7974f6","019ce7a0-0965-7aa7-a556-174d32a8e773","[{""page_index"":0,""viewing_time"":3213}]","3214","","","","","","","","",""
"","","","","","html-keyboard-response","134","453424","0.0-134.0","3548ED1EF50548C1830BF8B831807AE5","019ce7b8-10c6-7649-bf94-d472ce7974f6","019ce7a0-0965-7aa7-a556-174d32a8e773","","null","
            <div class=""stimulus-container"" style=""display: flex; align-items: center; justify-content: center; gap: 30px;"">
                <img src=""images/causal_sequence/museum_causal/museum_causal_6.png"" class=""exp-image"">
                <div style=""font-size: 40px; font-weight: bold; color: green; border: 5px solid green; padding: 25px; border-radius: 15px; background-color: #f0fff0;"">
                    WORTH<br>$1
                </div>
            </div>
            <div class=""question-area""></div>","null","","","","","","",""
"","","","","","html-button-response","135","455334","0.0-135.0","3548ED1EF50548C1830BF8B831807AE5","019ce7b8-10c6-7649-bf94-d472ce7974f6","019ce7a0-0965-7aa7-a556-174d32a8e773","","1907","
            <div class=""stimulus-container"" style=""display: flex; align-items: center; justify-content: center; gap: 30px;"">
                <img src=""images/causal_sequence/museum_causal/museum_causal_6.png"" class=""exp-image"">
                <div style=""font-size: 40px; font-weight: bold; color: green; border: 5px solid green; padding: 25px; border-radius: 15px; background-color: #f0fff0;"">
                    WORTH<br>$1
                </div>
            </div>
            <div class=""question-area"">
                <p style=""font-size: 20px; font-weight: bold; margin: 0;"">Was there a person in this image?</p>
            </div>","0","part2_value_learning","","museum_causal","6","","",""
"","","","","","html-keyboard-response","136","465345","0.0-136.0","3548ED1EF50548C1830BF8B831807AE5","019ce7b8-10c6-7649-bf94-d472ce7974f6","019ce7a0-0965-7aa7-a556-174d32a8e773","","null","
            <div class=""stimulus-container"" style=""display: flex; align-items: center; justify-content: center; gap: 30px;"">
                <img src=""images/causal_sequence/coin_causal/coin_causal_3.png"" class=""exp-image"">
                <div style=""font-size: 40px; font-weight: bold; color: green; border: 5px solid green; padding: 25px; border-radius: 15px; background-color: #f0fff0;"">
                    WORTH<br>$1
                </div>
            </div>
            <div class=""question-area""></div>","null","","","","","","",""
"","","","","","html-button-response","137","466527","0.0-137.0","3548ED1EF50548C1830BF8B831807AE5","019ce7b8-10c6-7649-bf94-d472ce7974f6","019ce7a0-0965-7aa7-a556-174d32a8e773","","1178","
            <div class=""stimulus-container"" style=""display: flex; align-items: center; justify-content: center; gap: 30px;"">
                <img src=""images/causal_sequence/coin_causal/coin_causal_3.png"" class=""exp-image"">
                <div style=""font-size: 40px; font-weight: bold; color: green; border: 5px solid green; padding: 25px; border-radius: 15px; background-color: #f0fff0;"">
                    WORTH<br>$1
                </div>
            </div>
            <div class=""question-area"">
                <p style=""font-size: 20px; font-weight: bold; margin: 0;"">Was there a person in this image?</p>
            </div>","0","part2_value_learning","","coin_causal","3","","",""
"","","","","","html-keyboard-response","138","476531","0.0-138.0","3548ED1EF50548C1830BF8B831807AE5","019ce7b8-10c6-7649-bf94-d472ce7974f6","019ce7a0-0965-7aa7-a556-174d32a8e773","","null","
            <div class=""stimulus-container"" style=""display: flex; align-items: center; justify-content: center; gap: 30px;"">
                <img src=""images/causal_sequence/package_causal/package_causal_4.png"" class=""exp-image"">
                <div style=""font-size: 40px; font-weight: bold; color: green; border: 5px solid green; padding: 25px; border-radius: 15px; background-color: #f0fff0;"">
                    WORTH<br>$1
                </div>
            </div>
            <div class=""question-area""></div>","null","","","","","","",""
"","","","","","html-button-response","139","477303","0.0-139.0","3548ED1EF50548C1830BF8B831807AE5","019ce7b8-10c6-7649-bf94-d472ce7974f6","019ce7a0-0965-7aa7-a556-174d32a8e773","","767","
            <div class=""stimulus-container"" style=""display: flex; align-items: center; justify-content: center; gap: 30px;"">
                <img src=""images/causal_sequence/package_causal/package_causal_4.png"" class=""exp-image"">
                <div style=""font-size: 40px; font-weight: bold; color: green; border: 5px solid green; padding: 25px; border-radius: 15px; background-color: #f0fff0;"">
                    WORTH<br>$1
                </div>
            </div>
            <div class=""question-area"">
                <p style=""font-size: 20px; font-weight: bold; margin: 0;"">Was there a person in this image?</p>
            </div>","1","part2_value_learning","","package_causal","4","","",""
"","","","","","html-keyboard-response","140","487316","0.0-140.0","3548ED1EF50548C1830BF8B831807AE5","019ce7b8-10c6-7649-bf94-d472ce7974f6","019ce7a0-0965-7aa7-a556-174d32a8e773","","null","
            <div class=""stimulus-container"" style=""display: flex; align-items: center; justify-content: center; gap: 30px;"">
                <img src=""images/causal_sequence/dog_causal/dog_causal_4.png"" class=""exp-image"">
                <div style=""font-size: 40px; font-weight: bold; color: green; border: 5px solid green; padding: 25px; border-radius: 15px; background-color: #f0fff0;"">
                    WORTH<br>$1
                </div>
            </div>
            <div class=""question-area""></div>","null","","","","","","",""
"","","","","","html-button-response","141","487977","0.0-141.0","3548ED1EF50548C1830BF8B831807AE5","019ce7b8-10c6-7649-bf94-d472ce7974f6","019ce7a0-0965-7aa7-a556-174d32a8e773","","656","
            <div class=""stimulus-container"" style=""display: flex; align-items: center; justify-content: center; gap: 30px;"">
                <img src=""images/causal_sequence/dog_causal/dog_causal_4.png"" class=""exp-image"">
                <div style=""font-size: 40px; font-weight: bold; color: green; border: 5px solid green; padding: 25px; border-radius: 15px; background-color: #f0fff0;"">
                    WORTH<br>$1
                </div>
            </div>
            <div class=""question-area"">
                <p style=""font-size: 20px; font-weight: bold; margin: 0;"">Was there a person in this image?</p>
            </div>","0","part2_value_learning","","dog_causal","4","","",""
"","","","","","html-keyboard-response","142","497981","0.0-142.0","3548ED1EF50548C1830BF8B831807AE5","019ce7b8-10c6-7649-bf94-d472ce7974f6","019ce7a0-0965-7aa7-a556-174d32a8e773","","null","
            <div class=""stimulus-container"" style=""display: flex; align-items: center; justify-content: center; gap: 30px;"">
                <img src=""images/causal_sequence/the_performance_causal/the_performance_causal_6.png"" class=""exp-image"">
                <div style=""font-size: 40px; font-weight: bold; color: green; border: 5px solid green; padding: 25px; border-radius: 15px; background-color: #f0fff0;"">
                    WORTH<br>$1
                </div>
            </div>
            <div class=""question-area""></div>","null","","","","","","",""
"","","","","","html-button-response","143","498696","0.0-143.0","3548ED1EF50548C1830BF8B831807AE5","019ce7b8-10c6-7649-bf94-d472ce7974f6","019ce7a0-0965-7aa7-a556-174d32a8e773","","710","
            <div class=""stimulus-container"" style=""display: flex; align-items: center; justify-content: center; gap: 30px;"">
                <img src=""images/causal_sequence/the_performance_causal/the_performance_causal_6.png"" class=""exp-image"">
                <div style=""font-size: 40px; font-weight: bold; color: green; border: 5px solid green; padding: 25px; border-radius: 15px; background-color: #f0fff0;"">
                    WORTH<br>$1
                </div>
            </div>
            <div class=""question-area"">
                <p style=""font-size: 20px; font-weight: bold; margin: 0;"">Was there a person in this image?</p>
            </div>","0","part2_value_learning","","the_performance_causal","6","","",""
"","","","","","html-keyboard-response","144","508702","0.0-144.0","3548ED1EF50548C1830BF8B831807AE5","019ce7b8-10c6-7649-bf94-d472ce7974f6","019ce7a0-0965-7aa7-a556-174d32a8e773","","null","
            <div class=""stimulus-container"" style=""display: flex; align-items: center; justify-content: center; gap: 30px;"">
                <img src=""images/causal_sequence/saving_a_cat_causal/saving_a_cat_causal_7.png"" class=""exp-image"">
                <div style=""font-size: 40px; font-weight: bold; color: green; border: 5px solid green; padding: 25px; border-radius: 15px; background-color: #f0fff0;"">
                    WORTH<br>$1
                </div>
            </div>
            <div class=""question-area""></div>","null","","","","","","",""
"","","","","","html-button-response","145","509256","0.0-145.0","3548ED1EF50548C1830BF8B831807AE5","019ce7b8-10c6-7649-bf94-d472ce7974f6","019ce7a0-0965-7aa7-a556-174d32a8e773","","549","
            <div class=""stimulus-container"" style=""display: flex; align-items: center; justify-content: center; gap: 30px;"">
                <img src=""images/causal_sequence/saving_a_cat_causal/saving_a_cat_causal_7.png"" class=""exp-image"">
                <div style=""font-size: 40px; font-weight: bold; color: green; border: 5px solid green; padding: 25px; border-radius: 15px; background-color: #f0fff0;"">
                    WORTH<br>$1
                </div>
            </div>
            <div class=""question-area"">
                <p style=""font-size: 20px; font-weight: bold; margin: 0;"">Was there a person in this image?</p>
            </div>","0","part2_value_learning","","saving_a_cat_causal","7","","",""
"","","","","","instructions","146","510818","0.0-146.0","3548ED1EF50548C1830BF8B831807AE5","019ce7b8-10c6-7649-bf94-d472ce7974f6","019ce7a0-0965-7aa7-a556-174d32a8e773","[{""page_index"":0,""viewing_time"":1559}]","1561","","","","","","","","",""
"","","","","","instructions","147","513288","0.0-147.0","3548ED1EF50548C1830BF8B831807AE5","019ce7b8-10c6-7649-bf94-d472ce7974f6","019ce7a0-0965-7aa7-a556-174d32a8e773","[{""page_index"":0,""viewing_time"":2468}]","2469","","","","","","","","",""
"","","","","","html-keyboard-response","148","523295","0.0-148.0-0.0","3548ED1EF50548C1830BF8B831807AE5","019ce7b8-10c6-7649-bf94-d472ce7974f6","019ce7a0-0965-7aa7-a556-174d32a8e773","","null","
                        <div style=""font-family: Arial; margin-bottom: 20px;""><h3>Which image is more valuable?</h3></div>
                        <div class=""stimulus-container"" style=""display: flex; width: 1100px; justify-content: center; gap: 50px;"">
                            <img src=""images/causal_sequence/coin_causal/coin_causal_5.png"" class=""exp-image"">
                            <img src=""images/causal_sequence/coin_causal/coin_causal_1.png"" class=""exp-image"">
                        </div>","null","","","","","","",""
"","","","","","html-button-response","149","524794","0.0-148.0-1.0","3548ED1EF50548C1830BF8B831807AE5","019ce7b8-10c6-7649-bf94-d472ce7974f6","019ce7a0-0965-7aa7-a556-174d32a8e773","","1490","
                        <div style=""font-family: Arial; margin-bottom: 20px;""><h3>Which image is more valuable?</h3></div>
                        <div class=""stimulus-container"" style=""display: flex; width: 1100px; justify-content: center; gap: 50px;"">
                            <img src=""images/causal_sequence/coin_causal/coin_causal_5.png"" class=""exp-image"">
                            <img src=""images/causal_sequence/coin_causal/coin_causal_1.png"" class=""exp-image"">
                        </div>","0","part3_final_choice","","coin_causal","","3","5","2"
"","","","","","html-keyboard-response","150","534802","0.0-149.0-0.0","3548ED1EF50548C1830BF8B831807AE5","019ce7b8-10c6-7649-bf94-d472ce7974f6","019ce7a0-0965-7aa7-a556-174d32a8e773","","null","
                        <div style=""font-family: Arial; margin-bottom: 20px;""><h3>Which image is more valuable?</h3></div>
                        <div class=""stimulus-container"" style=""display: flex; width: 1100px; justify-content: center; gap: 50px;"">
                            <img src=""images/causal_sequence/museum_causal/museum_causal_8.png"" class=""exp-image"">
                            <img src=""images/causal_sequence/museum_causal/museum_causal_4.png"" class=""exp-image"">
                        </div>","null","","","","","","",""
"","","","","","html-button-response","151","535616","0.0-149.0-1.0","3548ED1EF50548C1830BF8B831807AE5","019ce7b8-10c6-7649-bf94-d472ce7974f6","019ce7a0-0965-7aa7-a556-174d32a8e773","","811","
                        <div style=""font-family: Arial; margin-bottom: 20px;""><h3>Which image is more valuable?</h3></div>
                        <div class=""stimulus-container"" style=""display: flex; width: 1100px; justify-content: center; gap: 50px;"">
                            <img src=""images/causal_sequence/museum_causal/museum_causal_8.png"" class=""exp-image"">
                            <img src=""images/causal_sequence/museum_causal/museum_causal_4.png"" class=""exp-image"">
                        </div>","0","part3_final_choice","","museum_causal","","6","8","2"
"","","","","","html-keyboard-response","152","545622","0.0-150.0-0.0","3548ED1EF50548C1830BF8B831807AE5","019ce7b8-10c6-7649-bf94-d472ce7974f6","019ce7a0-0965-7aa7-a556-174d32a8e773","","null","
                        <div style=""font-family: Arial; margin-bottom: 20px;""><h3>Which image is more valuable?</h3></div>
                        <div class=""stimulus-container"" style=""display: flex; width: 1100px; justify-content: center; gap: 50px;"">
                            <img src=""images/causal_sequence/package_causal/package_causal_2.png"" class=""exp-image"">
                            <img src=""images/causal_sequence/package_causal/package_causal_6.png"" class=""exp-image"">
                        </div>","null","","","","","","",""
"","","","","","html-button-response","153","546208","0.0-150.0-1.0","3548ED1EF50548C1830BF8B831807AE5","019ce7b8-10c6-7649-bf94-d472ce7974f6","019ce7a0-0965-7aa7-a556-174d32a8e773","","582","
                        <div style=""font-family: Arial; margin-bottom: 20px;""><h3>Which image is more valuable?</h3></div>
                        <div class=""stimulus-container"" style=""display: flex; width: 1100px; justify-content: center; gap: 50px;"">
                            <img src=""images/causal_sequence/package_causal/package_causal_2.png"" class=""exp-image"">
                            <img src=""images/causal_sequence/package_causal/package_causal_6.png"" class=""exp-image"">
                        </div>","1","part3_final_choice","","package_causal","","4","6","2"
"","","","","","html-keyboard-response","154","556222","0.0-151.0-0.0","3548ED1EF50548C1830BF8B831807AE5","019ce7b8-10c6-7649-bf94-d472ce7974f6","019ce7a0-0965-7aa7-a556-174d32a8e773","","null","
                        <div style=""font-family: Arial; margin-bottom: 20px;""><h3>Which image is more valuable?</h3></div>
                        <div class=""stimulus-container"" style=""display: flex; width: 1100px; justify-content: center; gap: 50px;"">
                            <img src=""images/causal_sequence/saving_a_cat_causal/saving_a_cat_causal_9.png"" class=""exp-image"">
                            <img src=""images/causal_sequence/saving_a_cat_causal/saving_a_cat_causal_5.png"" class=""exp-image"">
                        </div>","null","","","","","","",""
"","","","","","html-button-response","155","557225","0.0-151.0-1.0","3548ED1EF50548C1830BF8B831807AE5","019ce7b8-10c6-7649-bf94-d472ce7974f6","019ce7a0-0965-7aa7-a556-174d32a8e773","","1000","
                        <div style=""font-family: Arial; margin-bottom: 20px;""><h3>Which image is more valuable?</h3></div>
                        <div class=""stimulus-container"" style=""display: flex; width: 1100px; justify-content: center; gap: 50px;"">
                            <img src=""images/causal_sequence/saving_a_cat_causal/saving_a_cat_causal_9.png"" class=""exp-image"">
                            <img src=""images/causal_sequence/saving_a_cat_causal/saving_a_cat_causal_5.png"" class=""exp-image"">
                        </div>","0","part3_final_choice","","saving_a_cat_causal","","7","9","2"
"","","","","","html-keyboard-response","156","567241","0.0-152.0-0.0","3548ED1EF50548C1830BF8B831807AE5","019ce7b8-10c6-7649-bf94-d472ce7974f6","019ce7a0-0965-7aa7-a556-174d32a8e773","","null","
                        <div style=""font-family: Arial; margin-bottom: 20px;""><h3>Which image is more valuable?</h3></div>
                        <div class=""stimulus-container"" style=""display: flex; width: 1100px; justify-content: center; gap: 50px;"">
                            <img src=""images/causal_sequence/the_performance_causal/the_performance_causal_4.png"" class=""exp-image"">
                            <img src=""images/causal_sequence/the_performance_causal/the_performance_causal_8.png"" class=""exp-image"">
                        </div>","null","","","","","","",""
"","","","","","html-button-response","157","567993","0.0-152.0-1.0","3548ED1EF50548C1830BF8B831807AE5","019ce7b8-10c6-7649-bf94-d472ce7974f6","019ce7a0-0965-7aa7-a556-174d32a8e773","","750","
                        <div style=""font-family: Arial; margin-bottom: 20px;""><h3>Which image is more valuable?</h3></div>
                        <div class=""stimulus-container"" style=""display: flex; width: 1100px; justify-content: center; gap: 50px;"">
                            <img src=""images/causal_sequence/the_performance_causal/the_performance_causal_4.png"" class=""exp-image"">
                            <img src=""images/causal_sequence/the_performance_causal/the_performance_causal_8.png"" class=""exp-image"">
                        </div>","1","part3_final_choice","","the_performance_causal","","6","8","2"
"","","","","","html-keyboard-response","158","578000","0.0-153.0-0.0","3548ED1EF50548C1830BF8B831807AE5","019ce7b8-10c6-7649-bf94-d472ce7974f6","019ce7a0-0965-7aa7-a556-174d32a8e773","","null","
                        <div style=""font-family: Arial; margin-bottom: 20px;""><h3>Which image is more valuable?</h3></div>
                        <div class=""stimulus-container"" style=""display: flex; width: 1100px; justify-content: center; gap: 50px;"">
                            <img src=""images/causal_sequence/dog_causal/dog_causal_2.png"" class=""exp-image"">
                            <img src=""images/causal_sequence/dog_causal/dog_causal_6.png"" class=""exp-image"">
                        </div>","null","","","","","","",""
"","","","","","html-button-response","159","578665","0.0-153.0-1.0","3548ED1EF50548C1830BF8B831807AE5","019ce7b8-10c6-7649-bf94-d472ce7974f6","019ce7a0-0965-7aa7-a556-174d32a8e773","","663","
                        <div style=""font-family: Arial; margin-bottom: 20px;""><h3>Which image is more valuable?</h3></div>
                        <div class=""stimulus-container"" style=""display: flex; width: 1100px; justify-content: center; gap: 50px;"">
                            <img src=""images/causal_sequence/dog_causal/dog_causal_2.png"" class=""exp-image"">
                            <img src=""images/causal_sequence/dog_causal/dog_causal_6.png"" class=""exp-image"">
                        </div>","0","part3_final_choice","","dog_causal","","4","2","-2"
"","","","","","survey-text","160","628011","0.0-154.0","3548ED1EF50548C1830BF8B831807AE5","019ce7b8-10c6-7649-bf94-d472ce7974f6","019ce7a0-0965-7aa7-a556-174d32a8e773","","49320","","{""gender"":""Male"",""age"":""32"",""decision_strategy"":""I just went with which image was more important to the story"",""consistency_check"":""Yes I used the same logic for all pairs""}","demographics_and_strategy","","","","","",""
"","","","","","instructions","161","633323","0.0-155.0","3548ED1EF50548C1830BF8B831807AE5","019ce7b8-10c6-7649-bf94-d472ce7974f6","019ce7a0-0965-7aa7-a556-174d32a8e773","[{""page_index"":0,""viewing_time"":5310}]","5311","","","","","","","","",""
