"success","timeout","failed_images","failed_audio","failed_video","trial_type","trial_index","time_elapsed","internal_node_id","subject_id","study_id","session_id","view_history","rt","stimulus","response","task","image_index","folder","valuable_image_index","reward_type","valuable_X","chosen_image_index","distance_from_X"
"false","false","[]","[]","[]","preload","0","6714","0.0-0.0","580ADCFD2E564B2B97BDD21E0910B92B","019ce877-098a-7951-bf51-f5b5e1a5255a","019ce875-66c2-7f0b-b5e8-086c75889f84","","","","","","","","","","","",""
"","","","","","instructions","1","12759","0.0-1.0","580ADCFD2E564B2B97BDD21E0910B92B","019ce877-098a-7951-bf51-f5b5e1a5255a","019ce875-66c2-7f0b-b5e8-086c75889f84","[{""page_index"":0,""viewing_time"":6044}]","6045","","","","","","","","","",""
"","","","","","instructions","2","15394","0.0-2.0","580ADCFD2E564B2B97BDD21E0910B92B","019ce877-098a-7951-bf51-f5b5e1a5255a","019ce875-66c2-7f0b-b5e8-086c75889f84","[{""page_index"":0,""viewing_time"":2634}]","2635","","","","","","","","","",""
"true","","","","","fullscreen","3","19437","0.0-3.0","580ADCFD2E564B2B97BDD21E0910B92B","019ce877-098a-7951-bf51-f5b5e1a5255a","019ce875-66c2-7f0b-b5e8-086c75889f84","","3040","","","","","","","","","",""
"","","","","","instructions","4","29066","0.0-4.0","580ADCFD2E564B2B97BDD21E0910B92B","019ce877-098a-7951-bf51-f5b5e1a5255a","019ce875-66c2-7f0b-b5e8-086c75889f84","[{""page_index"":0,""viewing_time"":9629}]","9629","","","","","","","","","",""
"","","","","","instructions","5","42052","0.0-5.0","580ADCFD2E564B2B97BDD21E0910B92B","019ce877-098a-7951-bf51-f5b5e1a5255a","019ce875-66c2-7f0b-b5e8-086c75889f84","[{""page_index"":0,""viewing_time"":12985}]","12986","","","","","","","","","",""
"","","","","","html-keyboard-response","6","46054","0.0-6.0","580ADCFD2E564B2B97BDD21E0910B92B","019ce877-098a-7951-bf51-f5b5e1a5255a","019ce875-66c2-7f0b-b5e8-086c75889f84","","null","
                <div class=""stimulus-container"">
                    <img src=""images/instructions/movie_1.png"" class=""exp-image"">
                    <div class=""question-area""></div> 
                </div>","null","","","","","","","",""
"","","","","","html-button-response","7","47464","0.0-7.0","580ADCFD2E564B2B97BDD21E0910B92B","019ce877-098a-7951-bf51-f5b5e1a5255a","019ce875-66c2-7f0b-b5e8-086c75889f84","","1408","
                <div class=""stimulus-container"">
                    <img src=""images/instructions/movie_1.png"" class=""exp-image"">
                    <div class=""question-area"">
                        <p style=""font-size: 20px; font-weight: bold; margin: 0;"">Was there a person in this image?</p>
                    </div>
                </div>","0","example_question","1","","","","","",""
"","","","","","html-keyboard-response","8","51466","0.0-8.0","580ADCFD2E564B2B97BDD21E0910B92B","019ce877-098a-7951-bf51-f5b5e1a5255a","019ce875-66c2-7f0b-b5e8-086c75889f84","","null","
                <div class=""stimulus-container"">
                    <img src=""images/instructions/movie_2.png"" class=""exp-image"">
                    <div class=""question-area""></div> 
                </div>","null","","","","","","","",""
"","","","","","html-button-response","9","52278","0.0-9.0","580ADCFD2E564B2B97BDD21E0910B92B","019ce877-098a-7951-bf51-f5b5e1a5255a","019ce875-66c2-7f0b-b5e8-086c75889f84","","811","
                <div class=""stimulus-container"">
                    <img src=""images/instructions/movie_2.png"" class=""exp-image"">
                    <div class=""question-area"">
                        <p style=""font-size: 20px; font-weight: bold; margin: 0;"">Was there a person in this image?</p>
                    </div>
                </div>","0","example_question","2","","","","","",""
"","","","","","html-keyboard-response","10","56280","0.0-10.0","580ADCFD2E564B2B97BDD21E0910B92B","019ce877-098a-7951-bf51-f5b5e1a5255a","019ce875-66c2-7f0b-b5e8-086c75889f84","","null","
                <div class=""stimulus-container"">
                    <img src=""images/instructions/movie_3.png"" class=""exp-image"">
                    <div class=""question-area""></div> 
                </div>","null","","","","","","","",""
"","","","","","html-button-response","11","57612","0.0-11.0","580ADCFD2E564B2B97BDD21E0910B92B","019ce877-098a-7951-bf51-f5b5e1a5255a","019ce875-66c2-7f0b-b5e8-086c75889f84","","1331","
                <div class=""stimulus-container"">
                    <img src=""images/instructions/movie_3.png"" class=""exp-image"">
                    <div class=""question-area"">
                        <p style=""font-size: 20px; font-weight: bold; margin: 0;"">Was there a person in this image?</p>
                    </div>
                </div>","0","example_question","3","","","","","",""
"","","","","","html-keyboard-response","12","61614","0.0-12.0","580ADCFD2E564B2B97BDD21E0910B92B","019ce877-098a-7951-bf51-f5b5e1a5255a","019ce875-66c2-7f0b-b5e8-086c75889f84","","null","
                <div class=""stimulus-container"">
                    <img src=""images/instructions/movie_4.png"" class=""exp-image"">
                    <div class=""question-area""></div> 
                </div>","null","","","","","","","",""
"","","","","","html-button-response","13","62217","0.0-13.0","580ADCFD2E564B2B97BDD21E0910B92B","019ce877-098a-7951-bf51-f5b5e1a5255a","019ce875-66c2-7f0b-b5e8-086c75889f84","","602","
                <div class=""stimulus-container"">
                    <img src=""images/instructions/movie_4.png"" class=""exp-image"">
                    <div class=""question-area"">
                        <p style=""font-size: 20px; font-weight: bold; margin: 0;"">Was there a person in this image?</p>
                    </div>
                </div>","0","example_question","4","","","","","",""
"","","","","","instructions","14","64071","0.0-14.0","580ADCFD2E564B2B97BDD21E0910B92B","019ce877-098a-7951-bf51-f5b5e1a5255a","019ce875-66c2-7f0b-b5e8-086c75889f84","[{""page_index"":0,""viewing_time"":1853}]","1853","","","","","","","","","",""
"","","","","","html-keyboard-response","15","65073","0.0-15.0","580ADCFD2E564B2B97BDD21E0910B92B","019ce877-098a-7951-bf51-f5b5e1a5255a","019ce875-66c2-7f0b-b5e8-086c75889f84","","null","<div style=""background-color: gray; width: 100vw; height: 100vh;""></div>","null","","","","","","","",""
"","","","","","html-keyboard-response","16","70074","0.0-16.0","580ADCFD2E564B2B97BDD21E0910B92B","019ce877-098a-7951-bf51-f5b5e1a5255a","019ce875-66c2-7f0b-b5e8-086c75889f84","","null","
                    <div class=""stimulus-container"">
                        <img src=""images/causal_sequence/museum_causal/museum_causal_1.png"" class=""exp-image"">
                        <div class=""question-area""></div> 
                    </div>","null","","","","","","","",""
"","","","","","html-button-response","17","71444","0.0-17.0","580ADCFD2E564B2B97BDD21E0910B92B","019ce877-098a-7951-bf51-f5b5e1a5255a","019ce875-66c2-7f0b-b5e8-086c75889f84","","1369","
                    <div class=""stimulus-container"">
                        <img src=""images/causal_sequence/museum_causal/museum_causal_1.png"" class=""exp-image"">
                        <div class=""question-area"">
                            <p style=""font-size: 20px; font-weight: bold; margin: 0;"">Is there a person in this image?</p>
                        </div>
                    </div>","0","main_causal_task","1","museum_causal","","","","",""
"","","","","","html-keyboard-response","18","76446","0.0-18.0","580ADCFD2E564B2B97BDD21E0910B92B","019ce877-098a-7951-bf51-f5b5e1a5255a","019ce875-66c2-7f0b-b5e8-086c75889f84","","null","
                    <div class=""stimulus-container"">
                        <img src=""images/causal_sequence/museum_causal/museum_causal_2.png"" class=""exp-image"">
                        <div class=""question-area""></div> 
                    </div>","null","","","","","","","",""
"","","","","","html-button-response","19","77486","0.0-19.0","580ADCFD2E564B2B97BDD21E0910B92B","019ce877-098a-7951-bf51-f5b5e1a5255a","019ce875-66c2-7f0b-b5e8-086c75889f84","","1039","
                    <div class=""stimulus-container"">
                        <img src=""images/causal_sequence/museum_causal/museum_causal_2.png"" class=""exp-image"">
                        <div class=""question-area"">
                            <p style=""font-size: 20px; font-weight: bold; margin: 0;"">Is there a person in this image?</p>
                        </div>
                    </div>","1","main_causal_task","2","museum_causal","","","","",""
"","","","","","html-keyboard-response","20","82487","0.0-20.0","580ADCFD2E564B2B97BDD21E0910B92B","019ce877-098a-7951-bf51-f5b5e1a5255a","019ce875-66c2-7f0b-b5e8-086c75889f84","","null","
                    <div class=""stimulus-container"">
                        <img src=""images/causal_sequence/museum_causal/museum_causal_3.png"" class=""exp-image"">
                        <div class=""question-area""></div> 
                    </div>","null","","","","","","","",""
"","","","","","html-button-response","21","83526","0.0-21.0","580ADCFD2E564B2B97BDD21E0910B92B","019ce877-098a-7951-bf51-f5b5e1a5255a","019ce875-66c2-7f0b-b5e8-086c75889f84","","1037","
                    <div class=""stimulus-container"">
                        <img src=""images/causal_sequence/museum_causal/museum_causal_3.png"" class=""exp-image"">
                        <div class=""question-area"">
                            <p style=""font-size: 20px; font-weight: bold; margin: 0;"">Is there a person in this image?</p>
                        </div>
                    </div>","0","main_causal_task","3","museum_causal","","","","",""
"","","","","","html-keyboard-response","22","88528","0.0-22.0","580ADCFD2E564B2B97BDD21E0910B92B","019ce877-098a-7951-bf51-f5b5e1a5255a","019ce875-66c2-7f0b-b5e8-086c75889f84","","null","
                    <div class=""stimulus-container"">
                        <img src=""images/causal_sequence/museum_causal/museum_causal_4.png"" class=""exp-image"">
                        <div class=""question-area""></div> 
                    </div>","null","","","","","","","",""
"","","","","","html-button-response","23","89165","0.0-23.0","580ADCFD2E564B2B97BDD21E0910B92B","019ce877-098a-7951-bf51-f5b5e1a5255a","019ce875-66c2-7f0b-b5e8-086c75889f84","","636","
                    <div class=""stimulus-container"">
                        <img src=""images/causal_sequence/museum_causal/museum_causal_4.png"" class=""exp-image"">
                        <div class=""question-area"">
                            <p style=""font-size: 20px; font-weight: bold; margin: 0;"">Is there a person in this image?</p>
                        </div>
                    </div>","1","main_causal_task","4","museum_causal","","","","",""
"","","","","","html-keyboard-response","24","94167","0.0-24.0","580ADCFD2E564B2B97BDD21E0910B92B","019ce877-098a-7951-bf51-f5b5e1a5255a","019ce875-66c2-7f0b-b5e8-086c75889f84","","null","
                    <div class=""stimulus-container"">
                        <img src=""images/causal_sequence/museum_causal/museum_causal_5.png"" class=""exp-image"">
                        <div class=""question-area""></div> 
                    </div>","null","","","","","","","",""
"","","","","","html-button-response","25","95001","0.0-25.0","580ADCFD2E564B2B97BDD21E0910B92B","019ce877-098a-7951-bf51-f5b5e1a5255a","019ce875-66c2-7f0b-b5e8-086c75889f84","","833","
                    <div class=""stimulus-container"">
                        <img src=""images/causal_sequence/museum_causal/museum_causal_5.png"" class=""exp-image"">
                        <div class=""question-area"">
                            <p style=""font-size: 20px; font-weight: bold; margin: 0;"">Is there a person in this image?</p>
                        </div>
                    </div>","0","main_causal_task","5","museum_causal","","","","",""
"","","","","","html-keyboard-response","26","100003","0.0-26.0","580ADCFD2E564B2B97BDD21E0910B92B","019ce877-098a-7951-bf51-f5b5e1a5255a","019ce875-66c2-7f0b-b5e8-086c75889f84","","null","
                    <div class=""stimulus-container"">
                        <img src=""images/causal_sequence/museum_causal/museum_causal_6.png"" class=""exp-image"">
                        <div class=""question-area""></div> 
                    </div>","null","","","","","","","",""
"","","","","","html-button-response","27","101041","0.0-27.0","580ADCFD2E564B2B97BDD21E0910B92B","019ce877-098a-7951-bf51-f5b5e1a5255a","019ce875-66c2-7f0b-b5e8-086c75889f84","","1037","
                    <div class=""stimulus-container"">
                        <img src=""images/causal_sequence/museum_causal/museum_causal_6.png"" class=""exp-image"">
                        <div class=""question-area"">
                            <p style=""font-size: 20px; font-weight: bold; margin: 0;"">Is there a person in this image?</p>
                        </div>
                    </div>","0","main_causal_task","6","museum_causal","","","","",""
"","","","","","html-keyboard-response","28","106043","0.0-28.0","580ADCFD2E564B2B97BDD21E0910B92B","019ce877-098a-7951-bf51-f5b5e1a5255a","019ce875-66c2-7f0b-b5e8-086c75889f84","","null","
                    <div class=""stimulus-container"">
                        <img src=""images/causal_sequence/museum_causal/museum_causal_7.png"" class=""exp-image"">
                        <div class=""question-area""></div> 
                    </div>","null","","","","","","","",""
"","","","","","html-button-response","29","107326","0.0-29.0","580ADCFD2E564B2B97BDD21E0910B92B","019ce877-098a-7951-bf51-f5b5e1a5255a","019ce875-66c2-7f0b-b5e8-086c75889f84","","1282","
                    <div class=""stimulus-container"">
                        <img src=""images/causal_sequence/museum_causal/museum_causal_7.png"" class=""exp-image"">
                        <div class=""question-area"">
                            <p style=""font-size: 20px; font-weight: bold; margin: 0;"">Is there a person in this image?</p>
                        </div>
                    </div>","1","main_causal_task","7","museum_causal","","","","",""
"","","","","","html-keyboard-response","30","112328","0.0-30.0","580ADCFD2E564B2B97BDD21E0910B92B","019ce877-098a-7951-bf51-f5b5e1a5255a","019ce875-66c2-7f0b-b5e8-086c75889f84","","null","
                    <div class=""stimulus-container"">
                        <img src=""images/causal_sequence/museum_causal/museum_causal_8.png"" class=""exp-image"">
                        <div class=""question-area""></div> 
                    </div>","null","","","","","","","",""
"","","","","","html-button-response","31","113341","0.0-31.0","580ADCFD2E564B2B97BDD21E0910B92B","019ce877-098a-7951-bf51-f5b5e1a5255a","019ce875-66c2-7f0b-b5e8-086c75889f84","","1011","
                    <div class=""stimulus-container"">
                        <img src=""images/causal_sequence/museum_causal/museum_causal_8.png"" class=""exp-image"">
                        <div class=""question-area"">
                            <p style=""font-size: 20px; font-weight: bold; margin: 0;"">Is there a person in this image?</p>
                        </div>
                    </div>","0","main_causal_task","8","museum_causal","","","","",""
"","","","","","html-keyboard-response","32","118343","0.0-32.0","580ADCFD2E564B2B97BDD21E0910B92B","019ce877-098a-7951-bf51-f5b5e1a5255a","019ce875-66c2-7f0b-b5e8-086c75889f84","","null","
                    <div class=""stimulus-container"">
                        <img src=""images/causal_sequence/museum_causal/museum_causal_9.png"" class=""exp-image"">
                        <div class=""question-area""></div> 
                    </div>","null","","","","","","","",""
"","","","","","html-button-response","33","118972","0.0-33.0","580ADCFD2E564B2B97BDD21E0910B92B","019ce877-098a-7951-bf51-f5b5e1a5255a","019ce875-66c2-7f0b-b5e8-086c75889f84","","628","
                    <div class=""stimulus-container"">
                        <img src=""images/causal_sequence/museum_causal/museum_causal_9.png"" class=""exp-image"">
                        <div class=""question-area"">
                            <p style=""font-size: 20px; font-weight: bold; margin: 0;"">Is there a person in this image?</p>
                        </div>
                    </div>","1","main_causal_task","9","museum_causal","","","","",""
"","","","","","html-keyboard-response","34","119974","0.0-34.0","580ADCFD2E564B2B97BDD21E0910B92B","019ce877-098a-7951-bf51-f5b5e1a5255a","019ce875-66c2-7f0b-b5e8-086c75889f84","","null","<div style=""background-color: gray; width: 100vw; height: 100vh;""></div>","null","","","","","","","",""
"","","","","","html-keyboard-response","35","124977","0.0-35.0","580ADCFD2E564B2B97BDD21E0910B92B","019ce877-098a-7951-bf51-f5b5e1a5255a","019ce875-66c2-7f0b-b5e8-086c75889f84","","null","
                    <div class=""stimulus-container"">
                        <img src=""images/causal_sequence/package_causal/package_causal_1.png"" class=""exp-image"">
                        <div class=""question-area""></div> 
                    </div>","null","","","","","","","",""
"","","","","","html-button-response","36","125683","0.0-36.0","580ADCFD2E564B2B97BDD21E0910B92B","019ce877-098a-7951-bf51-f5b5e1a5255a","019ce875-66c2-7f0b-b5e8-086c75889f84","","705","
                    <div class=""stimulus-container"">
                        <img src=""images/causal_sequence/package_causal/package_causal_1.png"" class=""exp-image"">
                        <div class=""question-area"">
                            <p style=""font-size: 20px; font-weight: bold; margin: 0;"">Is there a person in this image?</p>
                        </div>
                    </div>","0","main_causal_task","1","package_causal","","","","",""
"","","","","","html-keyboard-response","37","130686","0.0-37.0","580ADCFD2E564B2B97BDD21E0910B92B","019ce877-098a-7951-bf51-f5b5e1a5255a","019ce875-66c2-7f0b-b5e8-086c75889f84","","null","
                    <div class=""stimulus-container"">
                        <img src=""images/causal_sequence/package_causal/package_causal_2.png"" class=""exp-image"">
                        <div class=""question-area""></div> 
                    </div>","null","","","","","","","",""
"","","","","","html-button-response","38","131984","0.0-38.0","580ADCFD2E564B2B97BDD21E0910B92B","019ce877-098a-7951-bf51-f5b5e1a5255a","019ce875-66c2-7f0b-b5e8-086c75889f84","","1297","
                    <div class=""stimulus-container"">
                        <img src=""images/causal_sequence/package_causal/package_causal_2.png"" class=""exp-image"">
                        <div class=""question-area"">
                            <p style=""font-size: 20px; font-weight: bold; margin: 0;"">Is there a person in this image?</p>
                        </div>
                    </div>","0","main_causal_task","2","package_causal","","","","",""
"","","","","","html-keyboard-response","39","136987","0.0-39.0","580ADCFD2E564B2B97BDD21E0910B92B","019ce877-098a-7951-bf51-f5b5e1a5255a","019ce875-66c2-7f0b-b5e8-086c75889f84","","null","
                    <div class=""stimulus-container"">
                        <img src=""images/causal_sequence/package_causal/package_causal_3.png"" class=""exp-image"">
                        <div class=""question-area""></div> 
                    </div>","null","","","","","","","",""
"","","","","","html-button-response","40","137548","0.0-40.0","580ADCFD2E564B2B97BDD21E0910B92B","019ce877-098a-7951-bf51-f5b5e1a5255a","019ce875-66c2-7f0b-b5e8-086c75889f84","","561","
                    <div class=""stimulus-container"">
                        <img src=""images/causal_sequence/package_causal/package_causal_3.png"" class=""exp-image"">
                        <div class=""question-area"">
                            <p style=""font-size: 20px; font-weight: bold; margin: 0;"">Is there a person in this image?</p>
                        </div>
                    </div>","0","main_causal_task","3","package_causal","","","","",""
"","","","","","html-keyboard-response","41","142550","0.0-41.0","580ADCFD2E564B2B97BDD21E0910B92B","019ce877-098a-7951-bf51-f5b5e1a5255a","019ce875-66c2-7f0b-b5e8-086c75889f84","","null","
                    <div class=""stimulus-container"">
                        <img src=""images/causal_sequence/package_causal/package_causal_4.png"" class=""exp-image"">
                        <div class=""question-area""></div> 
                    </div>","null","","","","","","","",""
"","","","","","html-button-response","42","143513","0.0-42.0","580ADCFD2E564B2B97BDD21E0910B92B","019ce877-098a-7951-bf51-f5b5e1a5255a","019ce875-66c2-7f0b-b5e8-086c75889f84","","962","
                    <div class=""stimulus-container"">
                        <img src=""images/causal_sequence/package_causal/package_causal_4.png"" class=""exp-image"">
                        <div class=""question-area"">
                            <p style=""font-size: 20px; font-weight: bold; margin: 0;"">Is there a person in this image?</p>
                        </div>
                    </div>","1","main_causal_task","4","package_causal","","","","",""
"","","","","","html-keyboard-response","43","148515","0.0-43.0","580ADCFD2E564B2B97BDD21E0910B92B","019ce877-098a-7951-bf51-f5b5e1a5255a","019ce875-66c2-7f0b-b5e8-086c75889f84","","null","
                    <div class=""stimulus-container"">
                        <img src=""images/causal_sequence/package_causal/package_causal_5.png"" class=""exp-image"">
                        <div class=""question-area""></div> 
                    </div>","null","","","","","","","",""
"","","","","","html-button-response","44","149611","0.0-44.0","580ADCFD2E564B2B97BDD21E0910B92B","019ce877-098a-7951-bf51-f5b5e1a5255a","019ce875-66c2-7f0b-b5e8-086c75889f84","","1095","
                    <div class=""stimulus-container"">
                        <img src=""images/causal_sequence/package_causal/package_causal_5.png"" class=""exp-image"">
                        <div class=""question-area"">
                            <p style=""font-size: 20px; font-weight: bold; margin: 0;"">Is there a person in this image?</p>
                        </div>
                    </div>","0","main_causal_task","5","package_causal","","","","",""
"","","","","","html-keyboard-response","45","154612","0.0-45.0","580ADCFD2E564B2B97BDD21E0910B92B","019ce877-098a-7951-bf51-f5b5e1a5255a","019ce875-66c2-7f0b-b5e8-086c75889f84","","null","
                    <div class=""stimulus-container"">
                        <img src=""images/causal_sequence/package_causal/package_causal_6.png"" class=""exp-image"">
                        <div class=""question-area""></div> 
                    </div>","null","","","","","","","",""
"","","","","","html-button-response","46","155983","0.0-46.0","580ADCFD2E564B2B97BDD21E0910B92B","019ce877-098a-7951-bf51-f5b5e1a5255a","019ce875-66c2-7f0b-b5e8-086c75889f84","","1370","
                    <div class=""stimulus-container"">
                        <img src=""images/causal_sequence/package_causal/package_causal_6.png"" class=""exp-image"">
                        <div class=""question-area"">
                            <p style=""font-size: 20px; font-weight: bold; margin: 0;"">Is there a person in this image?</p>
                        </div>
                    </div>","0","main_causal_task","6","package_causal","","","","",""
"","","","","","html-keyboard-response","47","160985","0.0-47.0","580ADCFD2E564B2B97BDD21E0910B92B","019ce877-098a-7951-bf51-f5b5e1a5255a","019ce875-66c2-7f0b-b5e8-086c75889f84","","null","
                    <div class=""stimulus-container"">
                        <img src=""images/causal_sequence/package_causal/package_causal_7.png"" class=""exp-image"">
                        <div class=""question-area""></div> 
                    </div>","null","","","","","","","",""
"","","","","","html-button-response","48","162215","0.0-48.0","580ADCFD2E564B2B97BDD21E0910B92B","019ce877-098a-7951-bf51-f5b5e1a5255a","019ce875-66c2-7f0b-b5e8-086c75889f84","","1229","
                    <div class=""stimulus-container"">
                        <img src=""images/causal_sequence/package_causal/package_causal_7.png"" class=""exp-image"">
                        <div class=""question-area"">
                            <p style=""font-size: 20px; font-weight: bold; margin: 0;"">Is there a person in this image?</p>
                        </div>
                    </div>","0","main_causal_task","7","package_causal","","","","",""
"","","","","","html-keyboard-response","49","167217","0.0-49.0","580ADCFD2E564B2B97BDD21E0910B92B","019ce877-098a-7951-bf51-f5b5e1a5255a","019ce875-66c2-7f0b-b5e8-086c75889f84","","null","
                    <div class=""stimulus-container"">
                        <img src=""images/causal_sequence/package_causal/package_causal_8.png"" class=""exp-image"">
                        <div class=""question-area""></div> 
                    </div>","null","","","","","","","",""
"","","","","","html-button-response","50","168480","0.0-50.0","580ADCFD2E564B2B97BDD21E0910B92B","019ce877-098a-7951-bf51-f5b5e1a5255a","019ce875-66c2-7f0b-b5e8-086c75889f84","","1263","
                    <div class=""stimulus-container"">
                        <img src=""images/causal_sequence/package_causal/package_causal_8.png"" class=""exp-image"">
                        <div class=""question-area"">
                            <p style=""font-size: 20px; font-weight: bold; margin: 0;"">Is there a person in this image?</p>
                        </div>
                    </div>","0","main_causal_task","8","package_causal","","","","",""
"","","","","","html-keyboard-response","51","173483","0.0-51.0","580ADCFD2E564B2B97BDD21E0910B92B","019ce877-098a-7951-bf51-f5b5e1a5255a","019ce875-66c2-7f0b-b5e8-086c75889f84","","null","
                    <div class=""stimulus-container"">
                        <img src=""images/causal_sequence/package_causal/package_causal_9.png"" class=""exp-image"">
                        <div class=""question-area""></div> 
                    </div>","null","","","","","","","",""
"","","","","","html-button-response","52","174180","0.0-52.0","580ADCFD2E564B2B97BDD21E0910B92B","019ce877-098a-7951-bf51-f5b5e1a5255a","019ce875-66c2-7f0b-b5e8-086c75889f84","","696","
                    <div class=""stimulus-container"">
                        <img src=""images/causal_sequence/package_causal/package_causal_9.png"" class=""exp-image"">
                        <div class=""question-area"">
                            <p style=""font-size: 20px; font-weight: bold; margin: 0;"">Is there a person in this image?</p>
                        </div>
                    </div>","0","main_causal_task","9","package_causal","","","","",""
"","","","","","html-keyboard-response","53","175183","0.0-53.0","580ADCFD2E564B2B97BDD21E0910B92B","019ce877-098a-7951-bf51-f5b5e1a5255a","019ce875-66c2-7f0b-b5e8-086c75889f84","","null","<div style=""background-color: gray; width: 100vw; height: 100vh;""></div>","null","","","","","","","",""
"","","","","","html-keyboard-response","54","180186","0.0-54.0","580ADCFD2E564B2B97BDD21E0910B92B","019ce877-098a-7951-bf51-f5b5e1a5255a","019ce875-66c2-7f0b-b5e8-086c75889f84","","null","
                    <div class=""stimulus-container"">
                        <img src=""images/causal_sequence/the_performance_causal/the_performance_causal_1.png"" class=""exp-image"">
                        <div class=""question-area""></div> 
                    </div>","null","","","","","","","",""
"","","","","","html-button-response","55","180663","0.0-55.0","580ADCFD2E564B2B97BDD21E0910B92B","019ce877-098a-7951-bf51-f5b5e1a5255a","019ce875-66c2-7f0b-b5e8-086c75889f84","","476","
                    <div class=""stimulus-container"">
                        <img src=""images/causal_sequence/the_performance_causal/the_performance_causal_1.png"" class=""exp-image"">
                        <div class=""question-area"">
                            <p style=""font-size: 20px; font-weight: bold; margin: 0;"">Is there a person in this image?</p>
                        </div>
                    </div>","0","main_causal_task","1","the_performance_causal","","","","",""
"","","","","","html-keyboard-response","56","185664","0.0-56.0","580ADCFD2E564B2B97BDD21E0910B92B","019ce877-098a-7951-bf51-f5b5e1a5255a","019ce875-66c2-7f0b-b5e8-086c75889f84","","null","
                    <div class=""stimulus-container"">
                        <img src=""images/causal_sequence/the_performance_causal/the_performance_causal_2.png"" class=""exp-image"">
                        <div class=""question-area""></div> 
                    </div>","null","","","","","","","",""
"","","","","","html-button-response","57","187039","0.0-57.0","580ADCFD2E564B2B97BDD21E0910B92B","019ce877-098a-7951-bf51-f5b5e1a5255a","019ce875-66c2-7f0b-b5e8-086c75889f84","","1373","
                    <div class=""stimulus-container"">
                        <img src=""images/causal_sequence/the_performance_causal/the_performance_causal_2.png"" class=""exp-image"">
                        <div class=""question-area"">
                            <p style=""font-size: 20px; font-weight: bold; margin: 0;"">Is there a person in this image?</p>
                        </div>
                    </div>","0","main_causal_task","2","the_performance_causal","","","","",""
"","","","","","html-keyboard-response","58","192041","0.0-58.0","580ADCFD2E564B2B97BDD21E0910B92B","019ce877-098a-7951-bf51-f5b5e1a5255a","019ce875-66c2-7f0b-b5e8-086c75889f84","","null","
                    <div class=""stimulus-container"">
                        <img src=""images/causal_sequence/the_performance_causal/the_performance_causal_3.png"" class=""exp-image"">
                        <div class=""question-area""></div> 
                    </div>","null","","","","","","","",""
"","","","","","html-button-response","59","193173","0.0-59.0","580ADCFD2E564B2B97BDD21E0910B92B","019ce877-098a-7951-bf51-f5b5e1a5255a","019ce875-66c2-7f0b-b5e8-086c75889f84","","1131","
                    <div class=""stimulus-container"">
                        <img src=""images/causal_sequence/the_performance_causal/the_performance_causal_3.png"" class=""exp-image"">
                        <div class=""question-area"">
                            <p style=""font-size: 20px; font-weight: bold; margin: 0;"">Is there a person in this image?</p>
                        </div>
                    </div>","0","main_causal_task","3","the_performance_causal","","","","",""
"","","","","","html-keyboard-response","60","198175","0.0-60.0","580ADCFD2E564B2B97BDD21E0910B92B","019ce877-098a-7951-bf51-f5b5e1a5255a","019ce875-66c2-7f0b-b5e8-086c75889f84","","null","
                    <div class=""stimulus-container"">
                        <img src=""images/causal_sequence/the_performance_causal/the_performance_causal_4.png"" class=""exp-image"">
                        <div class=""question-area""></div> 
                    </div>","null","","","","","","","",""
"","","","","","html-button-response","61","199494","0.0-61.0","580ADCFD2E564B2B97BDD21E0910B92B","019ce877-098a-7951-bf51-f5b5e1a5255a","019ce875-66c2-7f0b-b5e8-086c75889f84","","1318","
                    <div class=""stimulus-container"">
                        <img src=""images/causal_sequence/the_performance_causal/the_performance_causal_4.png"" class=""exp-image"">
                        <div class=""question-area"">
                            <p style=""font-size: 20px; font-weight: bold; margin: 0;"">Is there a person in this image?</p>
                        </div>
                    </div>","0","main_causal_task","4","the_performance_causal","","","","",""
"","","","","","html-keyboard-response","62","204496","0.0-62.0","580ADCFD2E564B2B97BDD21E0910B92B","019ce877-098a-7951-bf51-f5b5e1a5255a","019ce875-66c2-7f0b-b5e8-086c75889f84","","null","
                    <div class=""stimulus-container"">
                        <img src=""images/causal_sequence/the_performance_causal/the_performance_causal_5.png"" class=""exp-image"">
                        <div class=""question-area""></div> 
                    </div>","null","","","","","","","",""
"","","","","","html-button-response","63","205546","0.0-63.0","580ADCFD2E564B2B97BDD21E0910B92B","019ce877-098a-7951-bf51-f5b5e1a5255a","019ce875-66c2-7f0b-b5e8-086c75889f84","","1049","
                    <div class=""stimulus-container"">
                        <img src=""images/causal_sequence/the_performance_causal/the_performance_causal_5.png"" class=""exp-image"">
                        <div class=""question-area"">
                            <p style=""font-size: 20px; font-weight: bold; margin: 0;"">Is there a person in this image?</p>
                        </div>
                    </div>","0","main_causal_task","5","the_performance_causal","","","","",""
"","","","","","html-keyboard-response","64","210547","0.0-64.0","580ADCFD2E564B2B97BDD21E0910B92B","019ce877-098a-7951-bf51-f5b5e1a5255a","019ce875-66c2-7f0b-b5e8-086c75889f84","","null","
                    <div class=""stimulus-container"">
                        <img src=""images/causal_sequence/the_performance_causal/the_performance_causal_6.png"" class=""exp-image"">
                        <div class=""question-area""></div> 
                    </div>","null","","","","","","","",""
"","","","","","html-button-response","65","212023","0.0-65.0","580ADCFD2E564B2B97BDD21E0910B92B","019ce877-098a-7951-bf51-f5b5e1a5255a","019ce875-66c2-7f0b-b5e8-086c75889f84","","1475","
                    <div class=""stimulus-container"">
                        <img src=""images/causal_sequence/the_performance_causal/the_performance_causal_6.png"" class=""exp-image"">
                        <div class=""question-area"">
                            <p style=""font-size: 20px; font-weight: bold; margin: 0;"">Is there a person in this image?</p>
                        </div>
                    </div>","0","main_causal_task","6","the_performance_causal","","","","",""
"","","","","","html-keyboard-response","66","217025","0.0-66.0","580ADCFD2E564B2B97BDD21E0910B92B","019ce877-098a-7951-bf51-f5b5e1a5255a","019ce875-66c2-7f0b-b5e8-086c75889f84","","null","
                    <div class=""stimulus-container"">
                        <img src=""images/causal_sequence/the_performance_causal/the_performance_causal_7.png"" class=""exp-image"">
                        <div class=""question-area""></div> 
                    </div>","null","","","","","","","",""
"","","","","","html-button-response","67","218111","0.0-67.0","580ADCFD2E564B2B97BDD21E0910B92B","019ce877-098a-7951-bf51-f5b5e1a5255a","019ce875-66c2-7f0b-b5e8-086c75889f84","","1085","
                    <div class=""stimulus-container"">
                        <img src=""images/causal_sequence/the_performance_causal/the_performance_causal_7.png"" class=""exp-image"">
                        <div class=""question-area"">
                            <p style=""font-size: 20px; font-weight: bold; margin: 0;"">Is there a person in this image?</p>
                        </div>
                    </div>","0","main_causal_task","7","the_performance_causal","","","","",""
"","","","","","html-keyboard-response","68","223114","0.0-68.0","580ADCFD2E564B2B97BDD21E0910B92B","019ce877-098a-7951-bf51-f5b5e1a5255a","019ce875-66c2-7f0b-b5e8-086c75889f84","","null","
                    <div class=""stimulus-container"">
                        <img src=""images/causal_sequence/the_performance_causal/the_performance_causal_8.png"" class=""exp-image"">
                        <div class=""question-area""></div> 
                    </div>","null","","","","","","","",""
"","","","","","html-button-response","69","223829","0.0-69.0","580ADCFD2E564B2B97BDD21E0910B92B","019ce877-098a-7951-bf51-f5b5e1a5255a","019ce875-66c2-7f0b-b5e8-086c75889f84","","714","
                    <div class=""stimulus-container"">
                        <img src=""images/causal_sequence/the_performance_causal/the_performance_causal_8.png"" class=""exp-image"">
                        <div class=""question-area"">
                            <p style=""font-size: 20px; font-weight: bold; margin: 0;"">Is there a person in this image?</p>
                        </div>
                    </div>","0","main_causal_task","8","the_performance_causal","","","","",""
"","","","","","html-keyboard-response","70","228831","0.0-70.0","580ADCFD2E564B2B97BDD21E0910B92B","019ce877-098a-7951-bf51-f5b5e1a5255a","019ce875-66c2-7f0b-b5e8-086c75889f84","","null","
                    <div class=""stimulus-container"">
                        <img src=""images/causal_sequence/the_performance_causal/the_performance_causal_9.png"" class=""exp-image"">
                        <div class=""question-area""></div> 
                    </div>","null","","","","","","","",""
"","","","","","html-button-response","71","230198","0.0-71.0","580ADCFD2E564B2B97BDD21E0910B92B","019ce877-098a-7951-bf51-f5b5e1a5255a","019ce875-66c2-7f0b-b5e8-086c75889f84","","1366","
                    <div class=""stimulus-container"">
                        <img src=""images/causal_sequence/the_performance_causal/the_performance_causal_9.png"" class=""exp-image"">
                        <div class=""question-area"">
                            <p style=""font-size: 20px; font-weight: bold; margin: 0;"">Is there a person in this image?</p>
                        </div>
                    </div>","0","main_causal_task","9","the_performance_causal","","","","",""
"","","","","","html-keyboard-response","72","231199","0.0-72.0","580ADCFD2E564B2B97BDD21E0910B92B","019ce877-098a-7951-bf51-f5b5e1a5255a","019ce875-66c2-7f0b-b5e8-086c75889f84","","null","<div style=""background-color: gray; width: 100vw; height: 100vh;""></div>","null","","","","","","","",""
"","","","","","html-keyboard-response","73","236201","0.0-73.0","580ADCFD2E564B2B97BDD21E0910B92B","019ce877-098a-7951-bf51-f5b5e1a5255a","019ce875-66c2-7f0b-b5e8-086c75889f84","","null","
                    <div class=""stimulus-container"">
                        <img src=""images/causal_sequence/coin_causal/coin_causal_1.png"" class=""exp-image"">
                        <div class=""question-area""></div> 
                    </div>","null","","","","","","","",""
"","","","","","html-button-response","74","237006","0.0-74.0","580ADCFD2E564B2B97BDD21E0910B92B","019ce877-098a-7951-bf51-f5b5e1a5255a","019ce875-66c2-7f0b-b5e8-086c75889f84","","804","
                    <div class=""stimulus-container"">
                        <img src=""images/causal_sequence/coin_causal/coin_causal_1.png"" class=""exp-image"">
                        <div class=""question-area"">
                            <p style=""font-size: 20px; font-weight: bold; margin: 0;"">Is there a person in this image?</p>
                        </div>
                    </div>","0","main_causal_task","1","coin_causal","","","","",""
"","","","","","html-keyboard-response","75","242007","0.0-75.0","580ADCFD2E564B2B97BDD21E0910B92B","019ce877-098a-7951-bf51-f5b5e1a5255a","019ce875-66c2-7f0b-b5e8-086c75889f84","","null","
                    <div class=""stimulus-container"">
                        <img src=""images/causal_sequence/coin_causal/coin_causal_2.png"" class=""exp-image"">
                        <div class=""question-area""></div> 
                    </div>","null","","","","","","","",""
"","","","","","html-button-response","76","243287","0.0-76.0","580ADCFD2E564B2B97BDD21E0910B92B","019ce877-098a-7951-bf51-f5b5e1a5255a","019ce875-66c2-7f0b-b5e8-086c75889f84","","1279","
                    <div class=""stimulus-container"">
                        <img src=""images/causal_sequence/coin_causal/coin_causal_2.png"" class=""exp-image"">
                        <div class=""question-area"">
                            <p style=""font-size: 20px; font-weight: bold; margin: 0;"">Is there a person in this image?</p>
                        </div>
                    </div>","0","main_causal_task","2","coin_causal","","","","",""
"","","","","","html-keyboard-response","77","248289","0.0-77.0","580ADCFD2E564B2B97BDD21E0910B92B","019ce877-098a-7951-bf51-f5b5e1a5255a","019ce875-66c2-7f0b-b5e8-086c75889f84","","null","
                    <div class=""stimulus-container"">
                        <img src=""images/causal_sequence/coin_causal/coin_causal_3.png"" class=""exp-image"">
                        <div class=""question-area""></div> 
                    </div>","null","","","","","","","",""
"","","","","","html-button-response","78","249693","0.0-78.0","580ADCFD2E564B2B97BDD21E0910B92B","019ce877-098a-7951-bf51-f5b5e1a5255a","019ce875-66c2-7f0b-b5e8-086c75889f84","","1403","
                    <div class=""stimulus-container"">
                        <img src=""images/causal_sequence/coin_causal/coin_causal_3.png"" class=""exp-image"">
                        <div class=""question-area"">
                            <p style=""font-size: 20px; font-weight: bold; margin: 0;"">Is there a person in this image?</p>
                        </div>
                    </div>","0","main_causal_task","3","coin_causal","","","","",""
"","","","","","html-keyboard-response","79","254695","0.0-79.0","580ADCFD2E564B2B97BDD21E0910B92B","019ce877-098a-7951-bf51-f5b5e1a5255a","019ce875-66c2-7f0b-b5e8-086c75889f84","","null","
                    <div class=""stimulus-container"">
                        <img src=""images/causal_sequence/coin_causal/coin_causal_4.png"" class=""exp-image"">
                        <div class=""question-area""></div> 
                    </div>","null","","","","","","","",""
"","","","","","html-button-response","80","255758","0.0-80.0","580ADCFD2E564B2B97BDD21E0910B92B","019ce877-098a-7951-bf51-f5b5e1a5255a","019ce875-66c2-7f0b-b5e8-086c75889f84","","1063","
                    <div class=""stimulus-container"">
                        <img src=""images/causal_sequence/coin_causal/coin_causal_4.png"" class=""exp-image"">
                        <div class=""question-area"">
                            <p style=""font-size: 20px; font-weight: bold; margin: 0;"">Is there a person in this image?</p>
                        </div>
                    </div>","0","main_causal_task","4","coin_causal","","","","",""
"","","","","","html-keyboard-response","81","260761","0.0-81.0","580ADCFD2E564B2B97BDD21E0910B92B","019ce877-098a-7951-bf51-f5b5e1a5255a","019ce875-66c2-7f0b-b5e8-086c75889f84","","null","
                    <div class=""stimulus-container"">
                        <img src=""images/causal_sequence/coin_causal/coin_causal_5.png"" class=""exp-image"">
                        <div class=""question-area""></div> 
                    </div>","null","","","","","","","",""
"","","","","","html-button-response","82","261786","0.0-82.0","580ADCFD2E564B2B97BDD21E0910B92B","019ce877-098a-7951-bf51-f5b5e1a5255a","019ce875-66c2-7f0b-b5e8-086c75889f84","","1024","
                    <div class=""stimulus-container"">
                        <img src=""images/causal_sequence/coin_causal/coin_causal_5.png"" class=""exp-image"">
                        <div class=""question-area"">
                            <p style=""font-size: 20px; font-weight: bold; margin: 0;"">Is there a person in this image?</p>
                        </div>
                    </div>","0","main_causal_task","5","coin_causal","","","","",""
"","","","","","html-keyboard-response","83","266788","0.0-83.0","580ADCFD2E564B2B97BDD21E0910B92B","019ce877-098a-7951-bf51-f5b5e1a5255a","019ce875-66c2-7f0b-b5e8-086c75889f84","","null","
                    <div class=""stimulus-container"">
                        <img src=""images/causal_sequence/coin_causal/coin_causal_6.png"" class=""exp-image"">
                        <div class=""question-area""></div> 
                    </div>","null","","","","","","","",""
"","","","","","html-button-response","84","267201","0.0-84.0","580ADCFD2E564B2B97BDD21E0910B92B","019ce877-098a-7951-bf51-f5b5e1a5255a","019ce875-66c2-7f0b-b5e8-086c75889f84","","412","
                    <div class=""stimulus-container"">
                        <img src=""images/causal_sequence/coin_causal/coin_causal_6.png"" class=""exp-image"">
                        <div class=""question-area"">
                            <p style=""font-size: 20px; font-weight: bold; margin: 0;"">Is there a person in this image?</p>
                        </div>
                    </div>","0","main_causal_task","6","coin_causal","","","","",""
"","","","","","html-keyboard-response","85","272204","0.0-85.0","580ADCFD2E564B2B97BDD21E0910B92B","019ce877-098a-7951-bf51-f5b5e1a5255a","019ce875-66c2-7f0b-b5e8-086c75889f84","","null","
                    <div class=""stimulus-container"">
                        <img src=""images/causal_sequence/coin_causal/coin_causal_7.png"" class=""exp-image"">
                        <div class=""question-area""></div> 
                    </div>","null","","","","","","","",""
"","","","","","html-button-response","86","273271","0.0-86.0","580ADCFD2E564B2B97BDD21E0910B92B","019ce877-098a-7951-bf51-f5b5e1a5255a","019ce875-66c2-7f0b-b5e8-086c75889f84","","1065","
                    <div class=""stimulus-container"">
                        <img src=""images/causal_sequence/coin_causal/coin_causal_7.png"" class=""exp-image"">
                        <div class=""question-area"">
                            <p style=""font-size: 20px; font-weight: bold; margin: 0;"">Is there a person in this image?</p>
                        </div>
                    </div>","1","main_causal_task","7","coin_causal","","","","",""
"","","","","","html-keyboard-response","87","278273","0.0-87.0","580ADCFD2E564B2B97BDD21E0910B92B","019ce877-098a-7951-bf51-f5b5e1a5255a","019ce875-66c2-7f0b-b5e8-086c75889f84","","null","
                    <div class=""stimulus-container"">
                        <img src=""images/causal_sequence/coin_causal/coin_causal_8.png"" class=""exp-image"">
                        <div class=""question-area""></div> 
                    </div>","null","","","","","","","",""
"","","","","","html-button-response","88","279308","0.0-88.0","580ADCFD2E564B2B97BDD21E0910B92B","019ce877-098a-7951-bf51-f5b5e1a5255a","019ce875-66c2-7f0b-b5e8-086c75889f84","","1034","
                    <div class=""stimulus-container"">
                        <img src=""images/causal_sequence/coin_causal/coin_causal_8.png"" class=""exp-image"">
                        <div class=""question-area"">
                            <p style=""font-size: 20px; font-weight: bold; margin: 0;"">Is there a person in this image?</p>
                        </div>
                    </div>","0","main_causal_task","8","coin_causal","","","","",""
"","","","","","html-keyboard-response","89","284310","0.0-89.0","580ADCFD2E564B2B97BDD21E0910B92B","019ce877-098a-7951-bf51-f5b5e1a5255a","019ce875-66c2-7f0b-b5e8-086c75889f84","","null","
                    <div class=""stimulus-container"">
                        <img src=""images/causal_sequence/coin_causal/coin_causal_9.png"" class=""exp-image"">
                        <div class=""question-area""></div> 
                    </div>","null","","","","","","","",""
"","","","","","html-button-response","90","285883","0.0-90.0","580ADCFD2E564B2B97BDD21E0910B92B","019ce877-098a-7951-bf51-f5b5e1a5255a","019ce875-66c2-7f0b-b5e8-086c75889f84","","1571","
                    <div class=""stimulus-container"">
                        <img src=""images/causal_sequence/coin_causal/coin_causal_9.png"" class=""exp-image"">
                        <div class=""question-area"">
                            <p style=""font-size: 20px; font-weight: bold; margin: 0;"">Is there a person in this image?</p>
                        </div>
                    </div>","0","main_causal_task","9","coin_causal","","","","",""
"","","","","","html-keyboard-response","91","286884","0.0-91.0","580ADCFD2E564B2B97BDD21E0910B92B","019ce877-098a-7951-bf51-f5b5e1a5255a","019ce875-66c2-7f0b-b5e8-086c75889f84","","null","<div style=""background-color: gray; width: 100vw; height: 100vh;""></div>","null","","","","","","","",""
"","","","","","html-keyboard-response","92","291886","0.0-92.0","580ADCFD2E564B2B97BDD21E0910B92B","019ce877-098a-7951-bf51-f5b5e1a5255a","019ce875-66c2-7f0b-b5e8-086c75889f84","","null","
                    <div class=""stimulus-container"">
                        <img src=""images/causal_sequence/dog_causal/dog_causal_1.png"" class=""exp-image"">
                        <div class=""question-area""></div> 
                    </div>","null","","","","","","","",""
"","","","","","html-button-response","93","293254","0.0-93.0","580ADCFD2E564B2B97BDD21E0910B92B","019ce877-098a-7951-bf51-f5b5e1a5255a","019ce875-66c2-7f0b-b5e8-086c75889f84","","1366","
                    <div class=""stimulus-container"">
                        <img src=""images/causal_sequence/dog_causal/dog_causal_1.png"" class=""exp-image"">
                        <div class=""question-area"">
                            <p style=""font-size: 20px; font-weight: bold; margin: 0;"">Is there a person in this image?</p>
                        </div>
                    </div>","0","main_causal_task","1","dog_causal","","","","",""
"","","","","","html-keyboard-response","94","298255","0.0-94.0","580ADCFD2E564B2B97BDD21E0910B92B","019ce877-098a-7951-bf51-f5b5e1a5255a","019ce875-66c2-7f0b-b5e8-086c75889f84","","null","
                    <div class=""stimulus-container"">
                        <img src=""images/causal_sequence/dog_causal/dog_causal_2.png"" class=""exp-image"">
                        <div class=""question-area""></div> 
                    </div>","null","","","","","","","",""
"","","","","","html-button-response","95","298958","0.0-95.0","580ADCFD2E564B2B97BDD21E0910B92B","019ce877-098a-7951-bf51-f5b5e1a5255a","019ce875-66c2-7f0b-b5e8-086c75889f84","","702","
                    <div class=""stimulus-container"">
                        <img src=""images/causal_sequence/dog_causal/dog_causal_2.png"" class=""exp-image"">
                        <div class=""question-area"">
                            <p style=""font-size: 20px; font-weight: bold; margin: 0;"">Is there a person in this image?</p>
                        </div>
                    </div>","0","main_causal_task","2","dog_causal","","","","",""
"","","","","","html-keyboard-response","96","303960","0.0-96.0","580ADCFD2E564B2B97BDD21E0910B92B","019ce877-098a-7951-bf51-f5b5e1a5255a","019ce875-66c2-7f0b-b5e8-086c75889f84","","null","
                    <div class=""stimulus-container"">
                        <img src=""images/causal_sequence/dog_causal/dog_causal_3.png"" class=""exp-image"">
                        <div class=""question-area""></div> 
                    </div>","null","","","","","","","",""
"","","","","","html-button-response","97","304996","0.0-97.0","580ADCFD2E564B2B97BDD21E0910B92B","019ce877-098a-7951-bf51-f5b5e1a5255a","019ce875-66c2-7f0b-b5e8-086c75889f84","","1035","
                    <div class=""stimulus-container"">
                        <img src=""images/causal_sequence/dog_causal/dog_causal_3.png"" class=""exp-image"">
                        <div class=""question-area"">
                            <p style=""font-size: 20px; font-weight: bold; margin: 0;"">Is there a person in this image?</p>
                        </div>
                    </div>","0","main_causal_task","3","dog_causal","","","","",""
"","","","","","html-keyboard-response","98","309999","0.0-98.0","580ADCFD2E564B2B97BDD21E0910B92B","019ce877-098a-7951-bf51-f5b5e1a5255a","019ce875-66c2-7f0b-b5e8-086c75889f84","","null","
                    <div class=""stimulus-container"">
                        <img src=""images/causal_sequence/dog_causal/dog_causal_4.png"" class=""exp-image"">
                        <div class=""question-area""></div> 
                    </div>","null","","","","","","","",""
"","","","","","html-button-response","99","310509","0.0-99.0","580ADCFD2E564B2B97BDD21E0910B92B","019ce877-098a-7951-bf51-f5b5e1a5255a","019ce875-66c2-7f0b-b5e8-086c75889f84","","509","
                    <div class=""stimulus-container"">
                        <img src=""images/causal_sequence/dog_causal/dog_causal_4.png"" class=""exp-image"">
                        <div class=""question-area"">
                            <p style=""font-size: 20px; font-weight: bold; margin: 0;"">Is there a person in this image?</p>
                        </div>
                    </div>","0","main_causal_task","4","dog_causal","","","","",""
"","","","","","html-keyboard-response","100","315511","0.0-100.0","580ADCFD2E564B2B97BDD21E0910B92B","019ce877-098a-7951-bf51-f5b5e1a5255a","019ce875-66c2-7f0b-b5e8-086c75889f84","","null","
                    <div class=""stimulus-container"">
                        <img src=""images/causal_sequence/dog_causal/dog_causal_5.png"" class=""exp-image"">
                        <div class=""question-area""></div> 
                    </div>","null","","","","","","","",""
"","","","","","html-button-response","101","317038","0.0-101.0","580ADCFD2E564B2B97BDD21E0910B92B","019ce877-098a-7951-bf51-f5b5e1a5255a","019ce875-66c2-7f0b-b5e8-086c75889f84","","1526","
                    <div class=""stimulus-container"">
                        <img src=""images/causal_sequence/dog_causal/dog_causal_5.png"" class=""exp-image"">
                        <div class=""question-area"">
                            <p style=""font-size: 20px; font-weight: bold; margin: 0;"">Is there a person in this image?</p>
                        </div>
                    </div>","0","main_causal_task","5","dog_causal","","","","",""
"","","","","","html-keyboard-response","102","322041","0.0-102.0","580ADCFD2E564B2B97BDD21E0910B92B","019ce877-098a-7951-bf51-f5b5e1a5255a","019ce875-66c2-7f0b-b5e8-086c75889f84","","null","
                    <div class=""stimulus-container"">
                        <img src=""images/causal_sequence/dog_causal/dog_causal_6.png"" class=""exp-image"">
                        <div class=""question-area""></div> 
                    </div>","null","","","","","","","",""
"","","","","","html-button-response","103","323500","0.0-103.0","580ADCFD2E564B2B97BDD21E0910B92B","019ce877-098a-7951-bf51-f5b5e1a5255a","019ce875-66c2-7f0b-b5e8-086c75889f84","","1459","
                    <div class=""stimulus-container"">
                        <img src=""images/causal_sequence/dog_causal/dog_causal_6.png"" class=""exp-image"">
                        <div class=""question-area"">
                            <p style=""font-size: 20px; font-weight: bold; margin: 0;"">Is there a person in this image?</p>
                        </div>
                    </div>","0","main_causal_task","6","dog_causal","","","","",""
"","","","","","html-keyboard-response","104","328503","0.0-104.0","580ADCFD2E564B2B97BDD21E0910B92B","019ce877-098a-7951-bf51-f5b5e1a5255a","019ce875-66c2-7f0b-b5e8-086c75889f84","","null","
                    <div class=""stimulus-container"">
                        <img src=""images/causal_sequence/dog_causal/dog_causal_7.png"" class=""exp-image"">
                        <div class=""question-area""></div> 
                    </div>","null","","","","","","","",""
"","","","","","html-button-response","105","329696","0.0-105.0","580ADCFD2E564B2B97BDD21E0910B92B","019ce877-098a-7951-bf51-f5b5e1a5255a","019ce875-66c2-7f0b-b5e8-086c75889f84","","1191","
                    <div class=""stimulus-container"">
                        <img src=""images/causal_sequence/dog_causal/dog_causal_7.png"" class=""exp-image"">
                        <div class=""question-area"">
                            <p style=""font-size: 20px; font-weight: bold; margin: 0;"">Is there a person in this image?</p>
                        </div>
                    </div>","0","main_causal_task","7","dog_causal","","","","",""
"","","","","","html-keyboard-response","106","334698","0.0-106.0","580ADCFD2E564B2B97BDD21E0910B92B","019ce877-098a-7951-bf51-f5b5e1a5255a","019ce875-66c2-7f0b-b5e8-086c75889f84","","null","
                    <div class=""stimulus-container"">
                        <img src=""images/causal_sequence/dog_causal/dog_causal_8.png"" class=""exp-image"">
                        <div class=""question-area""></div> 
                    </div>","null","","","","","","","",""
"","","","","","html-button-response","107","335957","0.0-107.0","580ADCFD2E564B2B97BDD21E0910B92B","019ce877-098a-7951-bf51-f5b5e1a5255a","019ce875-66c2-7f0b-b5e8-086c75889f84","","1259","
                    <div class=""stimulus-container"">
                        <img src=""images/causal_sequence/dog_causal/dog_causal_8.png"" class=""exp-image"">
                        <div class=""question-area"">
                            <p style=""font-size: 20px; font-weight: bold; margin: 0;"">Is there a person in this image?</p>
                        </div>
                    </div>","0","main_causal_task","8","dog_causal","","","","",""
"","","","","","html-keyboard-response","108","340959","0.0-108.0","580ADCFD2E564B2B97BDD21E0910B92B","019ce877-098a-7951-bf51-f5b5e1a5255a","019ce875-66c2-7f0b-b5e8-086c75889f84","","null","
                    <div class=""stimulus-container"">
                        <img src=""images/causal_sequence/dog_causal/dog_causal_9.png"" class=""exp-image"">
                        <div class=""question-area""></div> 
                    </div>","null","","","","","","","",""
"","","","","","html-button-response","109","341655","0.0-109.0","580ADCFD2E564B2B97BDD21E0910B92B","019ce877-098a-7951-bf51-f5b5e1a5255a","019ce875-66c2-7f0b-b5e8-086c75889f84","","695","
                    <div class=""stimulus-container"">
                        <img src=""images/causal_sequence/dog_causal/dog_causal_9.png"" class=""exp-image"">
                        <div class=""question-area"">
                            <p style=""font-size: 20px; font-weight: bold; margin: 0;"">Is there a person in this image?</p>
                        </div>
                    </div>","0","main_causal_task","9","dog_causal","","","","",""
"","","","","","html-keyboard-response","110","342656","0.0-110.0","580ADCFD2E564B2B97BDD21E0910B92B","019ce877-098a-7951-bf51-f5b5e1a5255a","019ce875-66c2-7f0b-b5e8-086c75889f84","","null","<div style=""background-color: gray; width: 100vw; height: 100vh;""></div>","null","","","","","","","",""
"","","","","","html-keyboard-response","111","347658","0.0-111.0","580ADCFD2E564B2B97BDD21E0910B92B","019ce877-098a-7951-bf51-f5b5e1a5255a","019ce875-66c2-7f0b-b5e8-086c75889f84","","null","
                    <div class=""stimulus-container"">
                        <img src=""images/causal_sequence/saving_a_cat_causal/saving_a_cat_causal_1.png"" class=""exp-image"">
                        <div class=""question-area""></div> 
                    </div>","null","","","","","","","",""
"","","","","","html-button-response","112","348573","0.0-112.0","580ADCFD2E564B2B97BDD21E0910B92B","019ce877-098a-7951-bf51-f5b5e1a5255a","019ce875-66c2-7f0b-b5e8-086c75889f84","","913","
                    <div class=""stimulus-container"">
                        <img src=""images/causal_sequence/saving_a_cat_causal/saving_a_cat_causal_1.png"" class=""exp-image"">
                        <div class=""question-area"">
                            <p style=""font-size: 20px; font-weight: bold; margin: 0;"">Is there a person in this image?</p>
                        </div>
                    </div>","0","main_causal_task","1","saving_a_cat_causal","","","","",""
"","","","","","html-keyboard-response","113","353575","0.0-113.0","580ADCFD2E564B2B97BDD21E0910B92B","019ce877-098a-7951-bf51-f5b5e1a5255a","019ce875-66c2-7f0b-b5e8-086c75889f84","","null","
                    <div class=""stimulus-container"">
                        <img src=""images/causal_sequence/saving_a_cat_causal/saving_a_cat_causal_2.png"" class=""exp-image"">
                        <div class=""question-area""></div> 
                    </div>","null","","","","","","","",""
"","","","","","html-button-response","114","354301","0.0-114.0","580ADCFD2E564B2B97BDD21E0910B92B","019ce877-098a-7951-bf51-f5b5e1a5255a","019ce875-66c2-7f0b-b5e8-086c75889f84","","725","
                    <div class=""stimulus-container"">
                        <img src=""images/causal_sequence/saving_a_cat_causal/saving_a_cat_causal_2.png"" class=""exp-image"">
                        <div class=""question-area"">
                            <p style=""font-size: 20px; font-weight: bold; margin: 0;"">Is there a person in this image?</p>
                        </div>
                    </div>","1","main_causal_task","2","saving_a_cat_causal","","","","",""
"","","","","","html-keyboard-response","115","359304","0.0-115.0","580ADCFD2E564B2B97BDD21E0910B92B","019ce877-098a-7951-bf51-f5b5e1a5255a","019ce875-66c2-7f0b-b5e8-086c75889f84","","null","
                    <div class=""stimulus-container"">
                        <img src=""images/causal_sequence/saving_a_cat_causal/saving_a_cat_causal_3.png"" class=""exp-image"">
                        <div class=""question-area""></div> 
                    </div>","null","","","","","","","",""
"","","","","","html-button-response","116","360277","0.0-116.0","580ADCFD2E564B2B97BDD21E0910B92B","019ce877-098a-7951-bf51-f5b5e1a5255a","019ce875-66c2-7f0b-b5e8-086c75889f84","","973","
                    <div class=""stimulus-container"">
                        <img src=""images/causal_sequence/saving_a_cat_causal/saving_a_cat_causal_3.png"" class=""exp-image"">
                        <div class=""question-area"">
                            <p style=""font-size: 20px; font-weight: bold; margin: 0;"">Is there a person in this image?</p>
                        </div>
                    </div>","1","main_causal_task","3","saving_a_cat_causal","","","","",""
"","","","","","html-keyboard-response","117","365280","0.0-117.0","580ADCFD2E564B2B97BDD21E0910B92B","019ce877-098a-7951-bf51-f5b5e1a5255a","019ce875-66c2-7f0b-b5e8-086c75889f84","","null","
                    <div class=""stimulus-container"">
                        <img src=""images/causal_sequence/saving_a_cat_causal/saving_a_cat_causal_4.png"" class=""exp-image"">
                        <div class=""question-area""></div> 
                    </div>","null","","","","","","","",""
"","","","","","html-button-response","118","366357","0.0-118.0","580ADCFD2E564B2B97BDD21E0910B92B","019ce877-098a-7951-bf51-f5b5e1a5255a","019ce875-66c2-7f0b-b5e8-086c75889f84","","1076","
                    <div class=""stimulus-container"">
                        <img src=""images/causal_sequence/saving_a_cat_causal/saving_a_cat_causal_4.png"" class=""exp-image"">
                        <div class=""question-area"">
                            <p style=""font-size: 20px; font-weight: bold; margin: 0;"">Is there a person in this image?</p>
                        </div>
                    </div>","0","main_causal_task","4","saving_a_cat_causal","","","","",""
"","","","","","html-keyboard-response","119","371358","0.0-119.0","580ADCFD2E564B2B97BDD21E0910B92B","019ce877-098a-7951-bf51-f5b5e1a5255a","019ce875-66c2-7f0b-b5e8-086c75889f84","","null","
                    <div class=""stimulus-container"">
                        <img src=""images/causal_sequence/saving_a_cat_causal/saving_a_cat_causal_5.png"" class=""exp-image"">
                        <div class=""question-area""></div> 
                    </div>","null","","","","","","","",""
"","","","","","html-button-response","120","372312","0.0-120.0","580ADCFD2E564B2B97BDD21E0910B92B","019ce877-098a-7951-bf51-f5b5e1a5255a","019ce875-66c2-7f0b-b5e8-086c75889f84","","953","
                    <div class=""stimulus-container"">
                        <img src=""images/causal_sequence/saving_a_cat_causal/saving_a_cat_causal_5.png"" class=""exp-image"">
                        <div class=""question-area"">
                            <p style=""font-size: 20px; font-weight: bold; margin: 0;"">Is there a person in this image?</p>
                        </div>
                    </div>","0","main_causal_task","5","saving_a_cat_causal","","","","",""
"","","","","","html-keyboard-response","121","377313","0.0-121.0","580ADCFD2E564B2B97BDD21E0910B92B","019ce877-098a-7951-bf51-f5b5e1a5255a","019ce875-66c2-7f0b-b5e8-086c75889f84","","null","
                    <div class=""stimulus-container"">
                        <img src=""images/causal_sequence/saving_a_cat_causal/saving_a_cat_causal_6.png"" class=""exp-image"">
                        <div class=""question-area""></div> 
                    </div>","null","","","","","","","",""
"","","","","","html-button-response","122","378177","0.0-122.0","580ADCFD2E564B2B97BDD21E0910B92B","019ce877-098a-7951-bf51-f5b5e1a5255a","019ce875-66c2-7f0b-b5e8-086c75889f84","","863","
                    <div class=""stimulus-container"">
                        <img src=""images/causal_sequence/saving_a_cat_causal/saving_a_cat_causal_6.png"" class=""exp-image"">
                        <div class=""question-area"">
                            <p style=""font-size: 20px; font-weight: bold; margin: 0;"">Is there a person in this image?</p>
                        </div>
                    </div>","0","main_causal_task","6","saving_a_cat_causal","","","","",""
"","","","","","html-keyboard-response","123","383179","0.0-123.0","580ADCFD2E564B2B97BDD21E0910B92B","019ce877-098a-7951-bf51-f5b5e1a5255a","019ce875-66c2-7f0b-b5e8-086c75889f84","","null","
                    <div class=""stimulus-container"">
                        <img src=""images/causal_sequence/saving_a_cat_causal/saving_a_cat_causal_7.png"" class=""exp-image"">
                        <div class=""question-area""></div> 
                    </div>","null","","","","","","","",""
"","","","","","html-button-response","124","384231","0.0-124.0","580ADCFD2E564B2B97BDD21E0910B92B","019ce877-098a-7951-bf51-f5b5e1a5255a","019ce875-66c2-7f0b-b5e8-086c75889f84","","1050","
                    <div class=""stimulus-container"">
                        <img src=""images/causal_sequence/saving_a_cat_causal/saving_a_cat_causal_7.png"" class=""exp-image"">
                        <div class=""question-area"">
                            <p style=""font-size: 20px; font-weight: bold; margin: 0;"">Is there a person in this image?</p>
                        </div>
                    </div>","0","main_causal_task","7","saving_a_cat_causal","","","","",""
"","","","","","html-keyboard-response","125","389232","0.0-125.0","580ADCFD2E564B2B97BDD21E0910B92B","019ce877-098a-7951-bf51-f5b5e1a5255a","019ce875-66c2-7f0b-b5e8-086c75889f84","","null","
                    <div class=""stimulus-container"">
                        <img src=""images/causal_sequence/saving_a_cat_causal/saving_a_cat_causal_8.png"" class=""exp-image"">
                        <div class=""question-area""></div> 
                    </div>","null","","","","","","","",""
"","","","","","html-button-response","126","389957","0.0-126.0","580ADCFD2E564B2B97BDD21E0910B92B","019ce877-098a-7951-bf51-f5b5e1a5255a","019ce875-66c2-7f0b-b5e8-086c75889f84","","724","
                    <div class=""stimulus-container"">
                        <img src=""images/causal_sequence/saving_a_cat_causal/saving_a_cat_causal_8.png"" class=""exp-image"">
                        <div class=""question-area"">
                            <p style=""font-size: 20px; font-weight: bold; margin: 0;"">Is there a person in this image?</p>
                        </div>
                    </div>","0","main_causal_task","8","saving_a_cat_causal","","","","",""
"","","","","","html-keyboard-response","127","394958","0.0-127.0","580ADCFD2E564B2B97BDD21E0910B92B","019ce877-098a-7951-bf51-f5b5e1a5255a","019ce875-66c2-7f0b-b5e8-086c75889f84","","null","
                    <div class=""stimulus-container"">
                        <img src=""images/causal_sequence/saving_a_cat_causal/saving_a_cat_causal_9.png"" class=""exp-image"">
                        <div class=""question-area""></div> 
                    </div>","null","","","","","","","",""
"","","","","","html-button-response","128","395604","0.0-128.0","580ADCFD2E564B2B97BDD21E0910B92B","019ce877-098a-7951-bf51-f5b5e1a5255a","019ce875-66c2-7f0b-b5e8-086c75889f84","","645","
                    <div class=""stimulus-container"">
                        <img src=""images/causal_sequence/saving_a_cat_causal/saving_a_cat_causal_9.png"" class=""exp-image"">
                        <div class=""question-area"">
                            <p style=""font-size: 20px; font-weight: bold; margin: 0;"">Is there a person in this image?</p>
                        </div>
                    </div>","0","main_causal_task","9","saving_a_cat_causal","","","","",""
"","","","","","instructions","129","397439","0.0-129.0","580ADCFD2E564B2B97BDD21E0910B92B","019ce877-098a-7951-bf51-f5b5e1a5255a","019ce875-66c2-7f0b-b5e8-086c75889f84","[{""page_index"":0,""viewing_time"":1834}]","1834","","","","","","","","","",""
"","","","","","instructions","130","404946","0.0-130.0","580ADCFD2E564B2B97BDD21E0910B92B","019ce877-098a-7951-bf51-f5b5e1a5255a","019ce875-66c2-7f0b-b5e8-086c75889f84","[{""page_index"":0,""viewing_time"":7507}]","7508","","","","","","","","","",""
"","","","","","html-button-response","131","409861","0.0-131.0-0.0","580ADCFD2E564B2B97BDD21E0910B92B","019ce877-098a-7951-bf51-f5b5e1a5255a","019ce875-66c2-7f0b-b5e8-086c75889f84","","4913","
                <div style=""margin-bottom:20px;""><h3>Example: Valuable Image</h3></div>
                <div class=""stimulus-container"" style=""display: flex; align-items: center; justify-content: center; gap: 30px;"">
                    <img src=""images/instructions/movie_1.png"" class=""exp-image"">
                    <div style=""font-size: 35px; font-weight: bold; color: green; border: 5px solid green; padding: 20px; border-radius: 15px; background-color: #f0fff0;"">
                        WORTH<br>$1
                    </div>
                </div>
                <div class=""question-area""><p>Was there a person in this image?</p></div>","0","","","","","","","",""
"","","","","","html-button-response","132","413167","0.0-131.0-1.0","580ADCFD2E564B2B97BDD21E0910B92B","019ce877-098a-7951-bf51-f5b5e1a5255a","019ce875-66c2-7f0b-b5e8-086c75889f84","","3305","
                <div style=""margin-bottom:20px;""><h3>Example: Neutral Image</h3></div>
                <div class=""stimulus-container"" style=""display: flex; align-items: center; justify-content: center; gap: 30px;"">
                    <img src=""images/instructions/movie_2.png"" class=""exp-image"">
                    <div style=""font-size: 35px; font-weight: bold; color: grey; border: 5px solid grey; padding: 20px; border-radius: 15px; background-color: #f0f0f0;"">
                        NEUTRAL<br>VALUE
                    </div>
                </div>
                <div class=""question-area""><p>Was there a person in this image?</p></div>","0","","","","","","","",""
"","","","","","html-keyboard-response","133","421169","0.0-132.0","580ADCFD2E564B2B97BDD21E0910B92B","019ce877-098a-7951-bf51-f5b5e1a5255a","019ce875-66c2-7f0b-b5e8-086c75889f84","","null","
            <div class=""stimulus-container"" style=""display: flex; align-items: center; justify-content: center; gap: 30px;"">
                <img src=""images/causal_sequence/saving_a_cat_causal/saving_a_cat_causal_4.png"" class=""exp-image"">
                <div style=""font-size: 40px; font-weight: bold; color: green; border: 5px solid green; padding: 25px; border-radius: 15px; background-color: #f0fff0;"">
                    WORTH<br>$1
                </div>
            </div>
            <div class=""question-area""></div>","null","","","","","","","",""
"","","","","","html-button-response","134","422610","0.0-133.0","580ADCFD2E564B2B97BDD21E0910B92B","019ce877-098a-7951-bf51-f5b5e1a5255a","019ce875-66c2-7f0b-b5e8-086c75889f84","","1440","
            <div class=""stimulus-container"" style=""display: flex; align-items: center; justify-content: center; gap: 30px;"">
                <img src=""images/causal_sequence/saving_a_cat_causal/saving_a_cat_causal_4.png"" class=""exp-image"">
                <div style=""font-size: 40px; font-weight: bold; color: green; border: 5px solid green; padding: 25px; border-radius: 15px; background-color: #f0fff0;"">
                    WORTH<br>$1
                </div>
            </div>
            <div class=""question-area"">
                <p style=""font-size: 20px; font-weight: bold; margin: 0;"">Was there a person in this image?</p>
            </div>","0","part2_value_learning","","saving_a_cat_causal","4","valuable","","",""
"","","","","","html-keyboard-response","135","430612","0.0-134.0","580ADCFD2E564B2B97BDD21E0910B92B","019ce877-098a-7951-bf51-f5b5e1a5255a","019ce875-66c2-7f0b-b5e8-086c75889f84","","null","
            <div class=""stimulus-container"" style=""display: flex; align-items: center; justify-content: center; gap: 30px;"">
                <img src=""images/causal_sequence/package_causal/package_causal_7.png"" class=""exp-image"">
                <div style=""font-size: 40px; font-weight: bold; color: green; border: 5px solid green; padding: 25px; border-radius: 15px; background-color: #f0fff0;"">
                    WORTH<br>$1
                </div>
            </div>
            <div class=""question-area""></div>","null","","","","","","","",""
"","","","","","html-button-response","136","431951","0.0-135.0","580ADCFD2E564B2B97BDD21E0910B92B","019ce877-098a-7951-bf51-f5b5e1a5255a","019ce875-66c2-7f0b-b5e8-086c75889f84","","1337","
            <div class=""stimulus-container"" style=""display: flex; align-items: center; justify-content: center; gap: 30px;"">
                <img src=""images/causal_sequence/package_causal/package_causal_7.png"" class=""exp-image"">
                <div style=""font-size: 40px; font-weight: bold; color: green; border: 5px solid green; padding: 25px; border-radius: 15px; background-color: #f0fff0;"">
                    WORTH<br>$1
                </div>
            </div>
            <div class=""question-area"">
                <p style=""font-size: 20px; font-weight: bold; margin: 0;"">Was there a person in this image?</p>
            </div>","0","part2_value_learning","","package_causal","7","valuable","","",""
"","","","","","html-keyboard-response","137","439953","0.0-136.0","580ADCFD2E564B2B97BDD21E0910B92B","019ce877-098a-7951-bf51-f5b5e1a5255a","019ce875-66c2-7f0b-b5e8-086c75889f84","","null","
            <div class=""stimulus-container"" style=""display: flex; align-items: center; justify-content: center; gap: 30px;"">
                <img src=""images/causal_sequence/coin_causal/coin_causal_5.png"" class=""exp-image"">
                <div style=""font-size: 40px; font-weight: bold; color: green; border: 5px solid green; padding: 25px; border-radius: 15px; background-color: #f0fff0;"">
                    WORTH<br>$1
                </div>
            </div>
            <div class=""question-area""></div>","null","","","","","","","",""
"","","","","","html-button-response","138","441096","0.0-137.0","580ADCFD2E564B2B97BDD21E0910B92B","019ce877-098a-7951-bf51-f5b5e1a5255a","019ce875-66c2-7f0b-b5e8-086c75889f84","","1142","
            <div class=""stimulus-container"" style=""display: flex; align-items: center; justify-content: center; gap: 30px;"">
                <img src=""images/causal_sequence/coin_causal/coin_causal_5.png"" class=""exp-image"">
                <div style=""font-size: 40px; font-weight: bold; color: green; border: 5px solid green; padding: 25px; border-radius: 15px; background-color: #f0fff0;"">
                    WORTH<br>$1
                </div>
            </div>
            <div class=""question-area"">
                <p style=""font-size: 20px; font-weight: bold; margin: 0;"">Was there a person in this image?</p>
            </div>","0","part2_value_learning","","coin_causal","5","valuable","","",""
"","","","","","html-keyboard-response","139","449098","0.0-138.0","580ADCFD2E564B2B97BDD21E0910B92B","019ce877-098a-7951-bf51-f5b5e1a5255a","019ce875-66c2-7f0b-b5e8-086c75889f84","","null","
            <div class=""stimulus-container"" style=""display: flex; align-items: center; justify-content: center; gap: 30px;"">
                <img src=""images/causal_sequence/museum_causal/museum_causal_7.png"" class=""exp-image"">
                <div style=""font-size: 40px; font-weight: bold; color: grey; border: 5px solid grey; padding: 25px; border-radius: 15px; background-color: #f0f0f0;"">
                    NEUTRAL<br>VALUE
                </div>
            </div>
            <div class=""question-area""></div>","null","","","","","","","",""
"","","","","","html-button-response","140","450211","0.0-139.0","580ADCFD2E564B2B97BDD21E0910B92B","019ce877-098a-7951-bf51-f5b5e1a5255a","019ce875-66c2-7f0b-b5e8-086c75889f84","","1112","
            <div class=""stimulus-container"" style=""display: flex; align-items: center; justify-content: center; gap: 30px;"">
                <img src=""images/causal_sequence/museum_causal/museum_causal_7.png"" class=""exp-image"">
                <div style=""font-size: 40px; font-weight: bold; color: grey; border: 5px solid grey; padding: 25px; border-radius: 15px; background-color: #f0f0f0;"">
                    NEUTRAL<br>VALUE
                </div>
            </div>
            <div class=""question-area"">
                <p style=""font-size: 20px; font-weight: bold; margin: 0;"">Was there a person in this image?</p>
            </div>","1","part2_value_learning","","museum_causal","7","neutral","","",""
"","","","","","html-keyboard-response","141","458214","0.0-140.0","580ADCFD2E564B2B97BDD21E0910B92B","019ce877-098a-7951-bf51-f5b5e1a5255a","019ce875-66c2-7f0b-b5e8-086c75889f84","","null","
            <div class=""stimulus-container"" style=""display: flex; align-items: center; justify-content: center; gap: 30px;"">
                <img src=""images/causal_sequence/the_performance_causal/the_performance_causal_6.png"" class=""exp-image"">
                <div style=""font-size: 40px; font-weight: bold; color: grey; border: 5px solid grey; padding: 25px; border-radius: 15px; background-color: #f0f0f0;"">
                    NEUTRAL<br>VALUE
                </div>
            </div>
            <div class=""question-area""></div>","null","","","","","","","",""
"","","","","","html-button-response","142","459238","0.0-141.0","580ADCFD2E564B2B97BDD21E0910B92B","019ce877-098a-7951-bf51-f5b5e1a5255a","019ce875-66c2-7f0b-b5e8-086c75889f84","","1023","
            <div class=""stimulus-container"" style=""display: flex; align-items: center; justify-content: center; gap: 30px;"">
                <img src=""images/causal_sequence/the_performance_causal/the_performance_causal_6.png"" class=""exp-image"">
                <div style=""font-size: 40px; font-weight: bold; color: grey; border: 5px solid grey; padding: 25px; border-radius: 15px; background-color: #f0f0f0;"">
                    NEUTRAL<br>VALUE
                </div>
            </div>
            <div class=""question-area"">
                <p style=""font-size: 20px; font-weight: bold; margin: 0;"">Was there a person in this image?</p>
            </div>","0","part2_value_learning","","the_performance_causal","6","neutral","","",""
"","","","","","html-keyboard-response","143","467239","0.0-142.0","580ADCFD2E564B2B97BDD21E0910B92B","019ce877-098a-7951-bf51-f5b5e1a5255a","019ce875-66c2-7f0b-b5e8-086c75889f84","","null","
            <div class=""stimulus-container"" style=""display: flex; align-items: center; justify-content: center; gap: 30px;"">
                <img src=""images/causal_sequence/dog_causal/dog_causal_4.png"" class=""exp-image"">
                <div style=""font-size: 40px; font-weight: bold; color: grey; border: 5px solid grey; padding: 25px; border-radius: 15px; background-color: #f0f0f0;"">
                    NEUTRAL<br>VALUE
                </div>
            </div>
            <div class=""question-area""></div>","null","","","","","","","",""
"","","","","","html-button-response","144","468820","0.0-143.0","580ADCFD2E564B2B97BDD21E0910B92B","019ce877-098a-7951-bf51-f5b5e1a5255a","019ce875-66c2-7f0b-b5e8-086c75889f84","","1579","
            <div class=""stimulus-container"" style=""display: flex; align-items: center; justify-content: center; gap: 30px;"">
                <img src=""images/causal_sequence/dog_causal/dog_causal_4.png"" class=""exp-image"">
                <div style=""font-size: 40px; font-weight: bold; color: grey; border: 5px solid grey; padding: 25px; border-radius: 15px; background-color: #f0f0f0;"">
                    NEUTRAL<br>VALUE
                </div>
            </div>
            <div class=""question-area"">
                <p style=""font-size: 20px; font-weight: bold; margin: 0;"">Was there a person in this image?</p>
            </div>","0","part2_value_learning","","dog_causal","4","neutral","","",""
"","","","","","instructions","145","471068","0.0-144.0","580ADCFD2E564B2B97BDD21E0910B92B","019ce877-098a-7951-bf51-f5b5e1a5255a","019ce875-66c2-7f0b-b5e8-086c75889f84","[{""page_index"":0,""viewing_time"":2247}]","2247","","","","","","","","","",""
"","","","","","html-keyboard-response","146","481071","0.0-145.0-0.0","580ADCFD2E564B2B97BDD21E0910B92B","019ce877-098a-7951-bf51-f5b5e1a5255a","019ce875-66c2-7f0b-b5e8-086c75889f84","","null","
                        <div style=""font-family: Arial; margin-bottom: 20px;""><h3>Which image is more valuable?</h3></div>
                        <div class=""stimulus-container"" style=""display: flex; width: 1100px; justify-content: center; gap: 50px;"">
                            <img src=""images/causal_sequence/package_causal/package_causal_6.png"" class=""exp-image"">
                            <img src=""images/causal_sequence/package_causal/package_causal_8.png"" class=""exp-image"">
                        </div>","null","","","","","","","",""
"","","","","","html-button-response","147","482407","0.0-145.0-1.0","580ADCFD2E564B2B97BDD21E0910B92B","019ce877-098a-7951-bf51-f5b5e1a5255a","019ce875-66c2-7f0b-b5e8-086c75889f84","","1334","
                        <div style=""font-family: Arial; margin-bottom: 20px;""><h3>Which image is more valuable?</h3></div>
                        <div class=""stimulus-container"" style=""display: flex; width: 1100px; justify-content: center; gap: 50px;"">
                            <img src=""images/causal_sequence/package_causal/package_causal_6.png"" class=""exp-image"">
                            <img src=""images/causal_sequence/package_causal/package_causal_8.png"" class=""exp-image"">
                        </div>","0","part3_final_choice","","package_causal","","valuable","7","6","-1"
"","","","","","html-keyboard-response","148","492410","0.0-146.0-0.0","580ADCFD2E564B2B97BDD21E0910B92B","019ce877-098a-7951-bf51-f5b5e1a5255a","019ce875-66c2-7f0b-b5e8-086c75889f84","","null","
                        <div style=""font-family: Arial; margin-bottom: 20px;""><h3>Which image is more valuable?</h3></div>
                        <div class=""stimulus-container"" style=""display: flex; width: 1100px; justify-content: center; gap: 50px;"">
                            <img src=""images/causal_sequence/museum_causal/museum_causal_8.png"" class=""exp-image"">
                            <img src=""images/causal_sequence/museum_causal/museum_causal_6.png"" class=""exp-image"">
                        </div>","null","","","","","","","",""
"","","","","","html-button-response","149","493254","0.0-146.0-1.0","580ADCFD2E564B2B97BDD21E0910B92B","019ce877-098a-7951-bf51-f5b5e1a5255a","019ce875-66c2-7f0b-b5e8-086c75889f84","","843","
                        <div style=""font-family: Arial; margin-bottom: 20px;""><h3>Which image is more valuable?</h3></div>
                        <div class=""stimulus-container"" style=""display: flex; width: 1100px; justify-content: center; gap: 50px;"">
                            <img src=""images/causal_sequence/museum_causal/museum_causal_8.png"" class=""exp-image"">
                            <img src=""images/causal_sequence/museum_causal/museum_causal_6.png"" class=""exp-image"">
                        </div>","0","part3_final_choice","","museum_causal","","neutral","7","8","1"
"","","","","","html-keyboard-response","150","503255","0.0-147.0-0.0","580ADCFD2E564B2B97BDD21E0910B92B","019ce877-098a-7951-bf51-f5b5e1a5255a","019ce875-66c2-7f0b-b5e8-086c75889f84","","null","
                        <div style=""font-family: Arial; margin-bottom: 20px;""><h3>Which image is more valuable?</h3></div>
                        <div class=""stimulus-container"" style=""display: flex; width: 1100px; justify-content: center; gap: 50px;"">
                            <img src=""images/causal_sequence/saving_a_cat_causal/saving_a_cat_causal_5.png"" class=""exp-image"">
                            <img src=""images/causal_sequence/saving_a_cat_causal/saving_a_cat_causal_3.png"" class=""exp-image"">
                        </div>","null","","","","","","","",""
"","","","","","html-button-response","151","504747","0.0-147.0-1.0","580ADCFD2E564B2B97BDD21E0910B92B","019ce877-098a-7951-bf51-f5b5e1a5255a","019ce875-66c2-7f0b-b5e8-086c75889f84","","1490","
                        <div style=""font-family: Arial; margin-bottom: 20px;""><h3>Which image is more valuable?</h3></div>
                        <div class=""stimulus-container"" style=""display: flex; width: 1100px; justify-content: center; gap: 50px;"">
                            <img src=""images/causal_sequence/saving_a_cat_causal/saving_a_cat_causal_5.png"" class=""exp-image"">
                            <img src=""images/causal_sequence/saving_a_cat_causal/saving_a_cat_causal_3.png"" class=""exp-image"">
                        </div>","0","part3_final_choice","","saving_a_cat_causal","","valuable","4","5","1"
"","","","","","html-keyboard-response","152","514749","0.0-148.0-0.0","580ADCFD2E564B2B97BDD21E0910B92B","019ce877-098a-7951-bf51-f5b5e1a5255a","019ce875-66c2-7f0b-b5e8-086c75889f84","","null","
                        <div style=""font-family: Arial; margin-bottom: 20px;""><h3>Which image is more valuable?</h3></div>
                        <div class=""stimulus-container"" style=""display: flex; width: 1100px; justify-content: center; gap: 50px;"">
                            <img src=""images/causal_sequence/dog_causal/dog_causal_3.png"" class=""exp-image"">
                            <img src=""images/causal_sequence/dog_causal/dog_causal_5.png"" class=""exp-image"">
                        </div>","null","","","","","","","",""
"","","","","","html-button-response","153","515570","0.0-148.0-1.0","580ADCFD2E564B2B97BDD21E0910B92B","019ce877-098a-7951-bf51-f5b5e1a5255a","019ce875-66c2-7f0b-b5e8-086c75889f84","","819","
                        <div style=""font-family: Arial; margin-bottom: 20px;""><h3>Which image is more valuable?</h3></div>
                        <div class=""stimulus-container"" style=""display: flex; width: 1100px; justify-content: center; gap: 50px;"">
                            <img src=""images/causal_sequence/dog_causal/dog_causal_3.png"" class=""exp-image"">
                            <img src=""images/causal_sequence/dog_causal/dog_causal_5.png"" class=""exp-image"">
                        </div>","1","part3_final_choice","","dog_causal","","neutral","4","5","1"
"","","","","","html-keyboard-response","154","525572","0.0-149.0-0.0","580ADCFD2E564B2B97BDD21E0910B92B","019ce877-098a-7951-bf51-f5b5e1a5255a","019ce875-66c2-7f0b-b5e8-086c75889f84","","null","
                        <div style=""font-family: Arial; margin-bottom: 20px;""><h3>Which image is more valuable?</h3></div>
                        <div class=""stimulus-container"" style=""display: flex; width: 1100px; justify-content: center; gap: 50px;"">
                            <img src=""images/causal_sequence/the_performance_causal/the_performance_causal_5.png"" class=""exp-image"">
                            <img src=""images/causal_sequence/the_performance_causal/the_performance_causal_7.png"" class=""exp-image"">
                        </div>","null","","","","","","","",""
"","","","","","html-button-response","155","526314","0.0-149.0-1.0","580ADCFD2E564B2B97BDD21E0910B92B","019ce877-098a-7951-bf51-f5b5e1a5255a","019ce875-66c2-7f0b-b5e8-086c75889f84","","741","
                        <div style=""font-family: Arial; margin-bottom: 20px;""><h3>Which image is more valuable?</h3></div>
                        <div class=""stimulus-container"" style=""display: flex; width: 1100px; justify-content: center; gap: 50px;"">
                            <img src=""images/causal_sequence/the_performance_causal/the_performance_causal_5.png"" class=""exp-image"">
                            <img src=""images/causal_sequence/the_performance_causal/the_performance_causal_7.png"" class=""exp-image"">
                        </div>","0","part3_final_choice","","the_performance_causal","","neutral","6","5","-1"
"","","","","","html-keyboard-response","156","536316","0.0-150.0-0.0","580ADCFD2E564B2B97BDD21E0910B92B","019ce877-098a-7951-bf51-f5b5e1a5255a","019ce875-66c2-7f0b-b5e8-086c75889f84","","null","
                        <div style=""font-family: Arial; margin-bottom: 20px;""><h3>Which image is more valuable?</h3></div>
                        <div class=""stimulus-container"" style=""display: flex; width: 1100px; justify-content: center; gap: 50px;"">
                            <img src=""images/causal_sequence/coin_causal/coin_causal_6.png"" class=""exp-image"">
                            <img src=""images/causal_sequence/coin_causal/coin_causal_4.png"" class=""exp-image"">
                        </div>","null","","","","","","","",""
"","","","","","html-button-response","157","537054","0.0-150.0-1.0","580ADCFD2E564B2B97BDD21E0910B92B","019ce877-098a-7951-bf51-f5b5e1a5255a","019ce875-66c2-7f0b-b5e8-086c75889f84","","737","
                        <div style=""font-family: Arial; margin-bottom: 20px;""><h3>Which image is more valuable?</h3></div>
                        <div class=""stimulus-container"" style=""display: flex; width: 1100px; justify-content: center; gap: 50px;"">
                            <img src=""images/causal_sequence/coin_causal/coin_causal_6.png"" class=""exp-image"">
                            <img src=""images/causal_sequence/coin_causal/coin_causal_4.png"" class=""exp-image"">
                        </div>","1","part3_final_choice","","coin_causal","","valuable","5","4","-1"
"","","","","","survey-text","158","584573","0.0-151.0","580ADCFD2E564B2B97BDD21E0910B92B","019ce877-098a-7951-bf51-f5b5e1a5255a","019ce875-66c2-7f0b-b5e8-086c75889f84","","47513","","{""gender"":""FEMALE"",""age"":""31"",""decision_strategy"":""I tried to figure out if there was a pattern based on the example images"",""consistency_check"":""I tried to stay consistent""}","demographics_and_strategy","","","","","","",""
"","","","","","instructions","159","596071","0.0-152.0","580ADCFD2E564B2B97BDD21E0910B92B","019ce877-098a-7951-bf51-f5b5e1a5255a","019ce875-66c2-7f0b-b5e8-086c75889f84","[{""page_index"":0,""viewing_time"":11498}]","11498","","","","","","","","","",""
