"success","timeout","failed_images","failed_audio","failed_video","trial_type","trial_index","time_elapsed","internal_node_id","subject_id","study_id","session_id","view_history","rt","stimulus","response","task","image_index","folder","sequence_type","valuable_image_index","reward_type","chosen_image_index","target_X","correct_choice"
"true","false","[]","[]","[]","preload","0","7580","0.0-0.0","62E3D649013F4C1CBBCC7FCE1AFC162F","019cf712-c929-763d-a09d-a6e507c8e41f","019cf6fe-235e-7d95-bb9b-b011d2fe188e","","","","","","","","","","","","",""
"","","","","","instructions","1","15287","0.0-1.0","62E3D649013F4C1CBBCC7FCE1AFC162F","019cf712-c929-763d-a09d-a6e507c8e41f","019cf6fe-235e-7d95-bb9b-b011d2fe188e","[{""page_index"":0,""viewing_time"":7706}]","7706","","","","","","","","","","",""
"","","","","","instructions","2","18554","0.0-2.0","62E3D649013F4C1CBBCC7FCE1AFC162F","019cf712-c929-763d-a09d-a6e507c8e41f","019cf6fe-235e-7d95-bb9b-b011d2fe188e","[{""page_index"":0,""viewing_time"":3266}]","3266","","","","","","","","","","",""
"true","","","","","fullscreen","3","20796","0.0-3.0","62E3D649013F4C1CBBCC7FCE1AFC162F","019cf712-c929-763d-a09d-a6e507c8e41f","019cf6fe-235e-7d95-bb9b-b011d2fe188e","","1239","","","","","","","","","","",""
"","","","","","instructions","4","30557","0.0-4.0","62E3D649013F4C1CBBCC7FCE1AFC162F","019cf712-c929-763d-a09d-a6e507c8e41f","019cf6fe-235e-7d95-bb9b-b011d2fe188e","[{""page_index"":0,""viewing_time"":9760}]","9760","","","","","","","","","","",""
"","","","","","instructions","5","36597","0.0-5.0","62E3D649013F4C1CBBCC7FCE1AFC162F","019cf712-c929-763d-a09d-a6e507c8e41f","019cf6fe-235e-7d95-bb9b-b011d2fe188e","[{""page_index"":0,""viewing_time"":6039}]","6040","","","","","","","","","","",""
"","","","","","html-keyboard-response","6","40599","0.0-6.0","62E3D649013F4C1CBBCC7FCE1AFC162F","019cf712-c929-763d-a09d-a6e507c8e41f","019cf6fe-235e-7d95-bb9b-b011d2fe188e","","null","
                <div class=""stimulus-container"">
                    <img src=""images/instructions/movie_1.png"" class=""exp-image"">
                    <div class=""question-area""></div> 
                </div>","null","","","","","","","","",""
"","","","","","html-button-response","7","41792","0.0-7.0","62E3D649013F4C1CBBCC7FCE1AFC162F","019cf712-c929-763d-a09d-a6e507c8e41f","019cf6fe-235e-7d95-bb9b-b011d2fe188e","","1192","
                <div class=""stimulus-container"">
                    <img src=""images/instructions/movie_1.png"" class=""exp-image"">
                    <div class=""question-area"">
                        <p style=""font-size: 20px; font-weight: bold; margin: 0;"">Was there a person in this image?</p>
                    </div>
                </div>","0","example_question","1","","","","","","",""
"","","","","","html-keyboard-response","8","45794","0.0-8.0","62E3D649013F4C1CBBCC7FCE1AFC162F","019cf712-c929-763d-a09d-a6e507c8e41f","019cf6fe-235e-7d95-bb9b-b011d2fe188e","","null","
                <div class=""stimulus-container"">
                    <img src=""images/instructions/movie_2.png"" class=""exp-image"">
                    <div class=""question-area""></div> 
                </div>","null","","","","","","","","",""
"","","","","","html-button-response","9","46519","0.0-9.0","62E3D649013F4C1CBBCC7FCE1AFC162F","019cf712-c929-763d-a09d-a6e507c8e41f","019cf6fe-235e-7d95-bb9b-b011d2fe188e","","724","
                <div class=""stimulus-container"">
                    <img src=""images/instructions/movie_2.png"" class=""exp-image"">
                    <div class=""question-area"">
                        <p style=""font-size: 20px; font-weight: bold; margin: 0;"">Was there a person in this image?</p>
                    </div>
                </div>","0","example_question","2","","","","","","",""
"","","","","","html-keyboard-response","10","50521","0.0-10.0","62E3D649013F4C1CBBCC7FCE1AFC162F","019cf712-c929-763d-a09d-a6e507c8e41f","019cf6fe-235e-7d95-bb9b-b011d2fe188e","","null","
                <div class=""stimulus-container"">
                    <img src=""images/instructions/movie_3.png"" class=""exp-image"">
                    <div class=""question-area""></div> 
                </div>","null","","","","","","","","",""
"","","","","","html-button-response","11","51280","0.0-11.0","62E3D649013F4C1CBBCC7FCE1AFC162F","019cf712-c929-763d-a09d-a6e507c8e41f","019cf6fe-235e-7d95-bb9b-b011d2fe188e","","758","
                <div class=""stimulus-container"">
                    <img src=""images/instructions/movie_3.png"" class=""exp-image"">
                    <div class=""question-area"">
                        <p style=""font-size: 20px; font-weight: bold; margin: 0;"">Was there a person in this image?</p>
                    </div>
                </div>","0","example_question","3","","","","","","",""
"","","","","","html-keyboard-response","12","55281","0.0-12.0","62E3D649013F4C1CBBCC7FCE1AFC162F","019cf712-c929-763d-a09d-a6e507c8e41f","019cf6fe-235e-7d95-bb9b-b011d2fe188e","","null","
                <div class=""stimulus-container"">
                    <img src=""images/instructions/movie_4.png"" class=""exp-image"">
                    <div class=""question-area""></div> 
                </div>","null","","","","","","","","",""
"","","","","","html-button-response","13","56495","0.0-13.0","62E3D649013F4C1CBBCC7FCE1AFC162F","019cf712-c929-763d-a09d-a6e507c8e41f","019cf6fe-235e-7d95-bb9b-b011d2fe188e","","1213","
                <div class=""stimulus-container"">
                    <img src=""images/instructions/movie_4.png"" class=""exp-image"">
                    <div class=""question-area"">
                        <p style=""font-size: 20px; font-weight: bold; margin: 0;"">Was there a person in this image?</p>
                    </div>
                </div>","0","example_question","4","","","","","","",""
"","","","","","instructions","14","59371","0.0-14.0","62E3D649013F4C1CBBCC7FCE1AFC162F","019cf712-c929-763d-a09d-a6e507c8e41f","019cf6fe-235e-7d95-bb9b-b011d2fe188e","[{""page_index"":0,""viewing_time"":2875}]","2875","","","","","","","","","","",""
"","","","","","instructions","15","64000","0.0-15.0","62E3D649013F4C1CBBCC7FCE1AFC162F","019cf712-c929-763d-a09d-a6e507c8e41f","019cf6fe-235e-7d95-bb9b-b011d2fe188e","[{""page_index"":0,""viewing_time"":4628}]","4628","","","","","","","","","","",""
"","","","","","html-keyboard-response","16","65002","0.0-16.0","62E3D649013F4C1CBBCC7FCE1AFC162F","019cf712-c929-763d-a09d-a6e507c8e41f","019cf6fe-235e-7d95-bb9b-b011d2fe188e","","null","<div style=""background-color: white; width: 100vw; height: 100vh;""></div>","null","","","","","","","","",""
"","","","","","html-keyboard-response","17","70005","0.0-17.0","62E3D649013F4C1CBBCC7FCE1AFC162F","019cf712-c929-763d-a09d-a6e507c8e41f","019cf6fe-235e-7d95-bb9b-b011d2fe188e","","null","
                <div class=""stimulus-container"">
                    <img src=""images/schematic_sequence/hotel_scheme/hotel_scheme_1.png"" class=""exp-image"">
                    <div class=""question-area""></div> 
                </div>","null","","","","","","","","",""
"","","","","","html-button-response","18","70896","0.0-18.0","62E3D649013F4C1CBBCC7FCE1AFC162F","019cf712-c929-763d-a09d-a6e507c8e41f","019cf6fe-235e-7d95-bb9b-b011d2fe188e","","890","
                <div class=""stimulus-container"">
                    <img src=""images/schematic_sequence/hotel_scheme/hotel_scheme_1.png"" class=""exp-image"">
                    <div class=""question-area"">
                        <p style=""font-size: 20px; font-weight: bold; margin: 0;"">Is there a person in this image?</p>
                    </div>
                </div>","1","main_experiment_trial","1","hotel_scheme","schematic_sequence","","","","",""
"","","","","","html-keyboard-response","19","75898","0.0-19.0","62E3D649013F4C1CBBCC7FCE1AFC162F","019cf712-c929-763d-a09d-a6e507c8e41f","019cf6fe-235e-7d95-bb9b-b011d2fe188e","","null","
                <div class=""stimulus-container"">
                    <img src=""images/schematic_sequence/hotel_scheme/hotel_scheme_2.png"" class=""exp-image"">
                    <div class=""question-area""></div> 
                </div>","null","","","","","","","","",""
"","","","","","html-button-response","20","76402","0.0-20.0","62E3D649013F4C1CBBCC7FCE1AFC162F","019cf712-c929-763d-a09d-a6e507c8e41f","019cf6fe-235e-7d95-bb9b-b011d2fe188e","","503","
                <div class=""stimulus-container"">
                    <img src=""images/schematic_sequence/hotel_scheme/hotel_scheme_2.png"" class=""exp-image"">
                    <div class=""question-area"">
                        <p style=""font-size: 20px; font-weight: bold; margin: 0;"">Is there a person in this image?</p>
                    </div>
                </div>","0","main_experiment_trial","2","hotel_scheme","schematic_sequence","","","","",""
"","","","","","html-keyboard-response","21","81404","0.0-21.0","62E3D649013F4C1CBBCC7FCE1AFC162F","019cf712-c929-763d-a09d-a6e507c8e41f","019cf6fe-235e-7d95-bb9b-b011d2fe188e","","null","
                <div class=""stimulus-container"">
                    <img src=""images/schematic_sequence/hotel_scheme/hotel_scheme_3.png"" class=""exp-image"">
                    <div class=""question-area""></div> 
                </div>","null","","","","","","","","",""
"","","","","","html-button-response","22","81974","0.0-22.0","62E3D649013F4C1CBBCC7FCE1AFC162F","019cf712-c929-763d-a09d-a6e507c8e41f","019cf6fe-235e-7d95-bb9b-b011d2fe188e","","570","
                <div class=""stimulus-container"">
                    <img src=""images/schematic_sequence/hotel_scheme/hotel_scheme_3.png"" class=""exp-image"">
                    <div class=""question-area"">
                        <p style=""font-size: 20px; font-weight: bold; margin: 0;"">Is there a person in this image?</p>
                    </div>
                </div>","0","main_experiment_trial","3","hotel_scheme","schematic_sequence","","","","",""
"","","","","","html-keyboard-response","23","86977","0.0-23.0","62E3D649013F4C1CBBCC7FCE1AFC162F","019cf712-c929-763d-a09d-a6e507c8e41f","019cf6fe-235e-7d95-bb9b-b011d2fe188e","","null","
                <div class=""stimulus-container"">
                    <img src=""images/schematic_sequence/hotel_scheme/hotel_scheme_4.png"" class=""exp-image"">
                    <div class=""question-area""></div> 
                </div>","null","","","","","","","","",""
"","","","","","html-button-response","24","87912","0.0-24.0","62E3D649013F4C1CBBCC7FCE1AFC162F","019cf712-c929-763d-a09d-a6e507c8e41f","019cf6fe-235e-7d95-bb9b-b011d2fe188e","","935","
                <div class=""stimulus-container"">
                    <img src=""images/schematic_sequence/hotel_scheme/hotel_scheme_4.png"" class=""exp-image"">
                    <div class=""question-area"">
                        <p style=""font-size: 20px; font-weight: bold; margin: 0;"">Is there a person in this image?</p>
                    </div>
                </div>","1","main_experiment_trial","4","hotel_scheme","schematic_sequence","","","","",""
"","","","","","html-keyboard-response","25","92913","0.0-25.0","62E3D649013F4C1CBBCC7FCE1AFC162F","019cf712-c929-763d-a09d-a6e507c8e41f","019cf6fe-235e-7d95-bb9b-b011d2fe188e","","null","
                <div class=""stimulus-container"">
                    <img src=""images/schematic_sequence/hotel_scheme/hotel_scheme_5.png"" class=""exp-image"">
                    <div class=""question-area""></div> 
                </div>","null","","","","","","","","",""
"","","","","","html-button-response","26","95078","0.0-26.0","62E3D649013F4C1CBBCC7FCE1AFC162F","019cf712-c929-763d-a09d-a6e507c8e41f","019cf6fe-235e-7d95-bb9b-b011d2fe188e","","2162","
                <div class=""stimulus-container"">
                    <img src=""images/schematic_sequence/hotel_scheme/hotel_scheme_5.png"" class=""exp-image"">
                    <div class=""question-area"">
                        <p style=""font-size: 20px; font-weight: bold; margin: 0;"">Is there a person in this image?</p>
                    </div>
                </div>","0","main_experiment_trial","5","hotel_scheme","schematic_sequence","","","","",""
"","","","","","html-keyboard-response","27","100084","0.0-27.0","62E3D649013F4C1CBBCC7FCE1AFC162F","019cf712-c929-763d-a09d-a6e507c8e41f","019cf6fe-235e-7d95-bb9b-b011d2fe188e","","null","
                <div class=""stimulus-container"">
                    <img src=""images/schematic_sequence/hotel_scheme/hotel_scheme_6.png"" class=""exp-image"">
                    <div class=""question-area""></div> 
                </div>","null","","","","","","","","",""
"","","","","","html-button-response","28","100898","0.0-28.0","62E3D649013F4C1CBBCC7FCE1AFC162F","019cf712-c929-763d-a09d-a6e507c8e41f","019cf6fe-235e-7d95-bb9b-b011d2fe188e","","813","
                <div class=""stimulus-container"">
                    <img src=""images/schematic_sequence/hotel_scheme/hotel_scheme_6.png"" class=""exp-image"">
                    <div class=""question-area"">
                        <p style=""font-size: 20px; font-weight: bold; margin: 0;"">Is there a person in this image?</p>
                    </div>
                </div>","0","main_experiment_trial","6","hotel_scheme","schematic_sequence","","","","",""
"","","","","","html-keyboard-response","29","105902","0.0-29.0","62E3D649013F4C1CBBCC7FCE1AFC162F","019cf712-c929-763d-a09d-a6e507c8e41f","019cf6fe-235e-7d95-bb9b-b011d2fe188e","","null","
                <div class=""stimulus-container"">
                    <img src=""images/schematic_sequence/hotel_scheme/hotel_scheme_7.png"" class=""exp-image"">
                    <div class=""question-area""></div> 
                </div>","null","","","","","","","","",""
"","","","","","html-button-response","30","106562","0.0-30.0","62E3D649013F4C1CBBCC7FCE1AFC162F","019cf712-c929-763d-a09d-a6e507c8e41f","019cf6fe-235e-7d95-bb9b-b011d2fe188e","","659","
                <div class=""stimulus-container"">
                    <img src=""images/schematic_sequence/hotel_scheme/hotel_scheme_7.png"" class=""exp-image"">
                    <div class=""question-area"">
                        <p style=""font-size: 20px; font-weight: bold; margin: 0;"">Is there a person in this image?</p>
                    </div>
                </div>","0","main_experiment_trial","7","hotel_scheme","schematic_sequence","","","","",""
"","","","","","html-keyboard-response","31","111566","0.0-31.0","62E3D649013F4C1CBBCC7FCE1AFC162F","019cf712-c929-763d-a09d-a6e507c8e41f","019cf6fe-235e-7d95-bb9b-b011d2fe188e","","null","
                <div class=""stimulus-container"">
                    <img src=""images/schematic_sequence/hotel_scheme/hotel_scheme_8.png"" class=""exp-image"">
                    <div class=""question-area""></div> 
                </div>","null","","","","","","","","",""
"","","","","","html-button-response","32","113359","0.0-32.0","62E3D649013F4C1CBBCC7FCE1AFC162F","019cf712-c929-763d-a09d-a6e507c8e41f","019cf6fe-235e-7d95-bb9b-b011d2fe188e","","1792","
                <div class=""stimulus-container"">
                    <img src=""images/schematic_sequence/hotel_scheme/hotel_scheme_8.png"" class=""exp-image"">
                    <div class=""question-area"">
                        <p style=""font-size: 20px; font-weight: bold; margin: 0;"">Is there a person in this image?</p>
                    </div>
                </div>","0","main_experiment_trial","8","hotel_scheme","schematic_sequence","","","","",""
"","","","","","html-keyboard-response","33","118362","0.0-33.0","62E3D649013F4C1CBBCC7FCE1AFC162F","019cf712-c929-763d-a09d-a6e507c8e41f","019cf6fe-235e-7d95-bb9b-b011d2fe188e","","null","
                <div class=""stimulus-container"">
                    <img src=""images/schematic_sequence/hotel_scheme/hotel_scheme_9.png"" class=""exp-image"">
                    <div class=""question-area""></div> 
                </div>","null","","","","","","","","",""
"","","","","","html-button-response","34","118927","0.0-34.0","62E3D649013F4C1CBBCC7FCE1AFC162F","019cf712-c929-763d-a09d-a6e507c8e41f","019cf6fe-235e-7d95-bb9b-b011d2fe188e","","564","
                <div class=""stimulus-container"">
                    <img src=""images/schematic_sequence/hotel_scheme/hotel_scheme_9.png"" class=""exp-image"">
                    <div class=""question-area"">
                        <p style=""font-size: 20px; font-weight: bold; margin: 0;"">Is there a person in this image?</p>
                    </div>
                </div>","0","main_experiment_trial","9","hotel_scheme","schematic_sequence","","","","",""
"","","","","","html-keyboard-response","35","123931","0.0-35.0","62E3D649013F4C1CBBCC7FCE1AFC162F","019cf712-c929-763d-a09d-a6e507c8e41f","019cf6fe-235e-7d95-bb9b-b011d2fe188e","","null","
                <div class=""stimulus-container"">
                    <img src=""images/schematic_sequence/hotel_scheme/hotel_scheme_ten.png"" class=""exp-image"">
                    <div class=""question-area""></div> 
                </div>","null","","","","","","","","",""
"","","","","","html-button-response","36","124678","0.0-36.0","62E3D649013F4C1CBBCC7FCE1AFC162F","019cf712-c929-763d-a09d-a6e507c8e41f","019cf6fe-235e-7d95-bb9b-b011d2fe188e","","746","
                <div class=""stimulus-container"">
                    <img src=""images/schematic_sequence/hotel_scheme/hotel_scheme_ten.png"" class=""exp-image"">
                    <div class=""question-area"">
                        <p style=""font-size: 20px; font-weight: bold; margin: 0;"">Is there a person in this image?</p>
                    </div>
                </div>","0","main_experiment_trial","ten","hotel_scheme","schematic_sequence","","","","",""
"","","","","","html-keyboard-response","37","125680","0.0-37.0","62E3D649013F4C1CBBCC7FCE1AFC162F","019cf712-c929-763d-a09d-a6e507c8e41f","019cf6fe-235e-7d95-bb9b-b011d2fe188e","","null","<div style=""background-color: white; width: 100vw; height: 100vh;""></div>","null","","","","","","","","",""
"","","","","","html-keyboard-response","38","130683","0.0-38.0","62E3D649013F4C1CBBCC7FCE1AFC162F","019cf712-c929-763d-a09d-a6e507c8e41f","019cf6fe-235e-7d95-bb9b-b011d2fe188e","","null","
                <div class=""stimulus-container"">
                    <img src=""images/schematic_sequence/supermarket_scheme/supermarket_scheme_1.png"" class=""exp-image"">
                    <div class=""question-area""></div> 
                </div>","null","","","","","","","","",""
"","","","","","html-button-response","39","131192","0.0-39.0","62E3D649013F4C1CBBCC7FCE1AFC162F","019cf712-c929-763d-a09d-a6e507c8e41f","019cf6fe-235e-7d95-bb9b-b011d2fe188e","","508","
                <div class=""stimulus-container"">
                    <img src=""images/schematic_sequence/supermarket_scheme/supermarket_scheme_1.png"" class=""exp-image"">
                    <div class=""question-area"">
                        <p style=""font-size: 20px; font-weight: bold; margin: 0;"">Is there a person in this image?</p>
                    </div>
                </div>","1","main_experiment_trial","1","supermarket_scheme","schematic_sequence","","","","",""
"","","","","","html-keyboard-response","40","136194","0.0-40.0","62E3D649013F4C1CBBCC7FCE1AFC162F","019cf712-c929-763d-a09d-a6e507c8e41f","019cf6fe-235e-7d95-bb9b-b011d2fe188e","","null","
                <div class=""stimulus-container"">
                    <img src=""images/schematic_sequence/supermarket_scheme/supermarket_scheme_2.png"" class=""exp-image"">
                    <div class=""question-area""></div> 
                </div>","null","","","","","","","","",""
"","","","","","html-button-response","41","138614","0.0-41.0","62E3D649013F4C1CBBCC7FCE1AFC162F","019cf712-c929-763d-a09d-a6e507c8e41f","019cf6fe-235e-7d95-bb9b-b011d2fe188e","","2419","
                <div class=""stimulus-container"">
                    <img src=""images/schematic_sequence/supermarket_scheme/supermarket_scheme_2.png"" class=""exp-image"">
                    <div class=""question-area"">
                        <p style=""font-size: 20px; font-weight: bold; margin: 0;"">Is there a person in this image?</p>
                    </div>
                </div>","1","main_experiment_trial","2","supermarket_scheme","schematic_sequence","","","","",""
"","","","","","html-keyboard-response","42","143617","0.0-42.0","62E3D649013F4C1CBBCC7FCE1AFC162F","019cf712-c929-763d-a09d-a6e507c8e41f","019cf6fe-235e-7d95-bb9b-b011d2fe188e","","null","
                <div class=""stimulus-container"">
                    <img src=""images/schematic_sequence/supermarket_scheme/supermarket_scheme_3.png"" class=""exp-image"">
                    <div class=""question-area""></div> 
                </div>","null","","","","","","","","",""
"","","","","","html-button-response","43","144421","0.0-43.0","62E3D649013F4C1CBBCC7FCE1AFC162F","019cf712-c929-763d-a09d-a6e507c8e41f","019cf6fe-235e-7d95-bb9b-b011d2fe188e","","803","
                <div class=""stimulus-container"">
                    <img src=""images/schematic_sequence/supermarket_scheme/supermarket_scheme_3.png"" class=""exp-image"">
                    <div class=""question-area"">
                        <p style=""font-size: 20px; font-weight: bold; margin: 0;"">Is there a person in this image?</p>
                    </div>
                </div>","1","main_experiment_trial","3","supermarket_scheme","schematic_sequence","","","","",""
"","","","","","html-keyboard-response","44","149424","0.0-44.0","62E3D649013F4C1CBBCC7FCE1AFC162F","019cf712-c929-763d-a09d-a6e507c8e41f","019cf6fe-235e-7d95-bb9b-b011d2fe188e","","null","
                <div class=""stimulus-container"">
                    <img src=""images/schematic_sequence/supermarket_scheme/supermarket_scheme_4.png"" class=""exp-image"">
                    <div class=""question-area""></div> 
                </div>","null","","","","","","","","",""
"","","","","","html-button-response","45","151360","0.0-45.0","62E3D649013F4C1CBBCC7FCE1AFC162F","019cf712-c929-763d-a09d-a6e507c8e41f","019cf6fe-235e-7d95-bb9b-b011d2fe188e","","1935","
                <div class=""stimulus-container"">
                    <img src=""images/schematic_sequence/supermarket_scheme/supermarket_scheme_4.png"" class=""exp-image"">
                    <div class=""question-area"">
                        <p style=""font-size: 20px; font-weight: bold; margin: 0;"">Is there a person in this image?</p>
                    </div>
                </div>","0","main_experiment_trial","4","supermarket_scheme","schematic_sequence","","","","",""
"","","","","","html-keyboard-response","46","156363","0.0-46.0","62E3D649013F4C1CBBCC7FCE1AFC162F","019cf712-c929-763d-a09d-a6e507c8e41f","019cf6fe-235e-7d95-bb9b-b011d2fe188e","","null","
                <div class=""stimulus-container"">
                    <img src=""images/schematic_sequence/supermarket_scheme/supermarket_scheme_5.png"" class=""exp-image"">
                    <div class=""question-area""></div> 
                </div>","null","","","","","","","","",""
"","","","","","html-button-response","47","158302","0.0-47.0","62E3D649013F4C1CBBCC7FCE1AFC162F","019cf712-c929-763d-a09d-a6e507c8e41f","019cf6fe-235e-7d95-bb9b-b011d2fe188e","","1938","
                <div class=""stimulus-container"">
                    <img src=""images/schematic_sequence/supermarket_scheme/supermarket_scheme_5.png"" class=""exp-image"">
                    <div class=""question-area"">
                        <p style=""font-size: 20px; font-weight: bold; margin: 0;"">Is there a person in this image?</p>
                    </div>
                </div>","1","main_experiment_trial","5","supermarket_scheme","schematic_sequence","","","","",""
"","","","","","html-keyboard-response","48","163304","0.0-48.0","62E3D649013F4C1CBBCC7FCE1AFC162F","019cf712-c929-763d-a09d-a6e507c8e41f","019cf6fe-235e-7d95-bb9b-b011d2fe188e","","null","
                <div class=""stimulus-container"">
                    <img src=""images/schematic_sequence/supermarket_scheme/supermarket_scheme_6.png"" class=""exp-image"">
                    <div class=""question-area""></div> 
                </div>","null","","","","","","","","",""
"","","","","","html-button-response","49","165572","0.0-49.0","62E3D649013F4C1CBBCC7FCE1AFC162F","019cf712-c929-763d-a09d-a6e507c8e41f","019cf6fe-235e-7d95-bb9b-b011d2fe188e","","2268","
                <div class=""stimulus-container"">
                    <img src=""images/schematic_sequence/supermarket_scheme/supermarket_scheme_6.png"" class=""exp-image"">
                    <div class=""question-area"">
                        <p style=""font-size: 20px; font-weight: bold; margin: 0;"">Is there a person in this image?</p>
                    </div>
                </div>","0","main_experiment_trial","6","supermarket_scheme","schematic_sequence","","","","",""
"","","","","","html-keyboard-response","50","170575","0.0-50.0","62E3D649013F4C1CBBCC7FCE1AFC162F","019cf712-c929-763d-a09d-a6e507c8e41f","019cf6fe-235e-7d95-bb9b-b011d2fe188e","","null","
                <div class=""stimulus-container"">
                    <img src=""images/schematic_sequence/supermarket_scheme/supermarket_scheme_7.png"" class=""exp-image"">
                    <div class=""question-area""></div> 
                </div>","null","","","","","","","","",""
"","","","","","html-button-response","51","171660","0.0-51.0","62E3D649013F4C1CBBCC7FCE1AFC162F","019cf712-c929-763d-a09d-a6e507c8e41f","019cf6fe-235e-7d95-bb9b-b011d2fe188e","","1084","
                <div class=""stimulus-container"">
                    <img src=""images/schematic_sequence/supermarket_scheme/supermarket_scheme_7.png"" class=""exp-image"">
                    <div class=""question-area"">
                        <p style=""font-size: 20px; font-weight: bold; margin: 0;"">Is there a person in this image?</p>
                    </div>
                </div>","0","main_experiment_trial","7","supermarket_scheme","schematic_sequence","","","","",""
"","","","","","html-keyboard-response","52","176663","0.0-52.0","62E3D649013F4C1CBBCC7FCE1AFC162F","019cf712-c929-763d-a09d-a6e507c8e41f","019cf6fe-235e-7d95-bb9b-b011d2fe188e","","null","
                <div class=""stimulus-container"">
                    <img src=""images/schematic_sequence/supermarket_scheme/supermarket_scheme_8.png"" class=""exp-image"">
                    <div class=""question-area""></div> 
                </div>","null","","","","","","","","",""
"","","","","","html-button-response","53","177393","0.0-53.0","62E3D649013F4C1CBBCC7FCE1AFC162F","019cf712-c929-763d-a09d-a6e507c8e41f","019cf6fe-235e-7d95-bb9b-b011d2fe188e","","730","
                <div class=""stimulus-container"">
                    <img src=""images/schematic_sequence/supermarket_scheme/supermarket_scheme_8.png"" class=""exp-image"">
                    <div class=""question-area"">
                        <p style=""font-size: 20px; font-weight: bold; margin: 0;"">Is there a person in this image?</p>
                    </div>
                </div>","0","main_experiment_trial","8","supermarket_scheme","schematic_sequence","","","","",""
"","","","","","html-keyboard-response","54","182395","0.0-54.0","62E3D649013F4C1CBBCC7FCE1AFC162F","019cf712-c929-763d-a09d-a6e507c8e41f","019cf6fe-235e-7d95-bb9b-b011d2fe188e","","null","
                <div class=""stimulus-container"">
                    <img src=""images/schematic_sequence/supermarket_scheme/supermarket_scheme_9.png"" class=""exp-image"">
                    <div class=""question-area""></div> 
                </div>","null","","","","","","","","",""
"","","","","","html-button-response","55","182944","0.0-55.0","62E3D649013F4C1CBBCC7FCE1AFC162F","019cf712-c929-763d-a09d-a6e507c8e41f","019cf6fe-235e-7d95-bb9b-b011d2fe188e","","548","
                <div class=""stimulus-container"">
                    <img src=""images/schematic_sequence/supermarket_scheme/supermarket_scheme_9.png"" class=""exp-image"">
                    <div class=""question-area"">
                        <p style=""font-size: 20px; font-weight: bold; margin: 0;"">Is there a person in this image?</p>
                    </div>
                </div>","0","main_experiment_trial","9","supermarket_scheme","schematic_sequence","","","","",""
"","","","","","html-keyboard-response","56","187946","0.0-56.0","62E3D649013F4C1CBBCC7FCE1AFC162F","019cf712-c929-763d-a09d-a6e507c8e41f","019cf6fe-235e-7d95-bb9b-b011d2fe188e","","null","
                <div class=""stimulus-container"">
                    <img src=""images/schematic_sequence/supermarket_scheme/supermarket_scheme_ten.png"" class=""exp-image"">
                    <div class=""question-area""></div> 
                </div>","null","","","","","","","","",""
"","","","","","html-button-response","57","190948","0.0-57.0","62E3D649013F4C1CBBCC7FCE1AFC162F","019cf712-c929-763d-a09d-a6e507c8e41f","019cf6fe-235e-7d95-bb9b-b011d2fe188e","","null","
                <div class=""stimulus-container"">
                    <img src=""images/schematic_sequence/supermarket_scheme/supermarket_scheme_ten.png"" class=""exp-image"">
                    <div class=""question-area"">
                        <p style=""font-size: 20px; font-weight: bold; margin: 0;"">Is there a person in this image?</p>
                    </div>
                </div>","null","main_experiment_trial","ten","supermarket_scheme","schematic_sequence","","","","",""
"","","","","","html-keyboard-response","58","191951","0.0-58.0","62E3D649013F4C1CBBCC7FCE1AFC162F","019cf712-c929-763d-a09d-a6e507c8e41f","019cf6fe-235e-7d95-bb9b-b011d2fe188e","","null","<div style=""background-color: white; width: 100vw; height: 100vh;""></div>","null","","","","","","","","",""
"","","","","","html-keyboard-response","59","196952","0.0-59.0","62E3D649013F4C1CBBCC7FCE1AFC162F","019cf712-c929-763d-a09d-a6e507c8e41f","019cf6fe-235e-7d95-bb9b-b011d2fe188e","","null","
                <div class=""stimulus-container"">
                    <img src=""images/causal_sequence/package_causal/package_causal_1.png"" class=""exp-image"">
                    <div class=""question-area""></div> 
                </div>","null","","","","","","","","",""
"","","","","","html-button-response","60","197570","0.0-60.0","62E3D649013F4C1CBBCC7FCE1AFC162F","019cf712-c929-763d-a09d-a6e507c8e41f","019cf6fe-235e-7d95-bb9b-b011d2fe188e","","617","
                <div class=""stimulus-container"">
                    <img src=""images/causal_sequence/package_causal/package_causal_1.png"" class=""exp-image"">
                    <div class=""question-area"">
                        <p style=""font-size: 20px; font-weight: bold; margin: 0;"">Is there a person in this image?</p>
                    </div>
                </div>","0","main_experiment_trial","1","package_causal","causal_sequence","","","","",""
"","","","","","html-keyboard-response","61","202572","0.0-61.0","62E3D649013F4C1CBBCC7FCE1AFC162F","019cf712-c929-763d-a09d-a6e507c8e41f","019cf6fe-235e-7d95-bb9b-b011d2fe188e","","null","
                <div class=""stimulus-container"">
                    <img src=""images/causal_sequence/package_causal/package_causal_2.png"" class=""exp-image"">
                    <div class=""question-area""></div> 
                </div>","null","","","","","","","","",""
"","","","","","html-button-response","62","203142","0.0-62.0","62E3D649013F4C1CBBCC7FCE1AFC162F","019cf712-c929-763d-a09d-a6e507c8e41f","019cf6fe-235e-7d95-bb9b-b011d2fe188e","","570","
                <div class=""stimulus-container"">
                    <img src=""images/causal_sequence/package_causal/package_causal_2.png"" class=""exp-image"">
                    <div class=""question-area"">
                        <p style=""font-size: 20px; font-weight: bold; margin: 0;"">Is there a person in this image?</p>
                    </div>
                </div>","0","main_experiment_trial","2","package_causal","causal_sequence","","","","",""
"","","","","","html-keyboard-response","63","208145","0.0-63.0","62E3D649013F4C1CBBCC7FCE1AFC162F","019cf712-c929-763d-a09d-a6e507c8e41f","019cf6fe-235e-7d95-bb9b-b011d2fe188e","","null","
                <div class=""stimulus-container"">
                    <img src=""images/causal_sequence/package_causal/package_causal_3.png"" class=""exp-image"">
                    <div class=""question-area""></div> 
                </div>","null","","","","","","","","",""
"","","","","","html-button-response","64","209148","0.0-64.0","62E3D649013F4C1CBBCC7FCE1AFC162F","019cf712-c929-763d-a09d-a6e507c8e41f","019cf6fe-235e-7d95-bb9b-b011d2fe188e","","1001","
                <div class=""stimulus-container"">
                    <img src=""images/causal_sequence/package_causal/package_causal_3.png"" class=""exp-image"">
                    <div class=""question-area"">
                        <p style=""font-size: 20px; font-weight: bold; margin: 0;"">Is there a person in this image?</p>
                    </div>
                </div>","0","main_experiment_trial","3","package_causal","causal_sequence","","","","",""
"","","","","","html-keyboard-response","65","214149","0.0-65.0","62E3D649013F4C1CBBCC7FCE1AFC162F","019cf712-c929-763d-a09d-a6e507c8e41f","019cf6fe-235e-7d95-bb9b-b011d2fe188e","","null","
                <div class=""stimulus-container"">
                    <img src=""images/causal_sequence/package_causal/package_causal_4.png"" class=""exp-image"">
                    <div class=""question-area""></div> 
                </div>","null","","","","","","","","",""
"","","","","","html-button-response","66","215037","0.0-66.0","62E3D649013F4C1CBBCC7FCE1AFC162F","019cf712-c929-763d-a09d-a6e507c8e41f","019cf6fe-235e-7d95-bb9b-b011d2fe188e","","887","
                <div class=""stimulus-container"">
                    <img src=""images/causal_sequence/package_causal/package_causal_4.png"" class=""exp-image"">
                    <div class=""question-area"">
                        <p style=""font-size: 20px; font-weight: bold; margin: 0;"">Is there a person in this image?</p>
                    </div>
                </div>","1","main_experiment_trial","4","package_causal","causal_sequence","","","","",""
"","","","","","html-keyboard-response","67","220038","0.0-67.0","62E3D649013F4C1CBBCC7FCE1AFC162F","019cf712-c929-763d-a09d-a6e507c8e41f","019cf6fe-235e-7d95-bb9b-b011d2fe188e","","null","
                <div class=""stimulus-container"">
                    <img src=""images/causal_sequence/package_causal/package_causal_5.png"" class=""exp-image"">
                    <div class=""question-area""></div> 
                </div>","null","","","","","","","","",""
"","","","","","html-button-response","68","220640","0.0-68.0","62E3D649013F4C1CBBCC7FCE1AFC162F","019cf712-c929-763d-a09d-a6e507c8e41f","019cf6fe-235e-7d95-bb9b-b011d2fe188e","","602","
                <div class=""stimulus-container"">
                    <img src=""images/causal_sequence/package_causal/package_causal_5.png"" class=""exp-image"">
                    <div class=""question-area"">
                        <p style=""font-size: 20px; font-weight: bold; margin: 0;"">Is there a person in this image?</p>
                    </div>
                </div>","0","main_experiment_trial","5","package_causal","causal_sequence","","","","",""
"","","","","","html-keyboard-response","69","225643","0.0-69.0","62E3D649013F4C1CBBCC7FCE1AFC162F","019cf712-c929-763d-a09d-a6e507c8e41f","019cf6fe-235e-7d95-bb9b-b011d2fe188e","","null","
                <div class=""stimulus-container"">
                    <img src=""images/causal_sequence/package_causal/package_causal_6.png"" class=""exp-image"">
                    <div class=""question-area""></div> 
                </div>","null","","","","","","","","",""
"","","","","","html-button-response","70","226489","0.0-70.0","62E3D649013F4C1CBBCC7FCE1AFC162F","019cf712-c929-763d-a09d-a6e507c8e41f","019cf6fe-235e-7d95-bb9b-b011d2fe188e","","845","
                <div class=""stimulus-container"">
                    <img src=""images/causal_sequence/package_causal/package_causal_6.png"" class=""exp-image"">
                    <div class=""question-area"">
                        <p style=""font-size: 20px; font-weight: bold; margin: 0;"">Is there a person in this image?</p>
                    </div>
                </div>","0","main_experiment_trial","6","package_causal","causal_sequence","","","","",""
"","","","","","html-keyboard-response","71","231490","0.0-71.0","62E3D649013F4C1CBBCC7FCE1AFC162F","019cf712-c929-763d-a09d-a6e507c8e41f","019cf6fe-235e-7d95-bb9b-b011d2fe188e","","null","
                <div class=""stimulus-container"">
                    <img src=""images/causal_sequence/package_causal/package_causal_7.png"" class=""exp-image"">
                    <div class=""question-area""></div> 
                </div>","null","","","","","","","","",""
"","","","","","html-button-response","72","232241","0.0-72.0","62E3D649013F4C1CBBCC7FCE1AFC162F","019cf712-c929-763d-a09d-a6e507c8e41f","019cf6fe-235e-7d95-bb9b-b011d2fe188e","","750","
                <div class=""stimulus-container"">
                    <img src=""images/causal_sequence/package_causal/package_causal_7.png"" class=""exp-image"">
                    <div class=""question-area"">
                        <p style=""font-size: 20px; font-weight: bold; margin: 0;"">Is there a person in this image?</p>
                    </div>
                </div>","0","main_experiment_trial","7","package_causal","causal_sequence","","","","",""
"","","","","","html-keyboard-response","73","237243","0.0-73.0","62E3D649013F4C1CBBCC7FCE1AFC162F","019cf712-c929-763d-a09d-a6e507c8e41f","019cf6fe-235e-7d95-bb9b-b011d2fe188e","","null","
                <div class=""stimulus-container"">
                    <img src=""images/causal_sequence/package_causal/package_causal_8.png"" class=""exp-image"">
                    <div class=""question-area""></div> 
                </div>","null","","","","","","","","",""
"","","","","","html-button-response","74","238073","0.0-74.0","62E3D649013F4C1CBBCC7FCE1AFC162F","019cf712-c929-763d-a09d-a6e507c8e41f","019cf6fe-235e-7d95-bb9b-b011d2fe188e","","829","
                <div class=""stimulus-container"">
                    <img src=""images/causal_sequence/package_causal/package_causal_8.png"" class=""exp-image"">
                    <div class=""question-area"">
                        <p style=""font-size: 20px; font-weight: bold; margin: 0;"">Is there a person in this image?</p>
                    </div>
                </div>","0","main_experiment_trial","8","package_causal","causal_sequence","","","","",""
"","","","","","html-keyboard-response","75","243076","0.0-75.0","62E3D649013F4C1CBBCC7FCE1AFC162F","019cf712-c929-763d-a09d-a6e507c8e41f","019cf6fe-235e-7d95-bb9b-b011d2fe188e","","null","
                <div class=""stimulus-container"">
                    <img src=""images/causal_sequence/package_causal/package_causal_9.png"" class=""exp-image"">
                    <div class=""question-area""></div> 
                </div>","null","","","","","","","","",""
"","","","","","html-button-response","76","243669","0.0-76.0","62E3D649013F4C1CBBCC7FCE1AFC162F","019cf712-c929-763d-a09d-a6e507c8e41f","019cf6fe-235e-7d95-bb9b-b011d2fe188e","","593","
                <div class=""stimulus-container"">
                    <img src=""images/causal_sequence/package_causal/package_causal_9.png"" class=""exp-image"">
                    <div class=""question-area"">
                        <p style=""font-size: 20px; font-weight: bold; margin: 0;"">Is there a person in this image?</p>
                    </div>
                </div>","0","main_experiment_trial","9","package_causal","causal_sequence","","","","",""
"","","","","","html-keyboard-response","77","248671","0.0-77.0","62E3D649013F4C1CBBCC7FCE1AFC162F","019cf712-c929-763d-a09d-a6e507c8e41f","019cf6fe-235e-7d95-bb9b-b011d2fe188e","","null","
                <div class=""stimulus-container"">
                    <img src=""images/causal_sequence/package_causal/package_causal_ten.png"" class=""exp-image"">
                    <div class=""question-area""></div> 
                </div>","null","","","","","","","","",""
"","","","","","html-button-response","78","250319","0.0-78.0","62E3D649013F4C1CBBCC7FCE1AFC162F","019cf712-c929-763d-a09d-a6e507c8e41f","019cf6fe-235e-7d95-bb9b-b011d2fe188e","","1648","
                <div class=""stimulus-container"">
                    <img src=""images/causal_sequence/package_causal/package_causal_ten.png"" class=""exp-image"">
                    <div class=""question-area"">
                        <p style=""font-size: 20px; font-weight: bold; margin: 0;"">Is there a person in this image?</p>
                    </div>
                </div>","0","main_experiment_trial","ten","package_causal","causal_sequence","","","","",""
"","","","","","html-keyboard-response","79","251321","0.0-79.0","62E3D649013F4C1CBBCC7FCE1AFC162F","019cf712-c929-763d-a09d-a6e507c8e41f","019cf6fe-235e-7d95-bb9b-b011d2fe188e","","null","<div style=""background-color: white; width: 100vw; height: 100vh;""></div>","null","","","","","","","","",""
"","","","","","html-keyboard-response","80","256323","0.0-80.0","62E3D649013F4C1CBBCC7FCE1AFC162F","019cf712-c929-763d-a09d-a6e507c8e41f","019cf6fe-235e-7d95-bb9b-b011d2fe188e","","null","
                <div class=""stimulus-container"">
                    <img src=""images/schematic_sequence/dinner_party_scheme/dinner_party_scheme_1.png"" class=""exp-image"">
                    <div class=""question-area""></div> 
                </div>","null","","","","","","","","",""
"","","","","","html-button-response","81","256995","0.0-81.0","62E3D649013F4C1CBBCC7FCE1AFC162F","019cf712-c929-763d-a09d-a6e507c8e41f","019cf6fe-235e-7d95-bb9b-b011d2fe188e","","671","
                <div class=""stimulus-container"">
                    <img src=""images/schematic_sequence/dinner_party_scheme/dinner_party_scheme_1.png"" class=""exp-image"">
                    <div class=""question-area"">
                        <p style=""font-size: 20px; font-weight: bold; margin: 0;"">Is there a person in this image?</p>
                    </div>
                </div>","0","main_experiment_trial","1","dinner_party_scheme","schematic_sequence","","","","",""
"","","","","","html-keyboard-response","82","261997","0.0-82.0","62E3D649013F4C1CBBCC7FCE1AFC162F","019cf712-c929-763d-a09d-a6e507c8e41f","019cf6fe-235e-7d95-bb9b-b011d2fe188e","","null","
                <div class=""stimulus-container"">
                    <img src=""images/schematic_sequence/dinner_party_scheme/dinner_party_scheme_2.png"" class=""exp-image"">
                    <div class=""question-area""></div> 
                </div>","null","","","","","","","","",""
"","","","","","html-button-response","83","263368","0.0-83.0","62E3D649013F4C1CBBCC7FCE1AFC162F","019cf712-c929-763d-a09d-a6e507c8e41f","019cf6fe-235e-7d95-bb9b-b011d2fe188e","","1370","
                <div class=""stimulus-container"">
                    <img src=""images/schematic_sequence/dinner_party_scheme/dinner_party_scheme_2.png"" class=""exp-image"">
                    <div class=""question-area"">
                        <p style=""font-size: 20px; font-weight: bold; margin: 0;"">Is there a person in this image?</p>
                    </div>
                </div>","0","main_experiment_trial","2","dinner_party_scheme","schematic_sequence","","","","",""
"","","","","","html-keyboard-response","84","268370","0.0-84.0","62E3D649013F4C1CBBCC7FCE1AFC162F","019cf712-c929-763d-a09d-a6e507c8e41f","019cf6fe-235e-7d95-bb9b-b011d2fe188e","","null","
                <div class=""stimulus-container"">
                    <img src=""images/schematic_sequence/dinner_party_scheme/dinner_party_scheme_3.png"" class=""exp-image"">
                    <div class=""question-area""></div> 
                </div>","null","","","","","","","","",""
"","","","","","html-button-response","85","269239","0.0-85.0","62E3D649013F4C1CBBCC7FCE1AFC162F","019cf712-c929-763d-a09d-a6e507c8e41f","019cf6fe-235e-7d95-bb9b-b011d2fe188e","","868","
                <div class=""stimulus-container"">
                    <img src=""images/schematic_sequence/dinner_party_scheme/dinner_party_scheme_3.png"" class=""exp-image"">
                    <div class=""question-area"">
                        <p style=""font-size: 20px; font-weight: bold; margin: 0;"">Is there a person in this image?</p>
                    </div>
                </div>","0","main_experiment_trial","3","dinner_party_scheme","schematic_sequence","","","","",""
"","","","","","html-keyboard-response","86","274241","0.0-86.0","62E3D649013F4C1CBBCC7FCE1AFC162F","019cf712-c929-763d-a09d-a6e507c8e41f","019cf6fe-235e-7d95-bb9b-b011d2fe188e","","null","
                <div class=""stimulus-container"">
                    <img src=""images/schematic_sequence/dinner_party_scheme/dinner_party_scheme_4.png"" class=""exp-image"">
                    <div class=""question-area""></div> 
                </div>","null","","","","","","","","",""
"","","","","","html-button-response","87","277010","0.0-87.0","62E3D649013F4C1CBBCC7FCE1AFC162F","019cf712-c929-763d-a09d-a6e507c8e41f","019cf6fe-235e-7d95-bb9b-b011d2fe188e","","2767","
                <div class=""stimulus-container"">
                    <img src=""images/schematic_sequence/dinner_party_scheme/dinner_party_scheme_4.png"" class=""exp-image"">
                    <div class=""question-area"">
                        <p style=""font-size: 20px; font-weight: bold; margin: 0;"">Is there a person in this image?</p>
                    </div>
                </div>","0","main_experiment_trial","4","dinner_party_scheme","schematic_sequence","","","","",""
"","","","","","html-keyboard-response","88","282012","0.0-88.0","62E3D649013F4C1CBBCC7FCE1AFC162F","019cf712-c929-763d-a09d-a6e507c8e41f","019cf6fe-235e-7d95-bb9b-b011d2fe188e","","null","
                <div class=""stimulus-container"">
                    <img src=""images/schematic_sequence/dinner_party_scheme/dinner_party_scheme_5.png"" class=""exp-image"">
                    <div class=""question-area""></div> 
                </div>","null","","","","","","","","",""
"","","","","","html-button-response","89","284100","0.0-89.0","62E3D649013F4C1CBBCC7FCE1AFC162F","019cf712-c929-763d-a09d-a6e507c8e41f","019cf6fe-235e-7d95-bb9b-b011d2fe188e","","2086","
                <div class=""stimulus-container"">
                    <img src=""images/schematic_sequence/dinner_party_scheme/dinner_party_scheme_5.png"" class=""exp-image"">
                    <div class=""question-area"">
                        <p style=""font-size: 20px; font-weight: bold; margin: 0;"">Is there a person in this image?</p>
                    </div>
                </div>","0","main_experiment_trial","5","dinner_party_scheme","schematic_sequence","","","","",""
"","","","","","html-keyboard-response","90","289102","0.0-90.0","62E3D649013F4C1CBBCC7FCE1AFC162F","019cf712-c929-763d-a09d-a6e507c8e41f","019cf6fe-235e-7d95-bb9b-b011d2fe188e","","null","
                <div class=""stimulus-container"">
                    <img src=""images/schematic_sequence/dinner_party_scheme/dinner_party_scheme_6.png"" class=""exp-image"">
                    <div class=""question-area""></div> 
                </div>","null","","","","","","","","",""
"","","","","","html-button-response","91","289872","0.0-91.0","62E3D649013F4C1CBBCC7FCE1AFC162F","019cf712-c929-763d-a09d-a6e507c8e41f","019cf6fe-235e-7d95-bb9b-b011d2fe188e","","769","
                <div class=""stimulus-container"">
                    <img src=""images/schematic_sequence/dinner_party_scheme/dinner_party_scheme_6.png"" class=""exp-image"">
                    <div class=""question-area"">
                        <p style=""font-size: 20px; font-weight: bold; margin: 0;"">Is there a person in this image?</p>
                    </div>
                </div>","0","main_experiment_trial","6","dinner_party_scheme","schematic_sequence","","","","",""
"","","","","","html-keyboard-response","92","294874","0.0-92.0","62E3D649013F4C1CBBCC7FCE1AFC162F","019cf712-c929-763d-a09d-a6e507c8e41f","019cf6fe-235e-7d95-bb9b-b011d2fe188e","","null","
                <div class=""stimulus-container"">
                    <img src=""images/schematic_sequence/dinner_party_scheme/dinner_party_scheme_7.png"" class=""exp-image"">
                    <div class=""question-area""></div> 
                </div>","null","","","","","","","","",""
"","","","","","html-button-response","93","296708","0.0-93.0","62E3D649013F4C1CBBCC7FCE1AFC162F","019cf712-c929-763d-a09d-a6e507c8e41f","019cf6fe-235e-7d95-bb9b-b011d2fe188e","","1833","
                <div class=""stimulus-container"">
                    <img src=""images/schematic_sequence/dinner_party_scheme/dinner_party_scheme_7.png"" class=""exp-image"">
                    <div class=""question-area"">
                        <p style=""font-size: 20px; font-weight: bold; margin: 0;"">Is there a person in this image?</p>
                    </div>
                </div>","0","main_experiment_trial","7","dinner_party_scheme","schematic_sequence","","","","",""
"","","","","","html-keyboard-response","94","301711","0.0-94.0","62E3D649013F4C1CBBCC7FCE1AFC162F","019cf712-c929-763d-a09d-a6e507c8e41f","019cf6fe-235e-7d95-bb9b-b011d2fe188e","","null","
                <div class=""stimulus-container"">
                    <img src=""images/schematic_sequence/dinner_party_scheme/dinner_party_scheme_8.png"" class=""exp-image"">
                    <div class=""question-area""></div> 
                </div>","null","","","","","","","","",""
"","","","","","html-button-response","95","302226","0.0-95.0","62E3D649013F4C1CBBCC7FCE1AFC162F","019cf712-c929-763d-a09d-a6e507c8e41f","019cf6fe-235e-7d95-bb9b-b011d2fe188e","","513","
                <div class=""stimulus-container"">
                    <img src=""images/schematic_sequence/dinner_party_scheme/dinner_party_scheme_8.png"" class=""exp-image"">
                    <div class=""question-area"">
                        <p style=""font-size: 20px; font-weight: bold; margin: 0;"">Is there a person in this image?</p>
                    </div>
                </div>","0","main_experiment_trial","8","dinner_party_scheme","schematic_sequence","","","","",""
"","","","","","html-keyboard-response","96","307228","0.0-96.0","62E3D649013F4C1CBBCC7FCE1AFC162F","019cf712-c929-763d-a09d-a6e507c8e41f","019cf6fe-235e-7d95-bb9b-b011d2fe188e","","null","
                <div class=""stimulus-container"">
                    <img src=""images/schematic_sequence/dinner_party_scheme/dinner_party_scheme_9.png"" class=""exp-image"">
                    <div class=""question-area""></div> 
                </div>","null","","","","","","","","",""
"","","","","","html-button-response","97","307894","0.0-97.0","62E3D649013F4C1CBBCC7FCE1AFC162F","019cf712-c929-763d-a09d-a6e507c8e41f","019cf6fe-235e-7d95-bb9b-b011d2fe188e","","666","
                <div class=""stimulus-container"">
                    <img src=""images/schematic_sequence/dinner_party_scheme/dinner_party_scheme_9.png"" class=""exp-image"">
                    <div class=""question-area"">
                        <p style=""font-size: 20px; font-weight: bold; margin: 0;"">Is there a person in this image?</p>
                    </div>
                </div>","0","main_experiment_trial","9","dinner_party_scheme","schematic_sequence","","","","",""
"","","","","","html-keyboard-response","98","312897","0.0-98.0","62E3D649013F4C1CBBCC7FCE1AFC162F","019cf712-c929-763d-a09d-a6e507c8e41f","019cf6fe-235e-7d95-bb9b-b011d2fe188e","","null","
                <div class=""stimulus-container"">
                    <img src=""images/schematic_sequence/dinner_party_scheme/dinner_party_scheme_ten.png"" class=""exp-image"">
                    <div class=""question-area""></div> 
                </div>","null","","","","","","","","",""
"","","","","","html-button-response","99","314231","0.0-99.0","62E3D649013F4C1CBBCC7FCE1AFC162F","019cf712-c929-763d-a09d-a6e507c8e41f","019cf6fe-235e-7d95-bb9b-b011d2fe188e","","1333","
                <div class=""stimulus-container"">
                    <img src=""images/schematic_sequence/dinner_party_scheme/dinner_party_scheme_ten.png"" class=""exp-image"">
                    <div class=""question-area"">
                        <p style=""font-size: 20px; font-weight: bold; margin: 0;"">Is there a person in this image?</p>
                    </div>
                </div>","0","main_experiment_trial","ten","dinner_party_scheme","schematic_sequence","","","","",""
"","","","","","html-keyboard-response","100","315232","0.0-100.0","62E3D649013F4C1CBBCC7FCE1AFC162F","019cf712-c929-763d-a09d-a6e507c8e41f","019cf6fe-235e-7d95-bb9b-b011d2fe188e","","null","<div style=""background-color: white; width: 100vw; height: 100vh;""></div>","null","","","","","","","","",""
"","","","","","html-keyboard-response","101","320234","0.0-101.0","62E3D649013F4C1CBBCC7FCE1AFC162F","019cf712-c929-763d-a09d-a6e507c8e41f","019cf6fe-235e-7d95-bb9b-b011d2fe188e","","null","
                <div class=""stimulus-container"">
                    <img src=""images/causal_sequence/museum_causal/museum_causal_1.png"" class=""exp-image"">
                    <div class=""question-area""></div> 
                </div>","null","","","","","","","","",""
"","","","","","html-button-response","102","321540","0.0-102.0","62E3D649013F4C1CBBCC7FCE1AFC162F","019cf712-c929-763d-a09d-a6e507c8e41f","019cf6fe-235e-7d95-bb9b-b011d2fe188e","","1306","
                <div class=""stimulus-container"">
                    <img src=""images/causal_sequence/museum_causal/museum_causal_1.png"" class=""exp-image"">
                    <div class=""question-area"">
                        <p style=""font-size: 20px; font-weight: bold; margin: 0;"">Is there a person in this image?</p>
                    </div>
                </div>","0","main_experiment_trial","1","museum_causal","causal_sequence","","","","",""
"","","","","","html-keyboard-response","103","326543","0.0-103.0","62E3D649013F4C1CBBCC7FCE1AFC162F","019cf712-c929-763d-a09d-a6e507c8e41f","019cf6fe-235e-7d95-bb9b-b011d2fe188e","","null","
                <div class=""stimulus-container"">
                    <img src=""images/causal_sequence/museum_causal/museum_causal_2.png"" class=""exp-image"">
                    <div class=""question-area""></div> 
                </div>","null","","","","","","","","",""
"","","","","","html-button-response","104","327744","0.0-104.0","62E3D649013F4C1CBBCC7FCE1AFC162F","019cf712-c929-763d-a09d-a6e507c8e41f","019cf6fe-235e-7d95-bb9b-b011d2fe188e","","1200","
                <div class=""stimulus-container"">
                    <img src=""images/causal_sequence/museum_causal/museum_causal_2.png"" class=""exp-image"">
                    <div class=""question-area"">
                        <p style=""font-size: 20px; font-weight: bold; margin: 0;"">Is there a person in this image?</p>
                    </div>
                </div>","0","main_experiment_trial","2","museum_causal","causal_sequence","","","","",""
"","","","","","html-keyboard-response","105","332746","0.0-105.0","62E3D649013F4C1CBBCC7FCE1AFC162F","019cf712-c929-763d-a09d-a6e507c8e41f","019cf6fe-235e-7d95-bb9b-b011d2fe188e","","null","
                <div class=""stimulus-container"">
                    <img src=""images/causal_sequence/museum_causal/museum_causal_3.png"" class=""exp-image"">
                    <div class=""question-area""></div> 
                </div>","null","","","","","","","","",""
"","","","","","html-button-response","106","334059","0.0-106.0","62E3D649013F4C1CBBCC7FCE1AFC162F","019cf712-c929-763d-a09d-a6e507c8e41f","019cf6fe-235e-7d95-bb9b-b011d2fe188e","","1311","
                <div class=""stimulus-container"">
                    <img src=""images/causal_sequence/museum_causal/museum_causal_3.png"" class=""exp-image"">
                    <div class=""question-area"">
                        <p style=""font-size: 20px; font-weight: bold; margin: 0;"">Is there a person in this image?</p>
                    </div>
                </div>","0","main_experiment_trial","3","museum_causal","causal_sequence","","","","",""
"","","","","","html-keyboard-response","107","339061","0.0-107.0","62E3D649013F4C1CBBCC7FCE1AFC162F","019cf712-c929-763d-a09d-a6e507c8e41f","019cf6fe-235e-7d95-bb9b-b011d2fe188e","","null","
                <div class=""stimulus-container"">
                    <img src=""images/causal_sequence/museum_causal/museum_causal_4.png"" class=""exp-image"">
                    <div class=""question-area""></div> 
                </div>","null","","","","","","","","",""
"","","","","","html-button-response","108","340759","0.0-108.0","62E3D649013F4C1CBBCC7FCE1AFC162F","019cf712-c929-763d-a09d-a6e507c8e41f","019cf6fe-235e-7d95-bb9b-b011d2fe188e","","1697","
                <div class=""stimulus-container"">
                    <img src=""images/causal_sequence/museum_causal/museum_causal_4.png"" class=""exp-image"">
                    <div class=""question-area"">
                        <p style=""font-size: 20px; font-weight: bold; margin: 0;"">Is there a person in this image?</p>
                    </div>
                </div>","1","main_experiment_trial","4","museum_causal","causal_sequence","","","","",""
"","","","","","html-keyboard-response","109","345761","0.0-109.0","62E3D649013F4C1CBBCC7FCE1AFC162F","019cf712-c929-763d-a09d-a6e507c8e41f","019cf6fe-235e-7d95-bb9b-b011d2fe188e","","null","
                <div class=""stimulus-container"">
                    <img src=""images/causal_sequence/museum_causal/museum_causal_5.png"" class=""exp-image"">
                    <div class=""question-area""></div> 
                </div>","null","","","","","","","","",""
"","","","","","html-button-response","110","348151","0.0-110.0","62E3D649013F4C1CBBCC7FCE1AFC162F","019cf712-c929-763d-a09d-a6e507c8e41f","019cf6fe-235e-7d95-bb9b-b011d2fe188e","","2389","
                <div class=""stimulus-container"">
                    <img src=""images/causal_sequence/museum_causal/museum_causal_5.png"" class=""exp-image"">
                    <div class=""question-area"">
                        <p style=""font-size: 20px; font-weight: bold; margin: 0;"">Is there a person in this image?</p>
                    </div>
                </div>","0","main_experiment_trial","5","museum_causal","causal_sequence","","","","",""
"","","","","","html-keyboard-response","111","353152","0.0-111.0","62E3D649013F4C1CBBCC7FCE1AFC162F","019cf712-c929-763d-a09d-a6e507c8e41f","019cf6fe-235e-7d95-bb9b-b011d2fe188e","","null","
                <div class=""stimulus-container"">
                    <img src=""images/causal_sequence/museum_causal/museum_causal_6.png"" class=""exp-image"">
                    <div class=""question-area""></div> 
                </div>","null","","","","","","","","",""
"","","","","","html-button-response","112","356154","0.0-112.0","62E3D649013F4C1CBBCC7FCE1AFC162F","019cf712-c929-763d-a09d-a6e507c8e41f","019cf6fe-235e-7d95-bb9b-b011d2fe188e","","null","
                <div class=""stimulus-container"">
                    <img src=""images/causal_sequence/museum_causal/museum_causal_6.png"" class=""exp-image"">
                    <div class=""question-area"">
                        <p style=""font-size: 20px; font-weight: bold; margin: 0;"">Is there a person in this image?</p>
                    </div>
                </div>","null","main_experiment_trial","6","museum_causal","causal_sequence","","","","",""
"","","","","","html-keyboard-response","113","361157","0.0-113.0","62E3D649013F4C1CBBCC7FCE1AFC162F","019cf712-c929-763d-a09d-a6e507c8e41f","019cf6fe-235e-7d95-bb9b-b011d2fe188e","","null","
                <div class=""stimulus-container"">
                    <img src=""images/causal_sequence/museum_causal/museum_causal_7.png"" class=""exp-image"">
                    <div class=""question-area""></div> 
                </div>","null","","","","","","","","",""
"","","","","","html-button-response","114","362017","0.0-114.0","62E3D649013F4C1CBBCC7FCE1AFC162F","019cf712-c929-763d-a09d-a6e507c8e41f","019cf6fe-235e-7d95-bb9b-b011d2fe188e","","859","
                <div class=""stimulus-container"">
                    <img src=""images/causal_sequence/museum_causal/museum_causal_7.png"" class=""exp-image"">
                    <div class=""question-area"">
                        <p style=""font-size: 20px; font-weight: bold; margin: 0;"">Is there a person in this image?</p>
                    </div>
                </div>","1","main_experiment_trial","7","museum_causal","causal_sequence","","","","",""
"","","","","","html-keyboard-response","115","367020","0.0-115.0","62E3D649013F4C1CBBCC7FCE1AFC162F","019cf712-c929-763d-a09d-a6e507c8e41f","019cf6fe-235e-7d95-bb9b-b011d2fe188e","","null","
                <div class=""stimulus-container"">
                    <img src=""images/causal_sequence/museum_causal/museum_causal_8.png"" class=""exp-image"">
                    <div class=""question-area""></div> 
                </div>","null","","","","","","","","",""
"","","","","","html-button-response","116","367776","0.0-116.0","62E3D649013F4C1CBBCC7FCE1AFC162F","019cf712-c929-763d-a09d-a6e507c8e41f","019cf6fe-235e-7d95-bb9b-b011d2fe188e","","755","
                <div class=""stimulus-container"">
                    <img src=""images/causal_sequence/museum_causal/museum_causal_8.png"" class=""exp-image"">
                    <div class=""question-area"">
                        <p style=""font-size: 20px; font-weight: bold; margin: 0;"">Is there a person in this image?</p>
                    </div>
                </div>","0","main_experiment_trial","8","museum_causal","causal_sequence","","","","",""
"","","","","","html-keyboard-response","117","372778","0.0-117.0","62E3D649013F4C1CBBCC7FCE1AFC162F","019cf712-c929-763d-a09d-a6e507c8e41f","019cf6fe-235e-7d95-bb9b-b011d2fe188e","","null","
                <div class=""stimulus-container"">
                    <img src=""images/causal_sequence/museum_causal/museum_causal_9.png"" class=""exp-image"">
                    <div class=""question-area""></div> 
                </div>","null","","","","","","","","",""
"","","","","","html-button-response","118","374755","0.0-118.0","62E3D649013F4C1CBBCC7FCE1AFC162F","019cf712-c929-763d-a09d-a6e507c8e41f","019cf6fe-235e-7d95-bb9b-b011d2fe188e","","1977","
                <div class=""stimulus-container"">
                    <img src=""images/causal_sequence/museum_causal/museum_causal_9.png"" class=""exp-image"">
                    <div class=""question-area"">
                        <p style=""font-size: 20px; font-weight: bold; margin: 0;"">Is there a person in this image?</p>
                    </div>
                </div>","1","main_experiment_trial","9","museum_causal","causal_sequence","","","","",""
"","","","","","html-keyboard-response","119","379757","0.0-119.0","62E3D649013F4C1CBBCC7FCE1AFC162F","019cf712-c929-763d-a09d-a6e507c8e41f","019cf6fe-235e-7d95-bb9b-b011d2fe188e","","null","
                <div class=""stimulus-container"">
                    <img src=""images/causal_sequence/museum_causal/museum_causal_ten.png"" class=""exp-image"">
                    <div class=""question-area""></div> 
                </div>","null","","","","","","","","",""
"","","","","","html-button-response","120","381345","0.0-120.0","62E3D649013F4C1CBBCC7FCE1AFC162F","019cf712-c929-763d-a09d-a6e507c8e41f","019cf6fe-235e-7d95-bb9b-b011d2fe188e","","1587","
                <div class=""stimulus-container"">
                    <img src=""images/causal_sequence/museum_causal/museum_causal_ten.png"" class=""exp-image"">
                    <div class=""question-area"">
                        <p style=""font-size: 20px; font-weight: bold; margin: 0;"">Is there a person in this image?</p>
                    </div>
                </div>","0","main_experiment_trial","ten","museum_causal","causal_sequence","","","","",""
"","","","","","html-keyboard-response","121","382347","0.0-121.0","62E3D649013F4C1CBBCC7FCE1AFC162F","019cf712-c929-763d-a09d-a6e507c8e41f","019cf6fe-235e-7d95-bb9b-b011d2fe188e","","null","<div style=""background-color: white; width: 100vw; height: 100vh;""></div>","null","","","","","","","","",""
"","","","","","html-keyboard-response","122","387349","0.0-122.0","62E3D649013F4C1CBBCC7FCE1AFC162F","019cf712-c929-763d-a09d-a6e507c8e41f","019cf6fe-235e-7d95-bb9b-b011d2fe188e","","null","
                <div class=""stimulus-container"">
                    <img src=""images/causal_sequence/dog_causal/dog_causal_1.png"" class=""exp-image"">
                    <div class=""question-area""></div> 
                </div>","null","","","","","","","","",""
"","","","","","html-button-response","123","390111","0.0-123.0","62E3D649013F4C1CBBCC7FCE1AFC162F","019cf712-c929-763d-a09d-a6e507c8e41f","019cf6fe-235e-7d95-bb9b-b011d2fe188e","","2761","
                <div class=""stimulus-container"">
                    <img src=""images/causal_sequence/dog_causal/dog_causal_1.png"" class=""exp-image"">
                    <div class=""question-area"">
                        <p style=""font-size: 20px; font-weight: bold; margin: 0;"">Is there a person in this image?</p>
                    </div>
                </div>","0","main_experiment_trial","1","dog_causal","causal_sequence","","","","",""
"","","","","","html-keyboard-response","124","395113","0.0-124.0","62E3D649013F4C1CBBCC7FCE1AFC162F","019cf712-c929-763d-a09d-a6e507c8e41f","019cf6fe-235e-7d95-bb9b-b011d2fe188e","","null","
                <div class=""stimulus-container"">
                    <img src=""images/causal_sequence/dog_causal/dog_causal_2.png"" class=""exp-image"">
                    <div class=""question-area""></div> 
                </div>","null","","","","","","","","",""
"","","","","","html-button-response","125","398115","0.0-125.0","62E3D649013F4C1CBBCC7FCE1AFC162F","019cf712-c929-763d-a09d-a6e507c8e41f","019cf6fe-235e-7d95-bb9b-b011d2fe188e","","null","
                <div class=""stimulus-container"">
                    <img src=""images/causal_sequence/dog_causal/dog_causal_2.png"" class=""exp-image"">
                    <div class=""question-area"">
                        <p style=""font-size: 20px; font-weight: bold; margin: 0;"">Is there a person in this image?</p>
                    </div>
                </div>","null","main_experiment_trial","2","dog_causal","causal_sequence","","","","",""
"","","","","","html-keyboard-response","126","403117","0.0-126.0","62E3D649013F4C1CBBCC7FCE1AFC162F","019cf712-c929-763d-a09d-a6e507c8e41f","019cf6fe-235e-7d95-bb9b-b011d2fe188e","","null","
                <div class=""stimulus-container"">
                    <img src=""images/causal_sequence/dog_causal/dog_causal_3.png"" class=""exp-image"">
                    <div class=""question-area""></div> 
                </div>","null","","","","","","","","",""
"","","","","","html-button-response","127","404046","0.0-127.0","62E3D649013F4C1CBBCC7FCE1AFC162F","019cf712-c929-763d-a09d-a6e507c8e41f","019cf6fe-235e-7d95-bb9b-b011d2fe188e","","928","
                <div class=""stimulus-container"">
                    <img src=""images/causal_sequence/dog_causal/dog_causal_3.png"" class=""exp-image"">
                    <div class=""question-area"">
                        <p style=""font-size: 20px; font-weight: bold; margin: 0;"">Is there a person in this image?</p>
                    </div>
                </div>","0","main_experiment_trial","3","dog_causal","causal_sequence","","","","",""
"","","","","","html-keyboard-response","128","409048","0.0-128.0","62E3D649013F4C1CBBCC7FCE1AFC162F","019cf712-c929-763d-a09d-a6e507c8e41f","019cf6fe-235e-7d95-bb9b-b011d2fe188e","","null","
                <div class=""stimulus-container"">
                    <img src=""images/causal_sequence/dog_causal/dog_causal_4.png"" class=""exp-image"">
                    <div class=""question-area""></div> 
                </div>","null","","","","","","","","",""
"","","","","","html-button-response","129","412050","0.0-129.0","62E3D649013F4C1CBBCC7FCE1AFC162F","019cf712-c929-763d-a09d-a6e507c8e41f","019cf6fe-235e-7d95-bb9b-b011d2fe188e","","null","
                <div class=""stimulus-container"">
                    <img src=""images/causal_sequence/dog_causal/dog_causal_4.png"" class=""exp-image"">
                    <div class=""question-area"">
                        <p style=""font-size: 20px; font-weight: bold; margin: 0;"">Is there a person in this image?</p>
                    </div>
                </div>","null","main_experiment_trial","4","dog_causal","causal_sequence","","","","",""
"","","","","","html-keyboard-response","130","417053","0.0-130.0","62E3D649013F4C1CBBCC7FCE1AFC162F","019cf712-c929-763d-a09d-a6e507c8e41f","019cf6fe-235e-7d95-bb9b-b011d2fe188e","","null","
                <div class=""stimulus-container"">
                    <img src=""images/causal_sequence/dog_causal/dog_causal_5.png"" class=""exp-image"">
                    <div class=""question-area""></div> 
                </div>","null","","","","","","","","",""
"","","","","","html-button-response","131","419038","0.0-131.0","62E3D649013F4C1CBBCC7FCE1AFC162F","019cf712-c929-763d-a09d-a6e507c8e41f","019cf6fe-235e-7d95-bb9b-b011d2fe188e","","1983","
                <div class=""stimulus-container"">
                    <img src=""images/causal_sequence/dog_causal/dog_causal_5.png"" class=""exp-image"">
                    <div class=""question-area"">
                        <p style=""font-size: 20px; font-weight: bold; margin: 0;"">Is there a person in this image?</p>
                    </div>
                </div>","0","main_experiment_trial","5","dog_causal","causal_sequence","","","","",""
"","","","","","html-keyboard-response","132","424044","0.0-132.0","62E3D649013F4C1CBBCC7FCE1AFC162F","019cf712-c929-763d-a09d-a6e507c8e41f","019cf6fe-235e-7d95-bb9b-b011d2fe188e","","null","
                <div class=""stimulus-container"">
                    <img src=""images/causal_sequence/dog_causal/dog_causal_6.png"" class=""exp-image"">
                    <div class=""question-area""></div> 
                </div>","null","","","","","","","","",""
"","","","","","html-button-response","133","427046","0.0-133.0","62E3D649013F4C1CBBCC7FCE1AFC162F","019cf712-c929-763d-a09d-a6e507c8e41f","019cf6fe-235e-7d95-bb9b-b011d2fe188e","","null","
                <div class=""stimulus-container"">
                    <img src=""images/causal_sequence/dog_causal/dog_causal_6.png"" class=""exp-image"">
                    <div class=""question-area"">
                        <p style=""font-size: 20px; font-weight: bold; margin: 0;"">Is there a person in this image?</p>
                    </div>
                </div>","null","main_experiment_trial","6","dog_causal","causal_sequence","","","","",""
"","","","","","html-keyboard-response","134","432050","0.0-134.0","62E3D649013F4C1CBBCC7FCE1AFC162F","019cf712-c929-763d-a09d-a6e507c8e41f","019cf6fe-235e-7d95-bb9b-b011d2fe188e","","null","
                <div class=""stimulus-container"">
                    <img src=""images/causal_sequence/dog_causal/dog_causal_7.png"" class=""exp-image"">
                    <div class=""question-area""></div> 
                </div>","null","","","","","","","","",""
"","","","","","html-button-response","135","432826","0.0-135.0","62E3D649013F4C1CBBCC7FCE1AFC162F","019cf712-c929-763d-a09d-a6e507c8e41f","019cf6fe-235e-7d95-bb9b-b011d2fe188e","","775","
                <div class=""stimulus-container"">
                    <img src=""images/causal_sequence/dog_causal/dog_causal_7.png"" class=""exp-image"">
                    <div class=""question-area"">
                        <p style=""font-size: 20px; font-weight: bold; margin: 0;"">Is there a person in this image?</p>
                    </div>
                </div>","0","main_experiment_trial","7","dog_causal","causal_sequence","","","","",""
"","","","","","html-keyboard-response","136","437828","0.0-136.0","62E3D649013F4C1CBBCC7FCE1AFC162F","019cf712-c929-763d-a09d-a6e507c8e41f","019cf6fe-235e-7d95-bb9b-b011d2fe188e","","null","
                <div class=""stimulus-container"">
                    <img src=""images/causal_sequence/dog_causal/dog_causal_8.png"" class=""exp-image"">
                    <div class=""question-area""></div> 
                </div>","null","","","","","","","","",""
"","","","","","html-button-response","137","439934","0.0-137.0","62E3D649013F4C1CBBCC7FCE1AFC162F","019cf712-c929-763d-a09d-a6e507c8e41f","019cf6fe-235e-7d95-bb9b-b011d2fe188e","","2104","
                <div class=""stimulus-container"">
                    <img src=""images/causal_sequence/dog_causal/dog_causal_8.png"" class=""exp-image"">
                    <div class=""question-area"">
                        <p style=""font-size: 20px; font-weight: bold; margin: 0;"">Is there a person in this image?</p>
                    </div>
                </div>","0","main_experiment_trial","8","dog_causal","causal_sequence","","","","",""
"","","","","","html-keyboard-response","138","444938","0.0-138.0","62E3D649013F4C1CBBCC7FCE1AFC162F","019cf712-c929-763d-a09d-a6e507c8e41f","019cf6fe-235e-7d95-bb9b-b011d2fe188e","","null","
                <div class=""stimulus-container"">
                    <img src=""images/causal_sequence/dog_causal/dog_causal_9.png"" class=""exp-image"">
                    <div class=""question-area""></div> 
                </div>","null","","","","","","","","",""
"","","","","","html-button-response","139","446423","0.0-139.0","62E3D649013F4C1CBBCC7FCE1AFC162F","019cf712-c929-763d-a09d-a6e507c8e41f","019cf6fe-235e-7d95-bb9b-b011d2fe188e","","1483","
                <div class=""stimulus-container"">
                    <img src=""images/causal_sequence/dog_causal/dog_causal_9.png"" class=""exp-image"">
                    <div class=""question-area"">
                        <p style=""font-size: 20px; font-weight: bold; margin: 0;"">Is there a person in this image?</p>
                    </div>
                </div>","0","main_experiment_trial","9","dog_causal","causal_sequence","","","","",""
"","","","","","html-keyboard-response","140","451427","0.0-140.0","62E3D649013F4C1CBBCC7FCE1AFC162F","019cf712-c929-763d-a09d-a6e507c8e41f","019cf6fe-235e-7d95-bb9b-b011d2fe188e","","null","
                <div class=""stimulus-container"">
                    <img src=""images/causal_sequence/dog_causal/dog_causal_ten.png"" class=""exp-image"">
                    <div class=""question-area""></div> 
                </div>","null","","","","","","","","",""
"","","","","","html-button-response","141","454346","0.0-141.0","62E3D649013F4C1CBBCC7FCE1AFC162F","019cf712-c929-763d-a09d-a6e507c8e41f","019cf6fe-235e-7d95-bb9b-b011d2fe188e","","2916","
                <div class=""stimulus-container"">
                    <img src=""images/causal_sequence/dog_causal/dog_causal_ten.png"" class=""exp-image"">
                    <div class=""question-area"">
                        <p style=""font-size: 20px; font-weight: bold; margin: 0;"">Is there a person in this image?</p>
                    </div>
                </div>","0","main_experiment_trial","ten","dog_causal","causal_sequence","","","","",""
"","","","","","html-keyboard-response","142","455348","0.0-142.0","62E3D649013F4C1CBBCC7FCE1AFC162F","019cf712-c929-763d-a09d-a6e507c8e41f","019cf6fe-235e-7d95-bb9b-b011d2fe188e","","null","<div style=""background-color: white; width: 100vw; height: 100vh;""></div>","null","","","","","","","","",""
"","","","","","html-keyboard-response","143","460354","0.0-143.0","62E3D649013F4C1CBBCC7FCE1AFC162F","019cf712-c929-763d-a09d-a6e507c8e41f","019cf6fe-235e-7d95-bb9b-b011d2fe188e","","null","
                <div class=""stimulus-container"">
                    <img src=""images/schematic_sequence/restaurant_scheme/restaurant_scheme_1.png"" class=""exp-image"">
                    <div class=""question-area""></div> 
                </div>","null","","","","","","","","",""
"","","","","","html-button-response","144","462060","0.0-144.0","62E3D649013F4C1CBBCC7FCE1AFC162F","019cf712-c929-763d-a09d-a6e507c8e41f","019cf6fe-235e-7d95-bb9b-b011d2fe188e","","1704","
                <div class=""stimulus-container"">
                    <img src=""images/schematic_sequence/restaurant_scheme/restaurant_scheme_1.png"" class=""exp-image"">
                    <div class=""question-area"">
                        <p style=""font-size: 20px; font-weight: bold; margin: 0;"">Is there a person in this image?</p>
                    </div>
                </div>","0","main_experiment_trial","1","restaurant_scheme","schematic_sequence","","","","",""
"","","","","","html-keyboard-response","145","467063","0.0-145.0","62E3D649013F4C1CBBCC7FCE1AFC162F","019cf712-c929-763d-a09d-a6e507c8e41f","019cf6fe-235e-7d95-bb9b-b011d2fe188e","","null","
                <div class=""stimulus-container"">
                    <img src=""images/schematic_sequence/restaurant_scheme/restaurant_scheme_2.png"" class=""exp-image"">
                    <div class=""question-area""></div> 
                </div>","null","","","","","","","","",""
"","","","","","html-button-response","146","469290","0.0-146.0","62E3D649013F4C1CBBCC7FCE1AFC162F","019cf712-c929-763d-a09d-a6e507c8e41f","019cf6fe-235e-7d95-bb9b-b011d2fe188e","","2226","
                <div class=""stimulus-container"">
                    <img src=""images/schematic_sequence/restaurant_scheme/restaurant_scheme_2.png"" class=""exp-image"">
                    <div class=""question-area"">
                        <p style=""font-size: 20px; font-weight: bold; margin: 0;"">Is there a person in this image?</p>
                    </div>
                </div>","1","main_experiment_trial","2","restaurant_scheme","schematic_sequence","","","","",""
"","","","","","html-keyboard-response","147","474292","0.0-147.0","62E3D649013F4C1CBBCC7FCE1AFC162F","019cf712-c929-763d-a09d-a6e507c8e41f","019cf6fe-235e-7d95-bb9b-b011d2fe188e","","null","
                <div class=""stimulus-container"">
                    <img src=""images/schematic_sequence/restaurant_scheme/restaurant_scheme_3.png"" class=""exp-image"">
                    <div class=""question-area""></div> 
                </div>","null","","","","","","","","",""
"","","","","","html-button-response","148","477294","0.0-148.0","62E3D649013F4C1CBBCC7FCE1AFC162F","019cf712-c929-763d-a09d-a6e507c8e41f","019cf6fe-235e-7d95-bb9b-b011d2fe188e","","null","
                <div class=""stimulus-container"">
                    <img src=""images/schematic_sequence/restaurant_scheme/restaurant_scheme_3.png"" class=""exp-image"">
                    <div class=""question-area"">
                        <p style=""font-size: 20px; font-weight: bold; margin: 0;"">Is there a person in this image?</p>
                    </div>
                </div>","null","main_experiment_trial","3","restaurant_scheme","schematic_sequence","","","","",""
"","","","","","html-keyboard-response","149","482298","0.0-149.0","62E3D649013F4C1CBBCC7FCE1AFC162F","019cf712-c929-763d-a09d-a6e507c8e41f","019cf6fe-235e-7d95-bb9b-b011d2fe188e","","null","
                <div class=""stimulus-container"">
                    <img src=""images/schematic_sequence/restaurant_scheme/restaurant_scheme_4.png"" class=""exp-image"">
                    <div class=""question-area""></div> 
                </div>","null","","","","","","","","",""
"","","","","","html-button-response","150","483212","0.0-150.0","62E3D649013F4C1CBBCC7FCE1AFC162F","019cf712-c929-763d-a09d-a6e507c8e41f","019cf6fe-235e-7d95-bb9b-b011d2fe188e","","913","
                <div class=""stimulus-container"">
                    <img src=""images/schematic_sequence/restaurant_scheme/restaurant_scheme_4.png"" class=""exp-image"">
                    <div class=""question-area"">
                        <p style=""font-size: 20px; font-weight: bold; margin: 0;"">Is there a person in this image?</p>
                    </div>
                </div>","0","main_experiment_trial","4","restaurant_scheme","schematic_sequence","","","","",""
"","","","","","html-keyboard-response","151","488214","0.0-151.0","62E3D649013F4C1CBBCC7FCE1AFC162F","019cf712-c929-763d-a09d-a6e507c8e41f","019cf6fe-235e-7d95-bb9b-b011d2fe188e","","null","
                <div class=""stimulus-container"">
                    <img src=""images/schematic_sequence/restaurant_scheme/restaurant_scheme_5.png"" class=""exp-image"">
                    <div class=""question-area""></div> 
                </div>","null","","","","","","","","",""
"","","","","","html-button-response","152","491217","0.0-152.0","62E3D649013F4C1CBBCC7FCE1AFC162F","019cf712-c929-763d-a09d-a6e507c8e41f","019cf6fe-235e-7d95-bb9b-b011d2fe188e","","null","
                <div class=""stimulus-container"">
                    <img src=""images/schematic_sequence/restaurant_scheme/restaurant_scheme_5.png"" class=""exp-image"">
                    <div class=""question-area"">
                        <p style=""font-size: 20px; font-weight: bold; margin: 0;"">Is there a person in this image?</p>
                    </div>
                </div>","null","main_experiment_trial","5","restaurant_scheme","schematic_sequence","","","","",""
"","","","","","html-keyboard-response","153","496220","0.0-153.0","62E3D649013F4C1CBBCC7FCE1AFC162F","019cf712-c929-763d-a09d-a6e507c8e41f","019cf6fe-235e-7d95-bb9b-b011d2fe188e","","null","
                <div class=""stimulus-container"">
                    <img src=""images/schematic_sequence/restaurant_scheme/restaurant_scheme_6.png"" class=""exp-image"">
                    <div class=""question-area""></div> 
                </div>","null","","","","","","","","",""
"","","","","","html-button-response","154","497573","0.0-154.0","62E3D649013F4C1CBBCC7FCE1AFC162F","019cf712-c929-763d-a09d-a6e507c8e41f","019cf6fe-235e-7d95-bb9b-b011d2fe188e","","1351","
                <div class=""stimulus-container"">
                    <img src=""images/schematic_sequence/restaurant_scheme/restaurant_scheme_6.png"" class=""exp-image"">
                    <div class=""question-area"">
                        <p style=""font-size: 20px; font-weight: bold; margin: 0;"">Is there a person in this image?</p>
                    </div>
                </div>","1","main_experiment_trial","6","restaurant_scheme","schematic_sequence","","","","",""
"","","","","","html-keyboard-response","155","502576","0.0-155.0","62E3D649013F4C1CBBCC7FCE1AFC162F","019cf712-c929-763d-a09d-a6e507c8e41f","019cf6fe-235e-7d95-bb9b-b011d2fe188e","","null","
                <div class=""stimulus-container"">
                    <img src=""images/schematic_sequence/restaurant_scheme/restaurant_scheme_7.png"" class=""exp-image"">
                    <div class=""question-area""></div> 
                </div>","null","","","","","","","","",""
"","","","","","html-button-response","156","504463","0.0-156.0","62E3D649013F4C1CBBCC7FCE1AFC162F","019cf712-c929-763d-a09d-a6e507c8e41f","019cf6fe-235e-7d95-bb9b-b011d2fe188e","","1887","
                <div class=""stimulus-container"">
                    <img src=""images/schematic_sequence/restaurant_scheme/restaurant_scheme_7.png"" class=""exp-image"">
                    <div class=""question-area"">
                        <p style=""font-size: 20px; font-weight: bold; margin: 0;"">Is there a person in this image?</p>
                    </div>
                </div>","1","main_experiment_trial","7","restaurant_scheme","schematic_sequence","","","","",""
"","","","","","html-keyboard-response","157","509466","0.0-157.0","62E3D649013F4C1CBBCC7FCE1AFC162F","019cf712-c929-763d-a09d-a6e507c8e41f","019cf6fe-235e-7d95-bb9b-b011d2fe188e","","null","
                <div class=""stimulus-container"">
                    <img src=""images/schematic_sequence/restaurant_scheme/restaurant_scheme_8.png"" class=""exp-image"">
                    <div class=""question-area""></div> 
                </div>","null","","","","","","","","",""
"","","","","","html-button-response","158","512468","0.0-158.0","62E3D649013F4C1CBBCC7FCE1AFC162F","019cf712-c929-763d-a09d-a6e507c8e41f","019cf6fe-235e-7d95-bb9b-b011d2fe188e","","null","
                <div class=""stimulus-container"">
                    <img src=""images/schematic_sequence/restaurant_scheme/restaurant_scheme_8.png"" class=""exp-image"">
                    <div class=""question-area"">
                        <p style=""font-size: 20px; font-weight: bold; margin: 0;"">Is there a person in this image?</p>
                    </div>
                </div>","null","main_experiment_trial","8","restaurant_scheme","schematic_sequence","","","","",""
"","","","","","html-keyboard-response","159","517471","0.0-159.0","62E3D649013F4C1CBBCC7FCE1AFC162F","019cf712-c929-763d-a09d-a6e507c8e41f","019cf6fe-235e-7d95-bb9b-b011d2fe188e","","null","
                <div class=""stimulus-container"">
                    <img src=""images/schematic_sequence/restaurant_scheme/restaurant_scheme_9.png"" class=""exp-image"">
                    <div class=""question-area""></div> 
                </div>","null","","","","","","","","",""
"","","","","","html-button-response","160","519230","0.0-160.0","62E3D649013F4C1CBBCC7FCE1AFC162F","019cf712-c929-763d-a09d-a6e507c8e41f","019cf6fe-235e-7d95-bb9b-b011d2fe188e","","1759","
                <div class=""stimulus-container"">
                    <img src=""images/schematic_sequence/restaurant_scheme/restaurant_scheme_9.png"" class=""exp-image"">
                    <div class=""question-area"">
                        <p style=""font-size: 20px; font-weight: bold; margin: 0;"">Is there a person in this image?</p>
                    </div>
                </div>","0","main_experiment_trial","9","restaurant_scheme","schematic_sequence","","","","",""
"","","","","","html-keyboard-response","161","524232","0.0-161.0","62E3D649013F4C1CBBCC7FCE1AFC162F","019cf712-c929-763d-a09d-a6e507c8e41f","019cf6fe-235e-7d95-bb9b-b011d2fe188e","","null","
                <div class=""stimulus-container"">
                    <img src=""images/schematic_sequence/restaurant_scheme/restaurant_scheme_ten.png"" class=""exp-image"">
                    <div class=""question-area""></div> 
                </div>","null","","","","","","","","",""
"","","","","","html-button-response","162","525048","0.0-162.0","62E3D649013F4C1CBBCC7FCE1AFC162F","019cf712-c929-763d-a09d-a6e507c8e41f","019cf6fe-235e-7d95-bb9b-b011d2fe188e","","815","
                <div class=""stimulus-container"">
                    <img src=""images/schematic_sequence/restaurant_scheme/restaurant_scheme_ten.png"" class=""exp-image"">
                    <div class=""question-area"">
                        <p style=""font-size: 20px; font-weight: bold; margin: 0;"">Is there a person in this image?</p>
                    </div>
                </div>","0","main_experiment_trial","ten","restaurant_scheme","schematic_sequence","","","","",""
"","","","","","html-keyboard-response","163","526051","0.0-163.0","62E3D649013F4C1CBBCC7FCE1AFC162F","019cf712-c929-763d-a09d-a6e507c8e41f","019cf6fe-235e-7d95-bb9b-b011d2fe188e","","null","<div style=""background-color: white; width: 100vw; height: 100vh;""></div>","null","","","","","","","","",""
"","","","","","html-keyboard-response","164","531052","0.0-164.0","62E3D649013F4C1CBBCC7FCE1AFC162F","019cf712-c929-763d-a09d-a6e507c8e41f","019cf6fe-235e-7d95-bb9b-b011d2fe188e","","null","
                <div class=""stimulus-container"">
                    <img src=""images/causal_sequence/saving_a_cat_causal/saving_a_cat_causal_1.png"" class=""exp-image"">
                    <div class=""question-area""></div> 
                </div>","null","","","","","","","","",""
"","","","","","html-button-response","165","532554","0.0-165.0","62E3D649013F4C1CBBCC7FCE1AFC162F","019cf712-c929-763d-a09d-a6e507c8e41f","019cf6fe-235e-7d95-bb9b-b011d2fe188e","","1501","
                <div class=""stimulus-container"">
                    <img src=""images/causal_sequence/saving_a_cat_causal/saving_a_cat_causal_1.png"" class=""exp-image"">
                    <div class=""question-area"">
                        <p style=""font-size: 20px; font-weight: bold; margin: 0;"">Is there a person in this image?</p>
                    </div>
                </div>","0","main_experiment_trial","1","saving_a_cat_causal","causal_sequence","","","","",""
"","","","","","html-keyboard-response","166","537558","0.0-166.0","62E3D649013F4C1CBBCC7FCE1AFC162F","019cf712-c929-763d-a09d-a6e507c8e41f","019cf6fe-235e-7d95-bb9b-b011d2fe188e","","null","
                <div class=""stimulus-container"">
                    <img src=""images/causal_sequence/saving_a_cat_causal/saving_a_cat_causal_2.png"" class=""exp-image"">
                    <div class=""question-area""></div> 
                </div>","null","","","","","","","","",""
"","","","","","html-button-response","167","539689","0.0-167.0","62E3D649013F4C1CBBCC7FCE1AFC162F","019cf712-c929-763d-a09d-a6e507c8e41f","019cf6fe-235e-7d95-bb9b-b011d2fe188e","","2131","
                <div class=""stimulus-container"">
                    <img src=""images/causal_sequence/saving_a_cat_causal/saving_a_cat_causal_2.png"" class=""exp-image"">
                    <div class=""question-area"">
                        <p style=""font-size: 20px; font-weight: bold; margin: 0;"">Is there a person in this image?</p>
                    </div>
                </div>","1","main_experiment_trial","2","saving_a_cat_causal","causal_sequence","","","","",""
"","","","","","html-keyboard-response","168","544692","0.0-168.0","62E3D649013F4C1CBBCC7FCE1AFC162F","019cf712-c929-763d-a09d-a6e507c8e41f","019cf6fe-235e-7d95-bb9b-b011d2fe188e","","null","
                <div class=""stimulus-container"">
                    <img src=""images/causal_sequence/saving_a_cat_causal/saving_a_cat_causal_3.png"" class=""exp-image"">
                    <div class=""question-area""></div> 
                </div>","null","","","","","","","","",""
"","","","","","html-button-response","169","546542","0.0-169.0","62E3D649013F4C1CBBCC7FCE1AFC162F","019cf712-c929-763d-a09d-a6e507c8e41f","019cf6fe-235e-7d95-bb9b-b011d2fe188e","","1849","
                <div class=""stimulus-container"">
                    <img src=""images/causal_sequence/saving_a_cat_causal/saving_a_cat_causal_3.png"" class=""exp-image"">
                    <div class=""question-area"">
                        <p style=""font-size: 20px; font-weight: bold; margin: 0;"">Is there a person in this image?</p>
                    </div>
                </div>","1","main_experiment_trial","3","saving_a_cat_causal","causal_sequence","","","","",""
"","","","","","html-keyboard-response","170","551545","0.0-170.0","62E3D649013F4C1CBBCC7FCE1AFC162F","019cf712-c929-763d-a09d-a6e507c8e41f","019cf6fe-235e-7d95-bb9b-b011d2fe188e","","null","
                <div class=""stimulus-container"">
                    <img src=""images/causal_sequence/saving_a_cat_causal/saving_a_cat_causal_4.png"" class=""exp-image"">
                    <div class=""question-area""></div> 
                </div>","null","","","","","","","","",""
"","","","","","html-button-response","171","552534","0.0-171.0","62E3D649013F4C1CBBCC7FCE1AFC162F","019cf712-c929-763d-a09d-a6e507c8e41f","019cf6fe-235e-7d95-bb9b-b011d2fe188e","","988","
                <div class=""stimulus-container"">
                    <img src=""images/causal_sequence/saving_a_cat_causal/saving_a_cat_causal_4.png"" class=""exp-image"">
                    <div class=""question-area"">
                        <p style=""font-size: 20px; font-weight: bold; margin: 0;"">Is there a person in this image?</p>
                    </div>
                </div>","0","main_experiment_trial","4","saving_a_cat_causal","causal_sequence","","","","",""
"","","","","","html-keyboard-response","172","557536","0.0-172.0","62E3D649013F4C1CBBCC7FCE1AFC162F","019cf712-c929-763d-a09d-a6e507c8e41f","019cf6fe-235e-7d95-bb9b-b011d2fe188e","","null","
                <div class=""stimulus-container"">
                    <img src=""images/causal_sequence/saving_a_cat_causal/saving_a_cat_causal_5.png"" class=""exp-image"">
                    <div class=""question-area""></div> 
                </div>","null","","","","","","","","",""
"","","","","","html-button-response","173","558936","0.0-173.0","62E3D649013F4C1CBBCC7FCE1AFC162F","019cf712-c929-763d-a09d-a6e507c8e41f","019cf6fe-235e-7d95-bb9b-b011d2fe188e","","1399","
                <div class=""stimulus-container"">
                    <img src=""images/causal_sequence/saving_a_cat_causal/saving_a_cat_causal_5.png"" class=""exp-image"">
                    <div class=""question-area"">
                        <p style=""font-size: 20px; font-weight: bold; margin: 0;"">Is there a person in this image?</p>
                    </div>
                </div>","0","main_experiment_trial","5","saving_a_cat_causal","causal_sequence","","","","",""
"","","","","","html-keyboard-response","174","563939","0.0-174.0","62E3D649013F4C1CBBCC7FCE1AFC162F","019cf712-c929-763d-a09d-a6e507c8e41f","019cf6fe-235e-7d95-bb9b-b011d2fe188e","","null","
                <div class=""stimulus-container"">
                    <img src=""images/causal_sequence/saving_a_cat_causal/saving_a_cat_causal_6.png"" class=""exp-image"">
                    <div class=""question-area""></div> 
                </div>","null","","","","","","","","",""
"","","","","","html-button-response","175","565140","0.0-175.0","62E3D649013F4C1CBBCC7FCE1AFC162F","019cf712-c929-763d-a09d-a6e507c8e41f","019cf6fe-235e-7d95-bb9b-b011d2fe188e","","1201","
                <div class=""stimulus-container"">
                    <img src=""images/causal_sequence/saving_a_cat_causal/saving_a_cat_causal_6.png"" class=""exp-image"">
                    <div class=""question-area"">
                        <p style=""font-size: 20px; font-weight: bold; margin: 0;"">Is there a person in this image?</p>
                    </div>
                </div>","0","main_experiment_trial","6","saving_a_cat_causal","causal_sequence","","","","",""
"","","","","","html-keyboard-response","176","570142","0.0-176.0","62E3D649013F4C1CBBCC7FCE1AFC162F","019cf712-c929-763d-a09d-a6e507c8e41f","019cf6fe-235e-7d95-bb9b-b011d2fe188e","","null","
                <div class=""stimulus-container"">
                    <img src=""images/causal_sequence/saving_a_cat_causal/saving_a_cat_causal_7.png"" class=""exp-image"">
                    <div class=""question-area""></div> 
                </div>","null","","","","","","","","",""
"","","","","","html-button-response","177","573144","0.0-177.0","62E3D649013F4C1CBBCC7FCE1AFC162F","019cf712-c929-763d-a09d-a6e507c8e41f","019cf6fe-235e-7d95-bb9b-b011d2fe188e","","null","
                <div class=""stimulus-container"">
                    <img src=""images/causal_sequence/saving_a_cat_causal/saving_a_cat_causal_7.png"" class=""exp-image"">
                    <div class=""question-area"">
                        <p style=""font-size: 20px; font-weight: bold; margin: 0;"">Is there a person in this image?</p>
                    </div>
                </div>","null","main_experiment_trial","7","saving_a_cat_causal","causal_sequence","","","","",""
"","","","","","html-keyboard-response","178","578147","0.0-178.0","62E3D649013F4C1CBBCC7FCE1AFC162F","019cf712-c929-763d-a09d-a6e507c8e41f","019cf6fe-235e-7d95-bb9b-b011d2fe188e","","null","
                <div class=""stimulus-container"">
                    <img src=""images/causal_sequence/saving_a_cat_causal/saving_a_cat_causal_8.png"" class=""exp-image"">
                    <div class=""question-area""></div> 
                </div>","null","","","","","","","","",""
"","","","","","html-button-response","179","579335","0.0-179.0","62E3D649013F4C1CBBCC7FCE1AFC162F","019cf712-c929-763d-a09d-a6e507c8e41f","019cf6fe-235e-7d95-bb9b-b011d2fe188e","","1188","
                <div class=""stimulus-container"">
                    <img src=""images/causal_sequence/saving_a_cat_causal/saving_a_cat_causal_8.png"" class=""exp-image"">
                    <div class=""question-area"">
                        <p style=""font-size: 20px; font-weight: bold; margin: 0;"">Is there a person in this image?</p>
                    </div>
                </div>","0","main_experiment_trial","8","saving_a_cat_causal","causal_sequence","","","","",""
"","","","","","html-keyboard-response","180","584338","0.0-180.0","62E3D649013F4C1CBBCC7FCE1AFC162F","019cf712-c929-763d-a09d-a6e507c8e41f","019cf6fe-235e-7d95-bb9b-b011d2fe188e","","null","
                <div class=""stimulus-container"">
                    <img src=""images/causal_sequence/saving_a_cat_causal/saving_a_cat_causal_9.png"" class=""exp-image"">
                    <div class=""question-area""></div> 
                </div>","null","","","","","","","","",""
"","","","","","html-button-response","181","585917","0.0-181.0","62E3D649013F4C1CBBCC7FCE1AFC162F","019cf712-c929-763d-a09d-a6e507c8e41f","019cf6fe-235e-7d95-bb9b-b011d2fe188e","","1578","
                <div class=""stimulus-container"">
                    <img src=""images/causal_sequence/saving_a_cat_causal/saving_a_cat_causal_9.png"" class=""exp-image"">
                    <div class=""question-area"">
                        <p style=""font-size: 20px; font-weight: bold; margin: 0;"">Is there a person in this image?</p>
                    </div>
                </div>","0","main_experiment_trial","9","saving_a_cat_causal","causal_sequence","","","","",""
"","","","","","html-keyboard-response","182","590919","0.0-182.0","62E3D649013F4C1CBBCC7FCE1AFC162F","019cf712-c929-763d-a09d-a6e507c8e41f","019cf6fe-235e-7d95-bb9b-b011d2fe188e","","null","
                <div class=""stimulus-container"">
                    <img src=""images/causal_sequence/saving_a_cat_causal/saving_a_cat_causal_ten.png"" class=""exp-image"">
                    <div class=""question-area""></div> 
                </div>","null","","","","","","","","",""
"","","","","","html-button-response","183","591643","0.0-183.0","62E3D649013F4C1CBBCC7FCE1AFC162F","019cf712-c929-763d-a09d-a6e507c8e41f","019cf6fe-235e-7d95-bb9b-b011d2fe188e","","724","
                <div class=""stimulus-container"">
                    <img src=""images/causal_sequence/saving_a_cat_causal/saving_a_cat_causal_ten.png"" class=""exp-image"">
                    <div class=""question-area"">
                        <p style=""font-size: 20px; font-weight: bold; margin: 0;"">Is there a person in this image?</p>
                    </div>
