"success","timeout","failed_images","failed_audio","failed_video","trial_type","trial_index","time_elapsed","internal_node_id","subject_id","study_id","session_id","view_history","rt","stimulus","response","task","image_index","folder","sequence_type","valuable_image_index","reward_type","correct_choice","chosen_image_index","target_X"
"true","false","[]","[]","[]","preload","0","5804","0.0-0.0","44A58D1B598A4F3BA35D0097B64CC2EF","019cf80f-9dc6-7ef5-89c7-2b6f99efd402","019cf80d-4266-7117-8a51-54e13c84aca4","","","","","","","","","","","","",""
"","","","","","instructions","1","8474","0.0-1.0","44A58D1B598A4F3BA35D0097B64CC2EF","019cf80f-9dc6-7ef5-89c7-2b6f99efd402","019cf80d-4266-7117-8a51-54e13c84aca4","[{""page_index"":0,""viewing_time"":2669}]","2669","","","","","","","","","","",""
"","","","","","instructions","2","15383","0.0-2.0","44A58D1B598A4F3BA35D0097B64CC2EF","019cf80f-9dc6-7ef5-89c7-2b6f99efd402","019cf80d-4266-7117-8a51-54e13c84aca4","[{""page_index"":0,""viewing_time"":6904}]","6904","","","","","","","","","","",""
"true","","","","","fullscreen","3","17927","0.0-3.0","44A58D1B598A4F3BA35D0097B64CC2EF","019cf80f-9dc6-7ef5-89c7-2b6f99efd402","019cf80d-4266-7117-8a51-54e13c84aca4","","1541","","","","","","","","","","",""
"","","","","","instructions","4","27757","0.0-4.0","44A58D1B598A4F3BA35D0097B64CC2EF","019cf80f-9dc6-7ef5-89c7-2b6f99efd402","019cf80d-4266-7117-8a51-54e13c84aca4","[{""page_index"":0,""viewing_time"":9830}]","9830","","","","","","","","","","",""
"","","","","","instructions","5","36605","0.0-5.0","44A58D1B598A4F3BA35D0097B64CC2EF","019cf80f-9dc6-7ef5-89c7-2b6f99efd402","019cf80d-4266-7117-8a51-54e13c84aca4","[{""page_index"":0,""viewing_time"":8847}]","8847","","","","","","","","","","",""
"","","","","","html-keyboard-response","6","40607","0.0-6.0","44A58D1B598A4F3BA35D0097B64CC2EF","019cf80f-9dc6-7ef5-89c7-2b6f99efd402","019cf80d-4266-7117-8a51-54e13c84aca4","","null","
                <div class=""stimulus-container"">
                    <img src=""images/instructions/movie_1.png"" class=""exp-image"">
                    <div class=""question-area""></div> 
                </div>","null","","","","","","","","",""
"","","","","","html-button-response","7","43623","0.0-7.0","44A58D1B598A4F3BA35D0097B64CC2EF","019cf80f-9dc6-7ef5-89c7-2b6f99efd402","019cf80d-4266-7117-8a51-54e13c84aca4","","null","
                <div class=""stimulus-container"">
                    <img src=""images/instructions/movie_1.png"" class=""exp-image"">
                    <div class=""question-area"">
                        <p style=""font-size: 20px; font-weight: bold; margin: 0;"">Was there a person in this image?</p>
                    </div>
                </div>","null","example_question","1","","","","","","",""
"","","","","","html-keyboard-response","8","47639","0.0-8.0","44A58D1B598A4F3BA35D0097B64CC2EF","019cf80f-9dc6-7ef5-89c7-2b6f99efd402","019cf80d-4266-7117-8a51-54e13c84aca4","","null","
                <div class=""stimulus-container"">
                    <img src=""images/instructions/movie_2.png"" class=""exp-image"">
                    <div class=""question-area""></div> 
                </div>","null","","","","","","","","",""
"","","","","","html-button-response","9","49381","0.0-9.0","44A58D1B598A4F3BA35D0097B64CC2EF","019cf80f-9dc6-7ef5-89c7-2b6f99efd402","019cf80d-4266-7117-8a51-54e13c84aca4","","1741","
                <div class=""stimulus-container"">
                    <img src=""images/instructions/movie_2.png"" class=""exp-image"">
                    <div class=""question-area"">
                        <p style=""font-size: 20px; font-weight: bold; margin: 0;"">Was there a person in this image?</p>
                    </div>
                </div>","0","example_question","2","","","","","","",""
"","","","","","html-keyboard-response","10","53382","0.0-10.0","44A58D1B598A4F3BA35D0097B64CC2EF","019cf80f-9dc6-7ef5-89c7-2b6f99efd402","019cf80d-4266-7117-8a51-54e13c84aca4","","null","
                <div class=""stimulus-container"">
                    <img src=""images/instructions/movie_3.png"" class=""exp-image"">
                    <div class=""question-area""></div> 
                </div>","null","","","","","","","","",""
"","","","","","html-button-response","11","54228","0.0-11.0","44A58D1B598A4F3BA35D0097B64CC2EF","019cf80f-9dc6-7ef5-89c7-2b6f99efd402","019cf80d-4266-7117-8a51-54e13c84aca4","","845","
                <div class=""stimulus-container"">
                    <img src=""images/instructions/movie_3.png"" class=""exp-image"">
                    <div class=""question-area"">
                        <p style=""font-size: 20px; font-weight: bold; margin: 0;"">Was there a person in this image?</p>
                    </div>
                </div>","0","example_question","3","","","","","","",""
"","","","","","html-keyboard-response","12","58240","0.0-12.0","44A58D1B598A4F3BA35D0097B64CC2EF","019cf80f-9dc6-7ef5-89c7-2b6f99efd402","019cf80d-4266-7117-8a51-54e13c84aca4","","null","
                <div class=""stimulus-container"">
                    <img src=""images/instructions/movie_4.png"" class=""exp-image"">
                    <div class=""question-area""></div> 
                </div>","null","","","","","","","","",""
"","","","","","html-button-response","13","59708","0.0-13.0","44A58D1B598A4F3BA35D0097B64CC2EF","019cf80f-9dc6-7ef5-89c7-2b6f99efd402","019cf80d-4266-7117-8a51-54e13c84aca4","","1468","
                <div class=""stimulus-container"">
                    <img src=""images/instructions/movie_4.png"" class=""exp-image"">
                    <div class=""question-area"">
                        <p style=""font-size: 20px; font-weight: bold; margin: 0;"">Was there a person in this image?</p>
                    </div>
                </div>","0","example_question","4","","","","","","",""
"","","","","","instructions","14","61528","0.0-14.0","44A58D1B598A4F3BA35D0097B64CC2EF","019cf80f-9dc6-7ef5-89c7-2b6f99efd402","019cf80d-4266-7117-8a51-54e13c84aca4","[{""page_index"":0,""viewing_time"":1819}]","1820","","","","","","","","","","",""
"","","","","","instructions","15","67664","0.0-15.0","44A58D1B598A4F3BA35D0097B64CC2EF","019cf80f-9dc6-7ef5-89c7-2b6f99efd402","019cf80d-4266-7117-8a51-54e13c84aca4","[{""page_index"":0,""viewing_time"":6135}]","6136","","","","","","","","","","",""
"","","","","","html-keyboard-response","16","68668","0.0-16.0","44A58D1B598A4F3BA35D0097B64CC2EF","019cf80f-9dc6-7ef5-89c7-2b6f99efd402","019cf80d-4266-7117-8a51-54e13c84aca4","","null","<div style=""background-color: white; width: 100vw; height: 100vh;""></div>","null","","","","","","","","",""
"","","","","","html-keyboard-response","17","73683","0.0-17.0","44A58D1B598A4F3BA35D0097B64CC2EF","019cf80f-9dc6-7ef5-89c7-2b6f99efd402","019cf80d-4266-7117-8a51-54e13c84aca4","","null","
                <div class=""stimulus-container"">
                    <img src=""images/semantic_sequence/using_technology_semantic/using_technology_semantic_1.png"" class=""exp-image"">
                    <div class=""question-area""></div> 
                </div>","null","","","","","","","","",""
"","","","","","html-button-response","18","75086","0.0-18.0","44A58D1B598A4F3BA35D0097B64CC2EF","019cf80f-9dc6-7ef5-89c7-2b6f99efd402","019cf80d-4266-7117-8a51-54e13c84aca4","","1403","
                <div class=""stimulus-container"">
                    <img src=""images/semantic_sequence/using_technology_semantic/using_technology_semantic_1.png"" class=""exp-image"">
                    <div class=""question-area"">
                        <p style=""font-size: 20px; font-weight: bold; margin: 0;"">Is there a person in this image?</p>
                    </div>
                </div>","0","main_experiment_trial","1","using_technology_semantic","semantic_sequence","","","","",""
"","","","","","html-keyboard-response","19","80094","0.0-19.0","44A58D1B598A4F3BA35D0097B64CC2EF","019cf80f-9dc6-7ef5-89c7-2b6f99efd402","019cf80d-4266-7117-8a51-54e13c84aca4","","null","
                <div class=""stimulus-container"">
                    <img src=""images/semantic_sequence/using_technology_semantic/using_technology_semantic_2.png"" class=""exp-image"">
                    <div class=""question-area""></div> 
                </div>","null","","","","","","","","",""
"","","","","","html-button-response","20","80958","0.0-20.0","44A58D1B598A4F3BA35D0097B64CC2EF","019cf80f-9dc6-7ef5-89c7-2b6f99efd402","019cf80d-4266-7117-8a51-54e13c84aca4","","863","
                <div class=""stimulus-container"">
                    <img src=""images/semantic_sequence/using_technology_semantic/using_technology_semantic_2.png"" class=""exp-image"">
                    <div class=""question-area"">
                        <p style=""font-size: 20px; font-weight: bold; margin: 0;"">Is there a person in this image?</p>
                    </div>
                </div>","0","main_experiment_trial","2","using_technology_semantic","semantic_sequence","","","","",""
"","","","","","html-keyboard-response","21","85962","0.0-21.0","44A58D1B598A4F3BA35D0097B64CC2EF","019cf80f-9dc6-7ef5-89c7-2b6f99efd402","019cf80d-4266-7117-8a51-54e13c84aca4","","null","
                <div class=""stimulus-container"">
                    <img src=""images/semantic_sequence/using_technology_semantic/using_technology_semantic_3.png"" class=""exp-image"">
                    <div class=""question-area""></div> 
                </div>","null","","","","","","","","",""
"","","","","","html-button-response","22","86698","0.0-22.0","44A58D1B598A4F3BA35D0097B64CC2EF","019cf80f-9dc6-7ef5-89c7-2b6f99efd402","019cf80d-4266-7117-8a51-54e13c84aca4","","735","
                <div class=""stimulus-container"">
                    <img src=""images/semantic_sequence/using_technology_semantic/using_technology_semantic_3.png"" class=""exp-image"">
                    <div class=""question-area"">
                        <p style=""font-size: 20px; font-weight: bold; margin: 0;"">Is there a person in this image?</p>
                    </div>
                </div>","0","main_experiment_trial","3","using_technology_semantic","semantic_sequence","","","","",""
"","","","","","html-keyboard-response","23","91704","0.0-23.0","44A58D1B598A4F3BA35D0097B64CC2EF","019cf80f-9dc6-7ef5-89c7-2b6f99efd402","019cf80d-4266-7117-8a51-54e13c84aca4","","null","
                <div class=""stimulus-container"">
                    <img src=""images/semantic_sequence/using_technology_semantic/using_technology_semantic_4.png"" class=""exp-image"">
                    <div class=""question-area""></div> 
                </div>","null","","","","","","","","",""
"","","","","","html-button-response","24","92471","0.0-24.0","44A58D1B598A4F3BA35D0097B64CC2EF","019cf80f-9dc6-7ef5-89c7-2b6f99efd402","019cf80d-4266-7117-8a51-54e13c84aca4","","766","
                <div class=""stimulus-container"">
                    <img src=""images/semantic_sequence/using_technology_semantic/using_technology_semantic_4.png"" class=""exp-image"">
                    <div class=""question-area"">
                        <p style=""font-size: 20px; font-weight: bold; margin: 0;"">Is there a person in this image?</p>
                    </div>
                </div>","0","main_experiment_trial","4","using_technology_semantic","semantic_sequence","","","","",""
"","","","","","html-keyboard-response","25","97487","0.0-25.0","44A58D1B598A4F3BA35D0097B64CC2EF","019cf80f-9dc6-7ef5-89c7-2b6f99efd402","019cf80d-4266-7117-8a51-54e13c84aca4","","null","
                <div class=""stimulus-container"">
                    <img src=""images/semantic_sequence/using_technology_semantic/using_technology_semantic_5.png"" class=""exp-image"">
                    <div class=""question-area""></div> 
                </div>","null","","","","","","","","",""
"","","","","","html-button-response","26","98334","0.0-26.0","44A58D1B598A4F3BA35D0097B64CC2EF","019cf80f-9dc6-7ef5-89c7-2b6f99efd402","019cf80d-4266-7117-8a51-54e13c84aca4","","847","
                <div class=""stimulus-container"">
                    <img src=""images/semantic_sequence/using_technology_semantic/using_technology_semantic_5.png"" class=""exp-image"">
                    <div class=""question-area"">
                        <p style=""font-size: 20px; font-weight: bold; margin: 0;"">Is there a person in this image?</p>
                    </div>
                </div>","0","main_experiment_trial","5","using_technology_semantic","semantic_sequence","","","","",""
"","","","","","html-keyboard-response","27","103336","0.0-27.0","44A58D1B598A4F3BA35D0097B64CC2EF","019cf80f-9dc6-7ef5-89c7-2b6f99efd402","019cf80d-4266-7117-8a51-54e13c84aca4","","null","
                <div class=""stimulus-container"">
                    <img src=""images/semantic_sequence/using_technology_semantic/using_technology_semantic_6.png"" class=""exp-image"">
                    <div class=""question-area""></div> 
                </div>","null","","","","","","","","",""
"","","","","","html-button-response","28","104146","0.0-28.0","44A58D1B598A4F3BA35D0097B64CC2EF","019cf80f-9dc6-7ef5-89c7-2b6f99efd402","019cf80d-4266-7117-8a51-54e13c84aca4","","810","
                <div class=""stimulus-container"">
                    <img src=""images/semantic_sequence/using_technology_semantic/using_technology_semantic_6.png"" class=""exp-image"">
                    <div class=""question-area"">
                        <p style=""font-size: 20px; font-weight: bold; margin: 0;"">Is there a person in this image?</p>
                    </div>
                </div>","0","main_experiment_trial","6","using_technology_semantic","semantic_sequence","","","","",""
"","","","","","html-keyboard-response","29","109154","0.0-29.0","44A58D1B598A4F3BA35D0097B64CC2EF","019cf80f-9dc6-7ef5-89c7-2b6f99efd402","019cf80d-4266-7117-8a51-54e13c84aca4","","null","
                <div class=""stimulus-container"">
                    <img src=""images/semantic_sequence/using_technology_semantic/using_technology_semantic_7.png"" class=""exp-image"">
                    <div class=""question-area""></div> 
                </div>","null","","","","","","","","",""
"","","","","","html-button-response","30","111750","0.0-30.0","44A58D1B598A4F3BA35D0097B64CC2EF","019cf80f-9dc6-7ef5-89c7-2b6f99efd402","019cf80d-4266-7117-8a51-54e13c84aca4","","2595","
                <div class=""stimulus-container"">
                    <img src=""images/semantic_sequence/using_technology_semantic/using_technology_semantic_7.png"" class=""exp-image"">
                    <div class=""question-area"">
                        <p style=""font-size: 20px; font-weight: bold; margin: 0;"">Is there a person in this image?</p>
                    </div>
                </div>","0","main_experiment_trial","7","using_technology_semantic","semantic_sequence","","","","",""
"","","","","","html-keyboard-response","31","116751","0.0-31.0","44A58D1B598A4F3BA35D0097B64CC2EF","019cf80f-9dc6-7ef5-89c7-2b6f99efd402","019cf80d-4266-7117-8a51-54e13c84aca4","","null","
                <div class=""stimulus-container"">
                    <img src=""images/semantic_sequence/using_technology_semantic/using_technology_semantic_8.png"" class=""exp-image"">
                    <div class=""question-area""></div> 
                </div>","null","","","","","","","","",""
"","","","","","html-button-response","32","117460","0.0-32.0","44A58D1B598A4F3BA35D0097B64CC2EF","019cf80f-9dc6-7ef5-89c7-2b6f99efd402","019cf80d-4266-7117-8a51-54e13c84aca4","","708","
                <div class=""stimulus-container"">
                    <img src=""images/semantic_sequence/using_technology_semantic/using_technology_semantic_8.png"" class=""exp-image"">
                    <div class=""question-area"">
                        <p style=""font-size: 20px; font-weight: bold; margin: 0;"">Is there a person in this image?</p>
                    </div>
                </div>","0","main_experiment_trial","8","using_technology_semantic","semantic_sequence","","","","",""
"","","","","","html-keyboard-response","33","122471","0.0-33.0","44A58D1B598A4F3BA35D0097B64CC2EF","019cf80f-9dc6-7ef5-89c7-2b6f99efd402","019cf80d-4266-7117-8a51-54e13c84aca4","","null","
                <div class=""stimulus-container"">
                    <img src=""images/semantic_sequence/using_technology_semantic/using_technology_semantic_9.png"" class=""exp-image"">
                    <div class=""question-area""></div> 
                </div>","null","","","","","","","","",""
"","","","","","html-button-response","34","123005","0.0-34.0","44A58D1B598A4F3BA35D0097B64CC2EF","019cf80f-9dc6-7ef5-89c7-2b6f99efd402","019cf80d-4266-7117-8a51-54e13c84aca4","","533","
                <div class=""stimulus-container"">
                    <img src=""images/semantic_sequence/using_technology_semantic/using_technology_semantic_9.png"" class=""exp-image"">
                    <div class=""question-area"">
                        <p style=""font-size: 20px; font-weight: bold; margin: 0;"">Is there a person in this image?</p>
                    </div>
                </div>","0","main_experiment_trial","9","using_technology_semantic","semantic_sequence","","","","",""
"","","","","","html-keyboard-response","35","128007","0.0-35.0","44A58D1B598A4F3BA35D0097B64CC2EF","019cf80f-9dc6-7ef5-89c7-2b6f99efd402","019cf80d-4266-7117-8a51-54e13c84aca4","","null","
                <div class=""stimulus-container"">
                    <img src=""images/semantic_sequence/using_technology_semantic/using_technology_semantic_ten.png"" class=""exp-image"">
                    <div class=""question-area""></div> 
                </div>","null","","","","","","","","",""
"","","","","","html-button-response","36","128551","0.0-36.0","44A58D1B598A4F3BA35D0097B64CC2EF","019cf80f-9dc6-7ef5-89c7-2b6f99efd402","019cf80d-4266-7117-8a51-54e13c84aca4","","543","
                <div class=""stimulus-container"">
                    <img src=""images/semantic_sequence/using_technology_semantic/using_technology_semantic_ten.png"" class=""exp-image"">
                    <div class=""question-area"">
                        <p style=""font-size: 20px; font-weight: bold; margin: 0;"">Is there a person in this image?</p>
                    </div>
                </div>","0","main_experiment_trial","ten","using_technology_semantic","semantic_sequence","","","","",""
"","","","","","html-keyboard-response","37","129562","0.0-37.0","44A58D1B598A4F3BA35D0097B64CC2EF","019cf80f-9dc6-7ef5-89c7-2b6f99efd402","019cf80d-4266-7117-8a51-54e13c84aca4","","null","<div style=""background-color: white; width: 100vw; height: 100vh;""></div>","null","","","","","","","","",""
"","","","","","html-keyboard-response","38","134570","0.0-38.0","44A58D1B598A4F3BA35D0097B64CC2EF","019cf80f-9dc6-7ef5-89c7-2b6f99efd402","019cf80d-4266-7117-8a51-54e13c84aca4","","null","
                <div class=""stimulus-container"">
                    <img src=""images/semantic_sequence/visiting_cities_semantic/visiting_cities_semantic_1.png"" class=""exp-image"">
                    <div class=""question-area""></div> 
                </div>","null","","","","","","","","",""
"","","","","","html-button-response","39","135332","0.0-39.0","44A58D1B598A4F3BA35D0097B64CC2EF","019cf80f-9dc6-7ef5-89c7-2b6f99efd402","019cf80d-4266-7117-8a51-54e13c84aca4","","761","
                <div class=""stimulus-container"">
                    <img src=""images/semantic_sequence/visiting_cities_semantic/visiting_cities_semantic_1.png"" class=""exp-image"">
                    <div class=""question-area"">
                        <p style=""font-size: 20px; font-weight: bold; margin: 0;"">Is there a person in this image?</p>
                    </div>
                </div>","0","main_experiment_trial","1","visiting_cities_semantic","semantic_sequence","","","","",""
"","","","","","html-keyboard-response","40","140346","0.0-40.0","44A58D1B598A4F3BA35D0097B64CC2EF","019cf80f-9dc6-7ef5-89c7-2b6f99efd402","019cf80d-4266-7117-8a51-54e13c84aca4","","null","
                <div class=""stimulus-container"">
                    <img src=""images/semantic_sequence/visiting_cities_semantic/visiting_cities_semantic_2.png"" class=""exp-image"">
                    <div class=""question-area""></div> 
                </div>","null","","","","","","","","",""
"","","","","","html-button-response","41","141246","0.0-41.0","44A58D1B598A4F3BA35D0097B64CC2EF","019cf80f-9dc6-7ef5-89c7-2b6f99efd402","019cf80d-4266-7117-8a51-54e13c84aca4","","899","
                <div class=""stimulus-container"">
                    <img src=""images/semantic_sequence/visiting_cities_semantic/visiting_cities_semantic_2.png"" class=""exp-image"">
                    <div class=""question-area"">
                        <p style=""font-size: 20px; font-weight: bold; margin: 0;"">Is there a person in this image?</p>
                    </div>
                </div>","1","main_experiment_trial","2","visiting_cities_semantic","semantic_sequence","","","","",""
"","","","","","html-keyboard-response","42","146255","0.0-42.0","44A58D1B598A4F3BA35D0097B64CC2EF","019cf80f-9dc6-7ef5-89c7-2b6f99efd402","019cf80d-4266-7117-8a51-54e13c84aca4","","null","
                <div class=""stimulus-container"">
                    <img src=""images/semantic_sequence/visiting_cities_semantic/visiting_cities_semantic_3.png"" class=""exp-image"">
                    <div class=""question-area""></div> 
                </div>","null","","","","","","","","",""
"","","","","","html-button-response","43","146853","0.0-43.0","44A58D1B598A4F3BA35D0097B64CC2EF","019cf80f-9dc6-7ef5-89c7-2b6f99efd402","019cf80d-4266-7117-8a51-54e13c84aca4","","597","
                <div class=""stimulus-container"">
                    <img src=""images/semantic_sequence/visiting_cities_semantic/visiting_cities_semantic_3.png"" class=""exp-image"">
                    <div class=""question-area"">
                        <p style=""font-size: 20px; font-weight: bold; margin: 0;"">Is there a person in this image?</p>
                    </div>
                </div>","1","main_experiment_trial","3","visiting_cities_semantic","semantic_sequence","","","","",""
"","","","","","html-keyboard-response","44","151854","0.0-44.0","44A58D1B598A4F3BA35D0097B64CC2EF","019cf80f-9dc6-7ef5-89c7-2b6f99efd402","019cf80d-4266-7117-8a51-54e13c84aca4","","null","
                <div class=""stimulus-container"">
                    <img src=""images/semantic_sequence/visiting_cities_semantic/visiting_cities_semantic_4.png"" class=""exp-image"">
                    <div class=""question-area""></div> 
                </div>","null","","","","","","","","",""
"","","","","","html-button-response","45","152549","0.0-45.0","44A58D1B598A4F3BA35D0097B64CC2EF","019cf80f-9dc6-7ef5-89c7-2b6f99efd402","019cf80d-4266-7117-8a51-54e13c84aca4","","694","
                <div class=""stimulus-container"">
                    <img src=""images/semantic_sequence/visiting_cities_semantic/visiting_cities_semantic_4.png"" class=""exp-image"">
                    <div class=""question-area"">
                        <p style=""font-size: 20px; font-weight: bold; margin: 0;"">Is there a person in this image?</p>
                    </div>
                </div>","1","main_experiment_trial","4","visiting_cities_semantic","semantic_sequence","","","","",""
"","","","","","html-keyboard-response","46","157549","0.0-46.0","44A58D1B598A4F3BA35D0097B64CC2EF","019cf80f-9dc6-7ef5-89c7-2b6f99efd402","019cf80d-4266-7117-8a51-54e13c84aca4","","null","
                <div class=""stimulus-container"">
                    <img src=""images/semantic_sequence/visiting_cities_semantic/visiting_cities_semantic_5.png"" class=""exp-image"">
                    <div class=""question-area""></div> 
                </div>","null","","","","","","","","",""
"","","","","","html-button-response","47","158302","0.0-47.0","44A58D1B598A4F3BA35D0097B64CC2EF","019cf80f-9dc6-7ef5-89c7-2b6f99efd402","019cf80d-4266-7117-8a51-54e13c84aca4","","753","
                <div class=""stimulus-container"">
                    <img src=""images/semantic_sequence/visiting_cities_semantic/visiting_cities_semantic_5.png"" class=""exp-image"">
                    <div class=""question-area"">
                        <p style=""font-size: 20px; font-weight: bold; margin: 0;"">Is there a person in this image?</p>
                    </div>
                </div>","1","main_experiment_trial","5","visiting_cities_semantic","semantic_sequence","","","","",""
"","","","","","html-keyboard-response","48","163303","0.0-48.0","44A58D1B598A4F3BA35D0097B64CC2EF","019cf80f-9dc6-7ef5-89c7-2b6f99efd402","019cf80d-4266-7117-8a51-54e13c84aca4","","null","
                <div class=""stimulus-container"">
                    <img src=""images/semantic_sequence/visiting_cities_semantic/visiting_cities_semantic_6.png"" class=""exp-image"">
                    <div class=""question-area""></div> 
                </div>","null","","","","","","","","",""
"","","","","","html-button-response","49","163995","0.0-49.0","44A58D1B598A4F3BA35D0097B64CC2EF","019cf80f-9dc6-7ef5-89c7-2b6f99efd402","019cf80d-4266-7117-8a51-54e13c84aca4","","691","
                <div class=""stimulus-container"">
                    <img src=""images/semantic_sequence/visiting_cities_semantic/visiting_cities_semantic_6.png"" class=""exp-image"">
                    <div class=""question-area"">
                        <p style=""font-size: 20px; font-weight: bold; margin: 0;"">Is there a person in this image?</p>
                    </div>
                </div>","1","main_experiment_trial","6","visiting_cities_semantic","semantic_sequence","","","","",""
"","","","","","html-keyboard-response","50","169003","0.0-50.0","44A58D1B598A4F3BA35D0097B64CC2EF","019cf80f-9dc6-7ef5-89c7-2b6f99efd402","019cf80d-4266-7117-8a51-54e13c84aca4","","null","
                <div class=""stimulus-container"">
                    <img src=""images/semantic_sequence/visiting_cities_semantic/visiting_cities_semantic_7.png"" class=""exp-image"">
                    <div class=""question-area""></div> 
                </div>","null","","","","","","","","",""
"","","","","","html-button-response","51","169749","0.0-51.0","44A58D1B598A4F3BA35D0097B64CC2EF","019cf80f-9dc6-7ef5-89c7-2b6f99efd402","019cf80d-4266-7117-8a51-54e13c84aca4","","746","
                <div class=""stimulus-container"">
                    <img src=""images/semantic_sequence/visiting_cities_semantic/visiting_cities_semantic_7.png"" class=""exp-image"">
                    <div class=""question-area"">
                        <p style=""font-size: 20px; font-weight: bold; margin: 0;"">Is there a person in this image?</p>
                    </div>
                </div>","0","main_experiment_trial","7","visiting_cities_semantic","semantic_sequence","","","","",""
"","","","","","html-keyboard-response","52","174757","0.0-52.0","44A58D1B598A4F3BA35D0097B64CC2EF","019cf80f-9dc6-7ef5-89c7-2b6f99efd402","019cf80d-4266-7117-8a51-54e13c84aca4","","null","
                <div class=""stimulus-container"">
                    <img src=""images/semantic_sequence/visiting_cities_semantic/visiting_cities_semantic_8.png"" class=""exp-image"">
                    <div class=""question-area""></div> 
                </div>","null","","","","","","","","",""
"","","","","","html-button-response","53","176410","0.0-53.0","44A58D1B598A4F3BA35D0097B64CC2EF","019cf80f-9dc6-7ef5-89c7-2b6f99efd402","019cf80d-4266-7117-8a51-54e13c84aca4","","1653","
                <div class=""stimulus-container"">
                    <img src=""images/semantic_sequence/visiting_cities_semantic/visiting_cities_semantic_8.png"" class=""exp-image"">
                    <div class=""question-area"">
                        <p style=""font-size: 20px; font-weight: bold; margin: 0;"">Is there a person in this image?</p>
                    </div>
                </div>","0","main_experiment_trial","8","visiting_cities_semantic","semantic_sequence","","","","",""
"","","","","","html-keyboard-response","54","181412","0.0-54.0","44A58D1B598A4F3BA35D0097B64CC2EF","019cf80f-9dc6-7ef5-89c7-2b6f99efd402","019cf80d-4266-7117-8a51-54e13c84aca4","","null","
                <div class=""stimulus-container"">
                    <img src=""images/semantic_sequence/visiting_cities_semantic/visiting_cities_semantic_9.png"" class=""exp-image"">
                    <div class=""question-area""></div> 
                </div>","null","","","","","","","","",""
"","","","","","html-button-response","55","182073","0.0-55.0","44A58D1B598A4F3BA35D0097B64CC2EF","019cf80f-9dc6-7ef5-89c7-2b6f99efd402","019cf80d-4266-7117-8a51-54e13c84aca4","","661","
                <div class=""stimulus-container"">
                    <img src=""images/semantic_sequence/visiting_cities_semantic/visiting_cities_semantic_9.png"" class=""exp-image"">
                    <div class=""question-area"">
                        <p style=""font-size: 20px; font-weight: bold; margin: 0;"">Is there a person in this image?</p>
                    </div>
                </div>","0","main_experiment_trial","9","visiting_cities_semantic","semantic_sequence","","","","",""
"","","","","","html-keyboard-response","56","187087","0.0-56.0","44A58D1B598A4F3BA35D0097B64CC2EF","019cf80f-9dc6-7ef5-89c7-2b6f99efd402","019cf80d-4266-7117-8a51-54e13c84aca4","","null","
                <div class=""stimulus-container"">
                    <img src=""images/semantic_sequence/visiting_cities_semantic/visiting_cities_semantic_ten.png"" class=""exp-image"">
                    <div class=""question-area""></div> 
                </div>","null","","","","","","","","",""
"","","","","","html-button-response","57","187866","0.0-57.0","44A58D1B598A4F3BA35D0097B64CC2EF","019cf80f-9dc6-7ef5-89c7-2b6f99efd402","019cf80d-4266-7117-8a51-54e13c84aca4","","778","
                <div class=""stimulus-container"">
                    <img src=""images/semantic_sequence/visiting_cities_semantic/visiting_cities_semantic_ten.png"" class=""exp-image"">
                    <div class=""question-area"">
                        <p style=""font-size: 20px; font-weight: bold; margin: 0;"">Is there a person in this image?</p>
                    </div>
                </div>","1","main_experiment_trial","ten","visiting_cities_semantic","semantic_sequence","","","","",""
"","","","","","html-keyboard-response","58","188883","0.0-58.0","44A58D1B598A4F3BA35D0097B64CC2EF","019cf80f-9dc6-7ef5-89c7-2b6f99efd402","019cf80d-4266-7117-8a51-54e13c84aca4","","null","<div style=""background-color: white; width: 100vw; height: 100vh;""></div>","null","","","","","","","","",""
"","","","","","html-keyboard-response","59","193887","0.0-59.0","44A58D1B598A4F3BA35D0097B64CC2EF","019cf80f-9dc6-7ef5-89c7-2b6f99efd402","019cf80d-4266-7117-8a51-54e13c84aca4","","null","
                <div class=""stimulus-container"">
                    <img src=""images/schematic_sequence/hotel_scheme/hotel_scheme_1.png"" class=""exp-image"">
                    <div class=""question-area""></div> 
                </div>","null","","","","","","","","",""
"","","","","","html-button-response","60","194916","0.0-60.0","44A58D1B598A4F3BA35D0097B64CC2EF","019cf80f-9dc6-7ef5-89c7-2b6f99efd402","019cf80d-4266-7117-8a51-54e13c84aca4","","1029","
                <div class=""stimulus-container"">
                    <img src=""images/schematic_sequence/hotel_scheme/hotel_scheme_1.png"" class=""exp-image"">
                    <div class=""question-area"">
                        <p style=""font-size: 20px; font-weight: bold; margin: 0;"">Is there a person in this image?</p>
                    </div>
                </div>","1","main_experiment_trial","1","hotel_scheme","schematic_sequence","","","","",""
"","","","","","html-keyboard-response","61","199920","0.0-61.0","44A58D1B598A4F3BA35D0097B64CC2EF","019cf80f-9dc6-7ef5-89c7-2b6f99efd402","019cf80d-4266-7117-8a51-54e13c84aca4","","null","
                <div class=""stimulus-container"">
                    <img src=""images/schematic_sequence/hotel_scheme/hotel_scheme_2.png"" class=""exp-image"">
                    <div class=""question-area""></div> 
                </div>","null","","","","","","","","",""
"","","","","","html-button-response","62","200848","0.0-62.0","44A58D1B598A4F3BA35D0097B64CC2EF","019cf80f-9dc6-7ef5-89c7-2b6f99efd402","019cf80d-4266-7117-8a51-54e13c84aca4","","927","
                <div class=""stimulus-container"">
                    <img src=""images/schematic_sequence/hotel_scheme/hotel_scheme_2.png"" class=""exp-image"">
                    <div class=""question-area"">
                        <p style=""font-size: 20px; font-weight: bold; margin: 0;"">Is there a person in this image?</p>
                    </div>
                </div>","0","main_experiment_trial","2","hotel_scheme","schematic_sequence","","","","",""
"","","","","","html-keyboard-response","63","205864","0.0-63.0","44A58D1B598A4F3BA35D0097B64CC2EF","019cf80f-9dc6-7ef5-89c7-2b6f99efd402","019cf80d-4266-7117-8a51-54e13c84aca4","","null","
                <div class=""stimulus-container"">
                    <img src=""images/schematic_sequence/hotel_scheme/hotel_scheme_3.png"" class=""exp-image"">
                    <div class=""question-area""></div> 
                </div>","null","","","","","","","","",""
"","","","","","html-button-response","64","206534","0.0-64.0","44A58D1B598A4F3BA35D0097B64CC2EF","019cf80f-9dc6-7ef5-89c7-2b6f99efd402","019cf80d-4266-7117-8a51-54e13c84aca4","","669","
                <div class=""stimulus-container"">
                    <img src=""images/schematic_sequence/hotel_scheme/hotel_scheme_3.png"" class=""exp-image"">
                    <div class=""question-area"">
                        <p style=""font-size: 20px; font-weight: bold; margin: 0;"">Is there a person in this image?</p>
                    </div>
                </div>","0","main_experiment_trial","3","hotel_scheme","schematic_sequence","","","","",""
"","","","","","html-keyboard-response","65","211546","0.0-65.0","44A58D1B598A4F3BA35D0097B64CC2EF","019cf80f-9dc6-7ef5-89c7-2b6f99efd402","019cf80d-4266-7117-8a51-54e13c84aca4","","null","
                <div class=""stimulus-container"">
                    <img src=""images/schematic_sequence/hotel_scheme/hotel_scheme_4.png"" class=""exp-image"">
                    <div class=""question-area""></div> 
                </div>","null","","","","","","","","",""
"","","","","","html-button-response","66","212251","0.0-66.0","44A58D1B598A4F3BA35D0097B64CC2EF","019cf80f-9dc6-7ef5-89c7-2b6f99efd402","019cf80d-4266-7117-8a51-54e13c84aca4","","704","
                <div class=""stimulus-container"">
                    <img src=""images/schematic_sequence/hotel_scheme/hotel_scheme_4.png"" class=""exp-image"">
                    <div class=""question-area"">
                        <p style=""font-size: 20px; font-weight: bold; margin: 0;"">Is there a person in this image?</p>
                    </div>
                </div>","1","main_experiment_trial","4","hotel_scheme","schematic_sequence","","","","",""
"","","","","","html-keyboard-response","67","217257","0.0-67.0","44A58D1B598A4F3BA35D0097B64CC2EF","019cf80f-9dc6-7ef5-89c7-2b6f99efd402","019cf80d-4266-7117-8a51-54e13c84aca4","","null","
                <div class=""stimulus-container"">
                    <img src=""images/schematic_sequence/hotel_scheme/hotel_scheme_5.png"" class=""exp-image"">
                    <div class=""question-area""></div> 
                </div>","null","","","","","","","","",""
"","","","","","html-button-response","68","217907","0.0-68.0","44A58D1B598A4F3BA35D0097B64CC2EF","019cf80f-9dc6-7ef5-89c7-2b6f99efd402","019cf80d-4266-7117-8a51-54e13c84aca4","","650","
                <div class=""stimulus-container"">
                    <img src=""images/schematic_sequence/hotel_scheme/hotel_scheme_5.png"" class=""exp-image"">
                    <div class=""question-area"">
                        <p style=""font-size: 20px; font-weight: bold; margin: 0;"">Is there a person in this image?</p>
                    </div>
                </div>","0","main_experiment_trial","5","hotel_scheme","schematic_sequence","","","","",""
"","","","","","html-keyboard-response","69","222924","0.0-69.0","44A58D1B598A4F3BA35D0097B64CC2EF","019cf80f-9dc6-7ef5-89c7-2b6f99efd402","019cf80d-4266-7117-8a51-54e13c84aca4","","null","
                <div class=""stimulus-container"">
                    <img src=""images/schematic_sequence/hotel_scheme/hotel_scheme_6.png"" class=""exp-image"">
                    <div class=""question-area""></div> 
                </div>","null","","","","","","","","",""
"","","","","","html-button-response","70","223706","0.0-70.0","44A58D1B598A4F3BA35D0097B64CC2EF","019cf80f-9dc6-7ef5-89c7-2b6f99efd402","019cf80d-4266-7117-8a51-54e13c84aca4","","782","
                <div class=""stimulus-container"">
                    <img src=""images/schematic_sequence/hotel_scheme/hotel_scheme_6.png"" class=""exp-image"">
                    <div class=""question-area"">
                        <p style=""font-size: 20px; font-weight: bold; margin: 0;"">Is there a person in this image?</p>
                    </div>
                </div>","0","main_experiment_trial","6","hotel_scheme","schematic_sequence","","","","",""
"","","","","","html-keyboard-response","71","228715","0.0-71.0","44A58D1B598A4F3BA35D0097B64CC2EF","019cf80f-9dc6-7ef5-89c7-2b6f99efd402","019cf80d-4266-7117-8a51-54e13c84aca4","","null","
                <div class=""stimulus-container"">
                    <img src=""images/schematic_sequence/hotel_scheme/hotel_scheme_7.png"" class=""exp-image"">
                    <div class=""question-area""></div> 
                </div>","null","","","","","","","","",""
"","","","","","html-button-response","72","229605","0.0-72.0","44A58D1B598A4F3BA35D0097B64CC2EF","019cf80f-9dc6-7ef5-89c7-2b6f99efd402","019cf80d-4266-7117-8a51-54e13c84aca4","","890","
                <div class=""stimulus-container"">
                    <img src=""images/schematic_sequence/hotel_scheme/hotel_scheme_7.png"" class=""exp-image"">
                    <div class=""question-area"">
                        <p style=""font-size: 20px; font-weight: bold; margin: 0;"">Is there a person in this image?</p>
                    </div>
                </div>","0","main_experiment_trial","7","hotel_scheme","schematic_sequence","","","","",""
"","","","","","html-keyboard-response","73","234618","0.0-73.0","44A58D1B598A4F3BA35D0097B64CC2EF","019cf80f-9dc6-7ef5-89c7-2b6f99efd402","019cf80d-4266-7117-8a51-54e13c84aca4","","null","
                <div class=""stimulus-container"">
                    <img src=""images/schematic_sequence/hotel_scheme/hotel_scheme_8.png"" class=""exp-image"">
                    <div class=""question-area""></div> 
                </div>","null","","","","","","","","",""
"","","","","","html-button-response","74","235344","0.0-74.0","44A58D1B598A4F3BA35D0097B64CC2EF","019cf80f-9dc6-7ef5-89c7-2b6f99efd402","019cf80d-4266-7117-8a51-54e13c84aca4","","725","
                <div class=""stimulus-container"">
                    <img src=""images/schematic_sequence/hotel_scheme/hotel_scheme_8.png"" class=""exp-image"">
                    <div class=""question-area"">
                        <p style=""font-size: 20px; font-weight: bold; margin: 0;"">Is there a person in this image?</p>
                    </div>
                </div>","0","main_experiment_trial","8","hotel_scheme","schematic_sequence","","","","",""
"","","","","","html-keyboard-response","75","240358","0.0-75.0","44A58D1B598A4F3BA35D0097B64CC2EF","019cf80f-9dc6-7ef5-89c7-2b6f99efd402","019cf80d-4266-7117-8a51-54e13c84aca4","","null","
                <div class=""stimulus-container"">
                    <img src=""images/schematic_sequence/hotel_scheme/hotel_scheme_9.png"" class=""exp-image"">
                    <div class=""question-area""></div> 
                </div>","null","","","","","","","","",""
"","","","","","html-button-response","76","241125","0.0-76.0","44A58D1B598A4F3BA35D0097B64CC2EF","019cf80f-9dc6-7ef5-89c7-2b6f99efd402","019cf80d-4266-7117-8a51-54e13c84aca4","","767","
                <div class=""stimulus-container"">
                    <img src=""images/schematic_sequence/hotel_scheme/hotel_scheme_9.png"" class=""exp-image"">
                    <div class=""question-area"">
                        <p style=""font-size: 20px; font-weight: bold; margin: 0;"">Is there a person in this image?</p>
                    </div>
                </div>","0","main_experiment_trial","9","hotel_scheme","schematic_sequence","","","","",""
"","","","","","html-keyboard-response","77","246137","0.0-77.0","44A58D1B598A4F3BA35D0097B64CC2EF","019cf80f-9dc6-7ef5-89c7-2b6f99efd402","019cf80d-4266-7117-8a51-54e13c84aca4","","null","
                <div class=""stimulus-container"">
                    <img src=""images/schematic_sequence/hotel_scheme/hotel_scheme_ten.png"" class=""exp-image"">
                    <div class=""question-area""></div> 
                </div>","null","","","","","","","","",""
"","","","","","html-button-response","78","246947","0.0-78.0","44A58D1B598A4F3BA35D0097B64CC2EF","019cf80f-9dc6-7ef5-89c7-2b6f99efd402","019cf80d-4266-7117-8a51-54e13c84aca4","","810","
                <div class=""stimulus-container"">
                    <img src=""images/schematic_sequence/hotel_scheme/hotel_scheme_ten.png"" class=""exp-image"">
                    <div class=""question-area"">
                        <p style=""font-size: 20px; font-weight: bold; margin: 0;"">Is there a person in this image?</p>
                    </div>
                </div>","0","main_experiment_trial","ten","hotel_scheme","schematic_sequence","","","","",""
"","","","","","html-keyboard-response","79","247955","0.0-79.0","44A58D1B598A4F3BA35D0097B64CC2EF","019cf80f-9dc6-7ef5-89c7-2b6f99efd402","019cf80d-4266-7117-8a51-54e13c84aca4","","null","<div style=""background-color: white; width: 100vw; height: 100vh;""></div>","null","","","","","","","","",""
"","","","","","html-keyboard-response","80","252966","0.0-80.0","44A58D1B598A4F3BA35D0097B64CC2EF","019cf80f-9dc6-7ef5-89c7-2b6f99efd402","019cf80d-4266-7117-8a51-54e13c84aca4","","null","
                <div class=""stimulus-container"">
                    <img src=""images/schematic_sequence/interview_scheme/interview_scheme_1.png"" class=""exp-image"">
                    <div class=""question-area""></div> 
                </div>","null","","","","","","","","",""
"","","","","","html-button-response","81","253880","0.0-81.0","44A58D1B598A4F3BA35D0097B64CC2EF","019cf80f-9dc6-7ef5-89c7-2b6f99efd402","019cf80d-4266-7117-8a51-54e13c84aca4","","913","
                <div class=""stimulus-container"">
                    <img src=""images/schematic_sequence/interview_scheme/interview_scheme_1.png"" class=""exp-image"">
                    <div class=""question-area"">
                        <p style=""font-size: 20px; font-weight: bold; margin: 0;"">Is there a person in this image?</p>
                    </div>
                </div>","1","main_experiment_trial","1","interview_scheme","schematic_sequence","","","","",""
"","","","","","html-keyboard-response","82","258887","0.0-82.0","44A58D1B598A4F3BA35D0097B64CC2EF","019cf80f-9dc6-7ef5-89c7-2b6f99efd402","019cf80d-4266-7117-8a51-54e13c84aca4","","null","
                <div class=""stimulus-container"">
                    <img src=""images/schematic_sequence/interview_scheme/interview_scheme_2.png"" class=""exp-image"">
                    <div class=""question-area""></div> 
                </div>","null","","","","","","","","",""
"","","","","","html-button-response","83","259642","0.0-83.0","44A58D1B598A4F3BA35D0097B64CC2EF","019cf80f-9dc6-7ef5-89c7-2b6f99efd402","019cf80d-4266-7117-8a51-54e13c84aca4","","754","
                <div class=""stimulus-container"">
                    <img src=""images/schematic_sequence/interview_scheme/interview_scheme_2.png"" class=""exp-image"">
                    <div class=""question-area"">
                        <p style=""font-size: 20px; font-weight: bold; margin: 0;"">Is there a person in this image?</p>
                    </div>
                </div>","1","main_experiment_trial","2","interview_scheme","schematic_sequence","","","","",""
"","","","","","html-keyboard-response","84","264645","0.0-84.0","44A58D1B598A4F3BA35D0097B64CC2EF","019cf80f-9dc6-7ef5-89c7-2b6f99efd402","019cf80d-4266-7117-8a51-54e13c84aca4","","null","
                <div class=""stimulus-container"">
                    <img src=""images/schematic_sequence/interview_scheme/interview_scheme_3.png"" class=""exp-image"">
                    <div class=""question-area""></div> 
                </div>","null","","","","","","","","",""
"","","","","","html-button-response","85","265577","0.0-85.0","44A58D1B598A4F3BA35D0097B64CC2EF","019cf80f-9dc6-7ef5-89c7-2b6f99efd402","019cf80d-4266-7117-8a51-54e13c84aca4","","932","
                <div class=""stimulus-container"">
                    <img src=""images/schematic_sequence/interview_scheme/interview_scheme_3.png"" class=""exp-image"">
                    <div class=""question-area"">
                        <p style=""font-size: 20px; font-weight: bold; margin: 0;"">Is there a person in this image?</p>
                    </div>
                </div>","1","main_experiment_trial","3","interview_scheme","schematic_sequence","","","","",""
"","","","","","html-keyboard-response","86","270579","0.0-86.0","44A58D1B598A4F3BA35D0097B64CC2EF","019cf80f-9dc6-7ef5-89c7-2b6f99efd402","019cf80d-4266-7117-8a51-54e13c84aca4","","null","
                <div class=""stimulus-container"">
                    <img src=""images/schematic_sequence/interview_scheme/interview_scheme_4.png"" class=""exp-image"">
                    <div class=""question-area""></div> 
                </div>","null","","","","","","","","",""
"","","","","","html-button-response","87","271329","0.0-87.0","44A58D1B598A4F3BA35D0097B64CC2EF","019cf80f-9dc6-7ef5-89c7-2b6f99efd402","019cf80d-4266-7117-8a51-54e13c84aca4","","749","
                <div class=""stimulus-container"">
                    <img src=""images/schematic_sequence/interview_scheme/interview_scheme_4.png"" class=""exp-image"">
                    <div class=""question-area"">
                        <p style=""font-size: 20px; font-weight: bold; margin: 0;"">Is there a person in this image?</p>
                    </div>
                </div>","1","main_experiment_trial","4","interview_scheme","schematic_sequence","","","","",""
"","","","","","html-keyboard-response","88","276347","0.0-88.0","44A58D1B598A4F3BA35D0097B64CC2EF","019cf80f-9dc6-7ef5-89c7-2b6f99efd402","019cf80d-4266-7117-8a51-54e13c84aca4","","null","
                <div class=""stimulus-container"">
                    <img src=""images/schematic_sequence/interview_scheme/interview_scheme_5.png"" class=""exp-image"">
                    <div class=""question-area""></div> 
                </div>","null","","","","","","","","",""
"","","","","","html-button-response","89","277140","0.0-89.0","44A58D1B598A4F3BA35D0097B64CC2EF","019cf80f-9dc6-7ef5-89c7-2b6f99efd402","019cf80d-4266-7117-8a51-54e13c84aca4","","793","
                <div class=""stimulus-container"">
                    <img src=""images/schematic_sequence/interview_scheme/interview_scheme_5.png"" class=""exp-image"">
                    <div class=""question-area"">
                        <p style=""font-size: 20px; font-weight: bold; margin: 0;"">Is there a person in this image?</p>
                    </div>
                </div>","0","main_experiment_trial","5","interview_scheme","schematic_sequence","","","","",""
"","","","","","html-keyboard-response","90","282146","0.0-90.0","44A58D1B598A4F3BA35D0097B64CC2EF","019cf80f-9dc6-7ef5-89c7-2b6f99efd402","019cf80d-4266-7117-8a51-54e13c84aca4","","null","
                <div class=""stimulus-container"">
                    <img src=""images/schematic_sequence/interview_scheme/interview_scheme_6.png"" class=""exp-image"">
                    <div class=""question-area""></div> 
                </div>","null","","","","","","","","",""
"","","","","","html-button-response","91","283177","0.0-91.0","44A58D1B598A4F3BA35D0097B64CC2EF","019cf80f-9dc6-7ef5-89c7-2b6f99efd402","019cf80d-4266-7117-8a51-54e13c84aca4","","1029","
                <div class=""stimulus-container"">
                    <img src=""images/schematic_sequence/interview_scheme/interview_scheme_6.png"" class=""exp-image"">
                    <div class=""question-area"">
                        <p style=""font-size: 20px; font-weight: bold; margin: 0;"">Is there a person in this image?</p>
                    </div>
                </div>","0","main_experiment_trial","6","interview_scheme","schematic_sequence","","","","",""
"","","","","","html-keyboard-response","92","288178","0.0-92.0","44A58D1B598A4F3BA35D0097B64CC2EF","019cf80f-9dc6-7ef5-89c7-2b6f99efd402","019cf80d-4266-7117-8a51-54e13c84aca4","","null","
                <div class=""stimulus-container"">
                    <img src=""images/schematic_sequence/interview_scheme/interview_scheme_7.png"" class=""exp-image"">
                    <div class=""question-area""></div> 
                </div>","null","","","","","","","","",""
"","","","","","html-button-response","93","288801","0.0-93.0","44A58D1B598A4F3BA35D0097B64CC2EF","019cf80f-9dc6-7ef5-89c7-2b6f99efd402","019cf80d-4266-7117-8a51-54e13c84aca4","","622","
                <div class=""stimulus-container"">
                    <img src=""images/schematic_sequence/interview_scheme/interview_scheme_7.png"" class=""exp-image"">
                    <div class=""question-area"">
                        <p style=""font-size: 20px; font-weight: bold; margin: 0;"">Is there a person in this image?</p>
                    </div>
                </div>","0","main_experiment_trial","7","interview_scheme","schematic_sequence","","","","",""
"","","","","","html-keyboard-response","94","293816","0.0-94.0","44A58D1B598A4F3BA35D0097B64CC2EF","019cf80f-9dc6-7ef5-89c7-2b6f99efd402","019cf80d-4266-7117-8a51-54e13c84aca4","","null","
                <div class=""stimulus-container"">
                    <img src=""images/schematic_sequence/interview_scheme/interview_scheme_8.png"" class=""exp-image"">
                    <div class=""question-area""></div> 
                </div>","null","","","","","","","","",""
"","","","","","html-button-response","95","294335","0.0-95.0","44A58D1B598A4F3BA35D0097B64CC2EF","019cf80f-9dc6-7ef5-89c7-2b6f99efd402","019cf80d-4266-7117-8a51-54e13c84aca4","","518","
                <div class=""stimulus-container"">
                    <img src=""images/schematic_sequence/interview_scheme/interview_scheme_8.png"" class=""exp-image"">
                    <div class=""question-area"">
                        <p style=""font-size: 20px; font-weight: bold; margin: 0;"">Is there a person in this image?</p>
                    </div>
                </div>","0","main_experiment_trial","8","interview_scheme","schematic_sequence","","","","",""
"","","","","","html-keyboard-response","96","299349","0.0-96.0","44A58D1B598A4F3BA35D0097B64CC2EF","019cf80f-9dc6-7ef5-89c7-2b6f99efd402","019cf80d-4266-7117-8a51-54e13c84aca4","","null","
                <div class=""stimulus-container"">
                    <img src=""images/schematic_sequence/interview_scheme/interview_scheme_9.png"" class=""exp-image"">
                    <div class=""question-area""></div> 
                </div>","null","","","","","","","","",""
"","","","","","html-button-response","97","300439","0.0-97.0","44A58D1B598A4F3BA35D0097B64CC2EF","019cf80f-9dc6-7ef5-89c7-2b6f99efd402","019cf80d-4266-7117-8a51-54e13c84aca4","","1089","
                <div class=""stimulus-container"">
                    <img src=""images/schematic_sequence/interview_scheme/interview_scheme_9.png"" class=""exp-image"">
                    <div class=""question-area"">
                        <p style=""font-size: 20px; font-weight: bold; margin: 0;"">Is there a person in this image?</p>
                    </div>
                </div>","0","main_experiment_trial","9","interview_scheme","schematic_sequence","","","","",""
"","","","","","html-keyboard-response","98","305447","0.0-98.0","44A58D1B598A4F3BA35D0097B64CC2EF","019cf80f-9dc6-7ef5-89c7-2b6f99efd402","019cf80d-4266-7117-8a51-54e13c84aca4","","null","
                <div class=""stimulus-container"">
                    <img src=""images/schematic_sequence/interview_scheme/interview_scheme_ten.png"" class=""exp-image"">
                    <div class=""question-area""></div> 
                </div>","null","","","","","","","","",""
"","","","","","html-button-response","99","306194","0.0-99.0","44A58D1B598A4F3BA35D0097B64CC2EF","019cf80f-9dc6-7ef5-89c7-2b6f99efd402","019cf80d-4266-7117-8a51-54e13c84aca4","","746","
                <div class=""stimulus-container"">
                    <img src=""images/schematic_sequence/interview_scheme/interview_scheme_ten.png"" class=""exp-image"">
                    <div class=""question-area"">
                        <p style=""font-size: 20px; font-weight: bold; margin: 0;"">Is there a person in this image?</p>
                    </div>
                </div>","0","main_experiment_trial","ten","interview_scheme","schematic_sequence","","","","",""
"","","","","","html-keyboard-response","100","307202","0.0-100.0","44A58D1B598A4F3BA35D0097B64CC2EF","019cf80f-9dc6-7ef5-89c7-2b6f99efd402","019cf80d-4266-7117-8a51-54e13c84aca4","","null","<div style=""background-color: white; width: 100vw; height: 100vh;""></div>","null","","","","","","","","",""
"","","","","","html-keyboard-response","101","312211","0.0-101.0","44A58D1B598A4F3BA35D0097B64CC2EF","019cf80f-9dc6-7ef5-89c7-2b6f99efd402","019cf80d-4266-7117-8a51-54e13c84aca4","","null","
                <div class=""stimulus-container"">
                    <img src=""images/semantic_sequence/market_semantic/market_semantic_1.png"" class=""exp-image"">
                    <div class=""question-area""></div> 
                </div>","null","","","","","","","","",""
"","","","","","html-button-response","102","313043","0.0-102.0","44A58D1B598A4F3BA35D0097B64CC2EF","019cf80f-9dc6-7ef5-89c7-2b6f99efd402","019cf80d-4266-7117-8a51-54e13c84aca4","","831","
                <div class=""stimulus-container"">
                    <img src=""images/semantic_sequence/market_semantic/market_semantic_1.png"" class=""exp-image"">
                    <div class=""question-area"">
                        <p style=""font-size: 20px; font-weight: bold; margin: 0;"">Is there a person in this image?</p>
                    </div>
                </div>","1","main_experiment_trial","1","market_semantic","semantic_sequence","","","","",""
"","","","","","html-keyboard-response","103","318054","0.0-103.0","44A58D1B598A4F3BA35D0097B64CC2EF","019cf80f-9dc6-7ef5-89c7-2b6f99efd402","019cf80d-4266-7117-8a51-54e13c84aca4","","null","
                <div class=""stimulus-container"">
                    <img src=""images/semantic_sequence/market_semantic/market_semantic_2.png"" class=""exp-image"">
                    <div class=""question-area""></div> 
                </div>","null","","","","","","","","",""
"","","","","","html-button-response","104","318818","0.0-104.0","44A58D1B598A4F3BA35D0097B64CC2EF","019cf80f-9dc6-7ef5-89c7-2b6f99efd402","019cf80d-4266-7117-8a51-54e13c84aca4","","763","
                <div class=""stimulus-container"">
                    <img src=""images/semantic_sequence/market_semantic/market_semantic_2.png"" class=""exp-image"">
                    <div class=""question-area"">
                        <p style=""font-size: 20px; font-weight: bold; margin: 0;"">Is there a person in this image?</p>
                    </div>
                </div>","1","main_experiment_trial","2","market_semantic","semantic_sequence","","","","",""
"","","","","","html-keyboard-response","105","323823","0.0-105.0","44A58D1B598A4F3BA35D0097B64CC2EF","019cf80f-9dc6-7ef5-89c7-2b6f99efd402","019cf80d-4266-7117-8a51-54e13c84aca4","","null","
                <div class=""stimulus-container"">
                    <img src=""images/semantic_sequence/market_semantic/market_semantic_3.png"" class=""exp-image"">
                    <div class=""question-area""></div> 
                </div>","null","","","","","","","","",""
"","","","","","html-button-response","106","324733","0.0-106.0","44A58D1B598A4F3BA35D0097B64CC2EF","019cf80f-9dc6-7ef5-89c7-2b6f99efd402","019cf80d-4266-7117-8a51-54e13c84aca4","","910","
                <div class=""stimulus-container"">
                    <img src=""images/semantic_sequence/market_semantic/market_semantic_3.png"" class=""exp-image"">
                    <div class=""question-area"">
                        <p style=""font-size: 20px; font-weight: bold; margin: 0;"">Is there a person in this image?</p>
                    </div>
                </div>","1","main_experiment_trial","3","market_semantic","semantic_sequence","","","","",""
"","","","","","html-keyboard-response","107","329748","0.0-107.0","44A58D1B598A4F3BA35D0097B64CC2EF","019cf80f-9dc6-7ef5-89c7-2b6f99efd402","019cf80d-4266-7117-8a51-54e13c84aca4","","null","
                <div class=""stimulus-container"">
                    <img src=""images/semantic_sequence/market_semantic/market_semantic_4.png"" class=""exp-image"">
                    <div class=""question-area""></div> 
                </div>","null","","","","","","","","",""
"","","","","","html-button-response","108","330647","0.0-108.0","44A58D1B598A4F3BA35D0097B64CC2EF","019cf80f-9dc6-7ef5-89c7-2b6f99efd402","019cf80d-4266-7117-8a51-54e13c84aca4","","898","
                <div class=""stimulus-container"">
                    <img src=""images/semantic_sequence/market_semantic/market_semantic_4.png"" class=""exp-image"">
                    <div class=""question-area"">
                        <p style=""font-size: 20px; font-weight: bold; margin: 0;"">Is there a person in this image?</p>
                    </div>
                </div>","0","main_experiment_trial","4","market_semantic","semantic_sequence","","","","",""
"","","","","","html-keyboard-response","109","335663","0.0-109.0","44A58D1B598A4F3BA35D0097B64CC2EF","019cf80f-9dc6-7ef5-89c7-2b6f99efd402","019cf80d-4266-7117-8a51-54e13c84aca4","","null","
                <div class=""stimulus-container"">
                    <img src=""images/semantic_sequence/market_semantic/market_semantic_5.png"" class=""exp-image"">
                    <div class=""question-area""></div> 
                </div>","null","","","","","","","","",""
"","","","","","html-button-response","110","336620","0.0-110.0","44A58D1B598A4F3BA35D0097B64CC2EF","019cf80f-9dc6-7ef5-89c7-2b6f99efd402","019cf80d-4266-7117-8a51-54e13c84aca4","","956","
                <div class=""stimulus-container"">
                    <img src=""images/semantic_sequence/market_semantic/market_semantic_5.png"" class=""exp-image"">
                    <div class=""question-area"">
                        <p style=""font-size: 20px; font-weight: bold; margin: 0;"">Is there a person in this image?</p>
                    </div>
                </div>","1","main_experiment_trial","5","market_semantic","semantic_sequence","","","","",""
"","","","","","html-keyboard-response","111","341629","0.0-111.0","44A58D1B598A4F3BA35D0097B64CC2EF","019cf80f-9dc6-7ef5-89c7-2b6f99efd402","019cf80d-4266-7117-8a51-54e13c84aca4","","null","
                <div class=""stimulus-container"">
                    <img src=""images/semantic_sequence/market_semantic/market_semantic_6.png"" class=""exp-image"">
                    <div class=""question-area""></div> 
                </div>","null","","","","","","","","",""
"","","","","","html-button-response","112","342404","0.0-112.0","44A58D1B598A4F3BA35D0097B64CC2EF","019cf80f-9dc6-7ef5-89c7-2b6f99efd402","019cf80d-4266-7117-8a51-54e13c84aca4","","775","
                <div class=""stimulus-container"">
                    <img src=""images/semantic_sequence/market_semantic/market_semantic_6.png"" class=""exp-image"">
                    <div class=""question-area"">
                        <p style=""font-size: 20px; font-weight: bold; margin: 0;"">Is there a person in this image?</p>
                    </div>
                </div>","1","main_experiment_trial","6","market_semantic","semantic_sequence","","","","",""
"","","","","","html-keyboard-response","113","347415","0.0-113.0","44A58D1B598A4F3BA35D0097B64CC2EF","019cf80f-9dc6-7ef5-89c7-2b6f99efd402","019cf80d-4266-7117-8a51-54e13c84aca4","","null","
                <div class=""stimulus-container"">
                    <img src=""images/semantic_sequence/market_semantic/market_semantic_7.png"" class=""exp-image"">
                    <div class=""question-area""></div> 
                </div>","null","","","","","","","","",""
"","","","","","html-button-response","114","348194","0.0-114.0","44A58D1B598A4F3BA35D0097B64CC2EF","019cf80f-9dc6-7ef5-89c7-2b6f99efd402","019cf80d-4266-7117-8a51-54e13c84aca4","","778","
                <div class=""stimulus-container"">
                    <img src=""images/semantic_sequence/market_semantic/market_semantic_7.png"" class=""exp-image"">
                    <div class=""question-area"">
                        <p style=""font-size: 20px; font-weight: bold; margin: 0;"">Is there a person in this image?</p>
                    </div>
                </div>","0","main_experiment_trial","7","market_semantic","semantic_sequence","","","","",""
"","","","","","html-keyboard-response","115","353207","0.0-115.0","44A58D1B598A4F3BA35D0097B64CC2EF","019cf80f-9dc6-7ef5-89c7-2b6f99efd402","019cf80d-4266-7117-8a51-54e13c84aca4","","null","
                <div class=""stimulus-container"">
                    <img src=""images/semantic_sequence/market_semantic/market_semantic_8.png"" class=""exp-image"">
                    <div class=""question-area""></div> 
                </div>","null","","","","","","","","",""
"","","","","","html-button-response","116","354361","0.0-116.0","44A58D1B598A4F3BA35D0097B64CC2EF","019cf80f-9dc6-7ef5-89c7-2b6f99efd402","019cf80d-4266-7117-8a51-54e13c84aca4","","1153","
                <div class=""stimulus-container"">
                    <img src=""images/semantic_sequence/market_semantic/market_semantic_8.png"" class=""exp-image"">
                    <div class=""question-area"">
                        <p style=""font-size: 20px; font-weight: bold; margin: 0;"">Is there a person in this image?</p>
                    </div>
                </div>","1","main_experiment_trial","8","market_semantic","semantic_sequence","","","","",""
"","","","","","html-keyboard-response","117","359365","0.0-117.0","44A58D1B598A4F3BA35D0097B64CC2EF","019cf80f-9dc6-7ef5-89c7-2b6f99efd402","019cf80d-4266-7117-8a51-54e13c84aca4","","null","
                <div class=""stimulus-container"">
                    <img src=""images/semantic_sequence/market_semantic/market_semantic_9.png"" class=""exp-image"">
                    <div class=""question-area""></div> 
                </div>","null","","","","","","","","",""
"","","","","","html-button-response","118","359954","0.0-118.0","44A58D1B598A4F3BA35D0097B64CC2EF","019cf80f-9dc6-7ef5-89c7-2b6f99efd402","019cf80d-4266-7117-8a51-54e13c84aca4","","589","
                <div class=""stimulus-container"">
                    <img src=""images/semantic_sequence/market_semantic/market_semantic_9.png"" class=""exp-image"">
                    <div class=""question-area"">
                        <p style=""font-size: 20px; font-weight: bold; margin: 0;"">Is there a person in this image?</p>
                    </div>
                </div>","0","main_experiment_trial","9","market_semantic","semantic_sequence","","","","",""
"","","","","","html-keyboard-response","119","364956","0.0-119.0","44A58D1B598A4F3BA35D0097B64CC2EF","019cf80f-9dc6-7ef5-89c7-2b6f99efd402","019cf80d-4266-7117-8a51-54e13c84aca4","","null","
                <div class=""stimulus-container"">
                    <img src=""images/semantic_sequence/market_semantic/market_semantic_ten.png"" class=""exp-image"">
                    <div class=""question-area""></div> 
                </div>","null","","","","","","","","",""
"","","","","","html-button-response","120","365949","0.0-120.0","44A58D1B598A4F3BA35D0097B64CC2EF","019cf80f-9dc6-7ef5-89c7-2b6f99efd402","019cf80d-4266-7117-8a51-54e13c84aca4","","992","
                <div class=""stimulus-container"">
                    <img src=""images/semantic_sequence/market_semantic/market_semantic_ten.png"" class=""exp-image"">
                    <div class=""question-area"">
                        <p style=""font-size: 20px; font-weight: bold; margin: 0;"">Is there a person in this image?</p>
                    </div>
                </div>","1","main_experiment_trial","ten","market_semantic","semantic_sequence","","","","",""
"","","","","","html-keyboard-response","121","366956","0.0-121.0","44A58D1B598A4F3BA35D0097B64CC2EF","019cf80f-9dc6-7ef5-89c7-2b6f99efd402","019cf80d-4266-7117-8a51-54e13c84aca4","","null","<div style=""background-color: white; width: 100vw; height: 100vh;""></div>","null","","","","","","","","",""
"","","","","","html-keyboard-response","122","371964","0.0-122.0","44A58D1B598A4F3BA35D0097B64CC2EF","019cf80f-9dc6-7ef5-89c7-2b6f99efd402","019cf80d-4266-7117-8a51-54e13c84aca4","","null","
                <div class=""stimulus-container"">
                    <img src=""images/semantic_sequence/redecorating_a_house_semantic/redecorating_a_house_semantic_1.png"" class=""exp-image"">
                    <div class=""question-area""></div> 
                </div>","null","","","","","","","","",""
"","","","","","html-button-response","123","373322","0.0-123.0","44A58D1B598A4F3BA35D0097B64CC2EF","019cf80f-9dc6-7ef5-89c7-2b6f99efd402","019cf80d-4266-7117-8a51-54e13c84aca4","","1357","
                <div class=""stimulus-container"">
                    <img src=""images/semantic_sequence/redecorating_a_house_semantic/redecorating_a_house_semantic_1.png"" class=""exp-image"">
                    <div class=""question-area"">
                        <p style=""font-size: 20px; font-weight: bold; margin: 0;"">Is there a person in this image?</p>
                    </div>
                </div>","0","main_experiment_trial","1","redecorating_a_house_semantic","semantic_sequence","","","","",""
"","","","","","html-keyboard-response","124","378326","0.0-124.0","44A58D1B598A4F3BA35D0097B64CC2EF","019cf80f-9dc6-7ef5-89c7-2b6f99efd402","019cf80d-4266-7117-8a51-54e13c84aca4","","null","
                <div class=""stimulus-container"">
                    <img src=""images/semantic_sequence/redecorating_a_house_semantic/redecorating_a_house_semantic_2.png"" class=""exp-image"">
                    <div class=""question-area""></div> 
                </div>","null","","","","","","","","",""
"","","","","","html-button-response","125","379270","0.0-125.0","44A58D1B598A4F3BA35D0097B64CC2EF","019cf80f-9dc6-7ef5-89c7-2b6f99efd402","019cf80d-4266-7117-8a51-54e13c84aca4","","943","
                <div class=""stimulus-container"">
                    <img src=""images/semantic_sequence/redecorating_a_house_semantic/redecorating_a_house_semantic_2.png"" class=""exp-image"">
                    <div class=""question-area"">
                        <p style=""font-size: 20px; font-weight: bold; margin: 0;"">Is there a person in this image?</p>
                    </div>
                </div>","0","main_experiment_trial","2","redecorating_a_house_semantic","semantic_sequence","","","","",""
"","","","","","html-keyboard-response","126","384275","0.0-126.0","44A58D1B598A4F3BA35D0097B64CC2EF","019cf80f-9dc6-7ef5-89c7-2b6f99efd402","019cf80d-4266-7117-8a51-54e13c84aca4","","null","
                <div class=""stimulus-container"">
                    <img src=""images/semantic_sequence/redecorating_a_house_semantic/redecorating_a_house_semantic_3.png"" class=""exp-image"">
                    <div class=""question-area""></div> 
                </div>","null","","","","","","","","",""
"","","","","","html-button-response","127","385392","0.0-127.0","44A58D1B598A4F3BA35D0097B64CC2EF","019cf80f-9dc6-7ef5-89c7-2b6f99efd402","019cf80d-4266-7117-8a51-54e13c84aca4","","1116","
                <div class=""stimulus-container"">
                    <img src=""images/semantic_sequence/redecorating_a_house_semantic/redecorating_a_house_semantic_3.png"" class=""exp-image"">
                    <div class=""question-area"">
                        <p style=""font-size: 20px; font-weight: bold; margin: 0;"">Is there a person in this image?</p>
                    </div>
                </div>","0","main_experiment_trial","3","redecorating_a_house_semantic","semantic_sequence","","","","",""
"","","","","","html-keyboard-response","128","390402","0.0-128.0","44A58D1B598A4F3BA35D0097B64CC2EF","019cf80f-9dc6-7ef5-89c7-2b6f99efd402","019cf80d-4266-7117-8a51-54e13c84aca4","","null","
                <div class=""stimulus-container"">
                    <img src=""images/semantic_sequence/redecorating_a_house_semantic/redecorating_a_house_semantic_4.png"" class=""exp-image"">
                    <div class=""question-area""></div> 
                </div>","null","","","","","","","","",""
"","","","","","html-button-response","129","391031","0.0-129.0","44A58D1B598A4F3BA35D0097B64CC2EF","019cf80f-9dc6-7ef5-89c7-2b6f99efd402","019cf80d-4266-7117-8a51-54e13c84aca4","","629","
                <div class=""stimulus-container"">
                    <img src=""images/semantic_sequence/redecorating_a_house_semantic/redecorating_a_house_semantic_4.png"" class=""exp-image"">
                    <div class=""question-area"">
                        <p style=""font-size: 20px; font-weight: bold; margin: 0;"">Is there a person in this image?</p>
                    </div>
                </div>","0","main_experiment_trial","4","redecorating_a_house_semantic","semantic_sequence","","","","",""
"","","","","","html-keyboard-response","130","396039","0.0-130.0","44A58D1B598A4F3BA35D0097B64CC2EF","019cf80f-9dc6-7ef5-89c7-2b6f99efd402","019cf80d-4266-7117-8a51-54e13c84aca4","","null","
                <div class=""stimulus-container"">
                    <img src=""images/semantic_sequence/redecorating_a_house_semantic/redecorating_a_house_semantic_5.png"" class=""exp-image"">
                    <div class=""question-area""></div> 
                </div>","null","","","","","","","","",""
"","","","","","html-button-response","131","396715","0.0-131.0","44A58D1B598A4F3BA35D0097B64CC2EF","019cf80f-9dc6-7ef5-89c7-2b6f99efd402","019cf80d-4266-7117-8a51-54e13c84aca4","","675","
                <div class=""stimulus-container"">
                    <img src=""images/semantic_sequence/redecorating_a_house_semantic/redecorating_a_house_semantic_5.png"" class=""exp-image"">
                    <div class=""question-area"">
                        <p style=""font-size: 20px; font-weight: bold; margin: 0;"">Is there a person in this image?</p>
                    </div>
                </div>","0","main_experiment_trial","5","redecorating_a_house_semantic","semantic_sequence","","","","",""
"","","","","","html-keyboard-response","132","401725","0.0-132.0","44A58D1B598A4F3BA35D0097B64CC2EF","019cf80f-9dc6-7ef5-89c7-2b6f99efd402","019cf80d-4266-7117-8a51-54e13c84aca4","","null","
                <div class=""stimulus-container"">
                    <img src=""images/semantic_sequence/redecorating_a_house_semantic/redecorating_a_house_semantic_6.png"" class=""exp-image"">
                    <div class=""question-area""></div> 
                </div>","null","","","","","","","","",""
"","","","","","html-button-response","133","402226","0.0-133.0","44A58D1B598A4F3BA35D0097B64CC2EF","019cf80f-9dc6-7ef5-89c7-2b6f99efd402","019cf80d-4266-7117-8a51-54e13c84aca4","","501","
                <div class=""stimulus-container"">
                    <img src=""images/semantic_sequence/redecorating_a_house_semantic/redecorating_a_house_semantic_6.png"" class=""exp-image"">
                    <div class=""question-area"">
                        <p style=""font-size: 20px; font-weight: bold; margin: 0;"">Is there a person in this image?</p>
                    </div>
                </div>","0","main_experiment_trial","6","redecorating_a_house_semantic","semantic_sequence","","","","",""
"","","","","","html-keyboard-response","134","407242","0.0-134.0","44A58D1B598A4F3BA35D0097B64CC2EF","019cf80f-9dc6-7ef5-89c7-2b6f99efd402","019cf80d-4266-7117-8a51-54e13c84aca4","","null","
                <div class=""stimulus-container"">
                    <img src=""images/semantic_sequence/redecorating_a_house_semantic/redecorating_a_house_semantic_7.png"" class=""exp-image"">
                    <div class=""question-area""></div> 
                </div>","null","","","","","","","","",""
"","","","","","html-button-response","135","407882","0.0-135.0","44A58D1B598A4F3BA35D0097B64CC2EF","019cf80f-9dc6-7ef5-89c7-2b6f99efd402","019cf80d-4266-7117-8a51-54e13c84aca4","","639","
                <div class=""stimulus-container"">
                    <img src=""images/semantic_sequence/redecorating_a_house_semantic/redecorating_a_house_semantic_7.png"" class=""exp-image"">
                    <div class=""question-area"">
                        <p style=""font-size: 20px; font-weight: bold; margin: 0;"">Is there a person in this image?</p>
                    </div>
                </div>","0","main_experiment_trial","7","redecorating_a_house_semantic","semantic_sequence","","","","",""
"","","","","","html-keyboard-response","136","412886","0.0-136.0","44A58D1B598A4F3BA35D0097B64CC2EF","019cf80f-9dc6-7ef5-89c7-2b6f99efd402","019cf80d-4266-7117-8a51-54e13c84aca4","","null","
                <div class=""stimulus-container"">
                    <img src=""images/semantic_sequence/redecorating_a_house_semantic/redecorating_a_house_semantic_8.png"" class=""exp-image"">
                    <div class=""question-area""></div> 
                </div>","null","","","","","","","","",""
"","","","","","html-button-response","137","413668","0.0-137.0","44A58D1B598A4F3BA35D0097B64CC2EF","019cf80f-9dc6-7ef5-89c7-2b6f99efd402","019cf80d-4266-7117-8a51-54e13c84aca4","","781","
                <div class=""stimulus-container"">
                    <img src=""images/semantic_sequence/redecorating_a_house_semantic/redecorating_a_house_semantic_8.png"" class=""exp-image"">
                    <div class=""question-area"">
                        <p style=""font-size: 20px; font-weight: bold; margin: 0;"">Is there a person in this image?</p>
                    </div>
                </div>","0","main_experiment_trial","8","redecorating_a_house_semantic","semantic_sequence","","","","",""
"","","","","","html-keyboard-response","138","418678","0.0-138.0","44A58D1B598A4F3BA35D0097B64CC2EF","019cf80f-9dc6-7ef5-89c7-2b6f99efd402","019cf80d-4266-7117-8a51-54e13c84aca4","","null","
                <div class=""stimulus-container"">
                    <img src=""images/semantic_sequence/redecorating_a_house_semantic/redecorating_a_house_semantic_9.png"" class=""exp-image"">
                    <div class=""question-area""></div> 
                </div>","null","","","","","","","","",""
"","","","","","html-button-response","139","419665","0.0-139.0","44A58D1B598A4F3BA35D0097B64CC2EF","019cf80f-9dc6-7ef5-89c7-2b6f99efd402","019cf80d-4266-7117-8a51-54e13c84aca4","","986","
                <div class=""stimulus-container"">
                    <img src=""images/semantic_sequence/redecorating_a_house_semantic/redecorating_a_house_semantic_9.png"" class=""exp-image"">
                    <div class=""question-area"">
                        <p style=""font-size: 20px; font-weight: bold; margin: 0;"">Is there a person in this image?</p>
                    </div>
                </div>","0","main_experiment_trial","9","redecorating_a_house_semantic","semantic_sequence","","","","",""
"","","","","","html-keyboard-response","140","424670","0.0-140.0","44A58D1B598A4F3BA35D0097B64CC2EF","019cf80f-9dc6-7ef5-89c7-2b6f99efd402","019cf80d-4266-7117-8a51-54e13c84aca4","","null","
                <div class=""stimulus-container"">
                    <img src=""images/semantic_sequence/redecorating_a_house_semantic/redecorating_a_house_semantic_ten.png"" class=""exp-image"">
                    <div class=""question-area""></div> 
                </div>","null","","","","","","","","",""
"","","","","","html-button-response","141","425173","0.0-141.0","44A58D1B598A4F3BA35D0097B64CC2EF","019cf80f-9dc6-7ef5-89c7-2b6f99efd402","019cf80d-4266-7117-8a51-54e13c84aca4","","502","
                <div class=""stimulus-container"">
                    <img src=""images/semantic_sequence/redecorating_a_house_semantic/redecorating_a_house_semantic_ten.png"" class=""exp-image"">
                    <div class=""question-area"">
                        <p style=""font-size: 20px; font-weight: bold; margin: 0;"">Is there a person in this image?</p>
                    </div>
                </div>","0","main_experiment_trial","ten","redecorating_a_house_semantic","semantic_sequence","","","","",""
"","","","","","html-keyboard-response","142","426180","0.0-142.0","44A58D1B598A4F3BA35D0097B64CC2EF","019cf80f-9dc6-7ef5-89c7-2b6f99efd402","019cf80d-4266-7117-8a51-54e13c84aca4","","null","<div style=""background-color: white; width: 100vw; height: 100vh;""></div>","null","","","","","","","","",""
"","","","","","html-keyboard-response","143","431184","0.0-143.0","44A58D1B598A4F3BA35D0097B64CC2EF","019cf80f-9dc6-7ef5-89c7-2b6f99efd402","019cf80d-4266-7117-8a51-54e13c84aca4","","null","
                <div class=""stimulus-container"">
                    <img src=""images/schematic_sequence/supermarket_scheme/supermarket_scheme_1.png"" class=""exp-image"">
                    <div class=""question-area""></div> 
                </div>","null","","","","","","","","",""
"","","","","","html-button-response","144","432528","0.0-144.0","44A58D1B598A4F3BA35D0097B64CC2EF","019cf80f-9dc6-7ef5-89c7-2b6f99efd402","019cf80d-4266-7117-8a51-54e13c84aca4","","1343","
                <div class=""stimulus-container"">
                    <img src=""images/schematic_sequence/supermarket_scheme/supermarket_scheme_1.png"" class=""exp-image"">
                    <div class=""question-area"">
                        <p style=""font-size: 20px; font-weight: bold; margin: 0;"">Is there a person in this image?</p>
                    </div>
                </div>","1","main_experiment_trial","1","supermarket_scheme","schematic_sequence","","","","",""
"","","","","","html-keyboard-response","145","437530","0.0-145.0","44A58D1B598A4F3BA35D0097B64CC2EF","019cf80f-9dc6-7ef5-89c7-2b6f99efd402","019cf80d-4266-7117-8a51-54e13c84aca4","","null","
                <div class=""stimulus-container"">
                    <img src=""images/schematic_sequence/supermarket_scheme/supermarket_scheme_2.png"" class=""exp-image"">
                    <div class=""question-area""></div> 
                </div>","null","","","","","","","","",""
"","","","","","html-button-response","146","438684","0.0-146.0","44A58D1B598A4F3BA35D0097B64CC2EF","019cf80f-9dc6-7ef5-89c7-2b6f99efd402","019cf80d-4266-7117-8a51-54e13c84aca4","","1153","
                <div class=""stimulus-container"">
                    <img src=""images/schematic_sequence/supermarket_scheme/supermarket_scheme_2.png"" class=""exp-image"">
                    <div class=""question-area"">
                        <p style=""font-size: 20px; font-weight: bold; margin: 0;"">Is there a person in this image?</p>
                    </div>
                </div>","1","main_experiment_trial","2","supermarket_scheme","schematic_sequence","","","","",""
"","","","","","html-keyboard-response","147","443690","0.0-147.0","44A58D1B598A4F3BA35D0097B64CC2EF","019cf80f-9dc6-7ef5-89c7-2b6f99efd402","019cf80d-4266-7117-8a51-54e13c84aca4","","null","
                <div class=""stimulus-container"">
                    <img src=""images/schematic_sequence/supermarket_scheme/supermarket_scheme_3.png"" class=""exp-image"">
                    <div class=""question-area""></div> 
                </div>","null","","","","","","","","",""
"","","","","","html-button-response","148","444446","0.0-148.0","44A58D1B598A4F3BA35D0097B64CC2EF","019cf80f-9dc6-7ef5-89c7-2b6f99efd402","019cf80d-4266-7117-8a51-54e13c84aca4","","756","
                <div class=""stimulus-container"">
                    <img src=""images/schematic_sequence/supermarket_scheme/supermarket_scheme_3.png"" class=""exp-image"">
                    <div class=""question-area"">
                        <p style=""font-size: 20px; font-weight: bold; margin: 0;"">Is there a person in this image?</p>
                    </div>
                </div>","1","main_experiment_trial","3","supermarket_scheme","schematic_sequence","","","","",""
"","","","","","html-keyboard-response","149","449448","0.0-149.0","44A58D1B598A4F3BA35D0097B64CC2EF","019cf80f-9dc6-7ef5-89c7-2b6f99efd402","019cf80d-4266-7117-8a51-54e13c84aca4","","null","
                <div class=""stimulus-container"">
                    <img src=""images/schematic_sequence/supermarket_scheme/supermarket_scheme_4.png"" class=""exp-image"">
                    <div class=""question-area""></div> 
                </div>","null","","","","","","","","",""
"","","","","","html-button-response","150","450332","0.0-150.0","44A58D1B598A4F3BA35D0097B64CC2EF","019cf80f-9dc6-7ef5-89c7-2b6f99efd402","019cf80d-4266-7117-8a51-54e13c84aca4","","883","
                <div class=""stimulus-container"">
                    <img src=""images/schematic_sequence/supermarket_scheme/supermarket_scheme_4.png"" class=""exp-image"">
                    <div class=""question-area"">
                        <p style=""font-size: 20px; font-weight: bold; margin: 0;"">Is there a person in this image?</p>
                    </div>
                </div>","0","main_experiment_trial","4","supermarket_scheme","schematic_sequence","","","","",""
"","","","","","html-keyboard-response","151","455345","0.0-151.0","44A58D1B598A4F3BA35D0097B64CC2EF","019cf80f-9dc6-7ef5-89c7-2b6f99efd402","019cf80d-4266-7117-8a51-54e13c84aca4","","null","
                <div class=""stimulus-container"">
                    <img src=""images/schematic_sequence/supermarket_scheme/supermarket_scheme_5.png"" class=""exp-image"">
                    <div class=""question-area""></div> 
                </div>","null","","","","","","","","",""
"","","","","","html-button-response","152","456044","0.0-152.0","44A58D1B598A4F3BA35D0097B64CC2EF","019cf80f-9dc6-7ef5-89c7-2b6f99efd402","019cf80d-4266-7117-8a51-54e13c84aca4","","698","
                <div class=""stimulus-container"">
                    <img src=""images/schematic_sequence/supermarket_scheme/supermarket_scheme_5.png"" class=""exp-image"">
                    <div class=""question-area"">
                        <p style=""font-size: 20px; font-weight: bold; margin: 0;"">Is there a person in this image?</p>
                    </div>
                </div>","1","main_experiment_trial","5","supermarket_scheme","schematic_sequence","","","","",""
"","","","","","html-keyboard-response","153","461057","0.0-153.0","44A58D1B598A4F3BA35D0097B64CC2EF","019cf80f-9dc6-7ef5-89c7-2b6f99efd402","019cf80d-4266-7117-8a51-54e13c84aca4","","null","
                <div class=""stimulus-container"">
                    <img src=""images/schematic_sequence/supermarket_scheme/supermarket_scheme_6.png"" class=""exp-image"">
                    <div class=""question-area""></div> 
                </div>","null","","","","","","","","",""
"","","","","","html-button-response","154","461822","0.0-154.0","44A58D1B598A4F3BA35D0097B64CC2EF","019cf80f-9dc6-7ef5-89c7-2b6f99efd402","019cf80d-4266-7117-8a51-54e13c84aca4","","765","
                <div class=""stimulus-container"">
                    <img src=""images/schematic_sequence/supermarket_scheme/supermarket_scheme_6.png"" class=""exp-image"">
                    <div class=""question-area"">
                        <p style=""font-size: 20px; font-weight: bold; margin: 0;"">Is there a person in this image?</p>
                    </div>
                </div>","0","main_experiment_trial","6","supermarket_scheme","schematic_sequence","","","","",""
"","","","","","html-keyboard-response","155","466833","0.0-155.0","44A58D1B598A4F3BA35D0097B64CC2EF","019cf80f-9dc6-7ef5-89c7-2b6f99efd402","019cf80d-4266-7117-8a51-54e13c84aca4","","null","
                <div class=""stimulus-container"">
                    <img src=""images/schematic_sequence/supermarket_scheme/supermarket_scheme_7.png"" class=""exp-image"">
                    <div class=""question-area""></div> 
                </div>","null","","","","","","","","",""
"","","","","","html-button-response","156","467302","0.0-156.0","44A58D1B598A4F3BA35D0097B64CC2EF","019cf80f-9dc6-7ef5-89c7-2b6f99efd402","019cf80d-4266-7117-8a51-54e13c84aca4","","468","
                <div class=""stimulus-container"">
                    <img src=""images/schematic_sequence/supermarket_scheme/supermarket_scheme_7.png"" class=""exp-image"">
                    <div class=""question-area"">
                        <p style=""font-size: 20px; font-weight: bold; margin: 0;"">Is there a person in this image?</p>
                    </div>
                </div>","0","main_experiment_trial","7","supermarket_scheme","schematic_sequence","","","","",""
"","","","","","html-keyboard-response","157","472309","0.0-157.0","44A58D1B598A4F3BA35D0097B64CC2EF","019cf80f-9dc6-7ef5-89c7-2b6f99efd402","019cf80d-4266-7117-8a51-54e13c84aca4","","null","
                <div class=""stimulus-container"">
                    <img src=""images/schematic_sequence/supermarket_scheme/supermarket_scheme_8.png"" class=""exp-image"">
                    <div class=""question-area""></div> 
                </div>","null","","","","","","","","",""
"","","","","","html-button-response","158","472842","0.0-158.0","44A58D1B598A4F3BA35D0097B64CC2EF","019cf80f-9dc6-7ef5-89c7-2b6f99efd402","019cf80d-4266-7117-8a51-54e13c84aca4","","532","
                <div class=""stimulus-container"">
                    <img src=""images/schematic_sequence/supermarket_scheme/supermarket_scheme_8.png"" class=""exp-image"">
                    <div class=""question-area"">
                        <p style=""font-size: 20px; font-weight: bold; margin: 0;"">Is there a person in this image?</p>
                    </div>
                </div>","0","main_experiment_trial","8","supermarket_scheme","schematic_sequence","","","","",""
"","","","","","html-keyboard-response","159","477850","0.0-159.0","44A58D1B598A4F3BA35D0097B64CC2EF","019cf80f-9dc6-7ef5-89c7-2b6f99efd402","019cf80d-4266-7117-8a51-54e13c84aca4","","null","
                <div class=""stimulus-container"">
                    <img src=""images/schematic_sequence/supermarket_scheme/supermarket_scheme_9.png"" class=""exp-image"">
                    <div class=""question-area""></div> 
                </div>","null","","","","","","","","",""
"","","","","","html-button-response","160","478601","0.0-160.0","44A58D1B598A4F3BA35D0097B64CC2EF","019cf80f-9dc6-7ef5-89c7-2b6f99efd402","019cf80d-4266-7117-8a51-54e13c84aca4","","750","
                <div class=""stimulus-container"">
                    <img src=""images/schematic_sequence/supermarket_scheme/supermarket_scheme_9.png"" class=""exp-image"">
                    <div class=""question-area"">
                        <p style=""font-size: 20px; font-weight: bold; margin: 0;"">Is there a person in this image?</p>
                    </div>
                </div>","0","main_experiment_trial","9","supermarket_scheme","schematic_sequence","","","","",""
"","","","","","html-keyboard-response","161","483611","0.0-161.0","44A58D1B598A4F3BA35D0097B64CC2EF","019cf80f-9dc6-7ef5-89c7-2b6f99efd402","019cf80d-4266-7117-8a51-54e13c84aca4","","null","
                <div class=""stimulus-container"">
                    <img src=""images/schematic_sequence/supermarket_scheme/supermarket_scheme_ten.png"" class=""exp-image"">
                    <div class=""question-area""></div> 
                </div>","null","","","","","","","","",""
"","","","","","html-button-response","162","484256","0.0-162.0","44A58D1B598A4F3BA35D0097B64CC2EF","019cf80f-9dc6-7ef5-89c7-2b6f99efd402","019cf80d-4266-7117-8a51-54e13c84aca4","","645","
                <div class=""stimulus-container"">
                    <img src=""images/schematic_sequence/supermarket_scheme/supermarket_scheme_ten.png"" class=""exp-image"">
                    <div class=""question-area"">
                        <p style=""font-size: 20px; font-weight: bold; margin: 0;"">Is there a person in this image?</p>
                    </div>
                </div>","1","main_experiment_trial","ten","supermarket_scheme","schematic_sequence","","","","",""
"","","","","","html-keyboard-response","163","485261","0.0-163.0","44A58D1B598A4F3BA35D0097B64CC2EF","019cf80f-9dc6-7ef5-89c7-2b6f99efd402","019cf80d-4266-7117-8a51-54e13c84aca4","","null","<div style=""background-color: white; width: 100vw; height: 100vh;""></div>","null","","","","","","","","",""
"","","","","","html-keyboard-response","164","490262","0.0-164.0","44A58D1B598A4F3BA35D0097B64CC2EF","019cf80f-9dc6-7ef5-89c7-2b6f99efd402","019cf80d-4266-7117-8a51-54e13c84aca4","","null","
                <div class=""stimulus-container"">
                    <img src=""images/schematic_sequence/flight_scheme/flight_scheme_1.png"" class=""exp-image"">
                    <div class=""question-area""></div> 
                </div>","null","","","","","","","","",""
"","","","","","html-button-response","165","493275","0.0-165.0","44A58D1B598A4F3BA35D0097B64CC2EF","019cf80f-9dc6-7ef5-89c7-2b6f99efd402","019cf80d-4266-7117-8a51-54e13c84aca4","","null","
                <div class=""stimulus-container"">
                    <img src=""images/schematic_sequence/flight_scheme/flight_scheme_1.png"" class=""exp-image"">
                    <div class=""question-area"">
                        <p style=""font-size: 20px; font-weight: bold; margin: 0;"">Is there a person in this image?</p>
                    </div>
                </div>","null","main_experiment_trial","1","flight_scheme","schematic_sequence","","","","",""
"","","","","","html-keyboard-response","166","498281","0.0-166.0","44A58D1B598A4F3BA35D0097B64CC2EF","019cf80f-9dc6-7ef5-89c7-2b6f99efd402","019cf80d-4266-7117-8a51-54e13c84aca4","","null","
                <div class=""stimulus-container"">
                    <img src=""images/schematic_sequence/flight_scheme/flight_scheme_2.png"" class=""exp-image"">
                    <div class=""question-area""></div> 
                </div>","null","","","","","","","","",""
"","","","","","html-button-response","167","499041","0.0-167.0","44A58D1B598A4F3BA35D0097B64CC2EF","019cf80f-9dc6-7ef5-89c7-2b6f99efd402","019cf80d-4266-7117-8a51-54e13c84aca4","","759","
                <div class=""stimulus-container"">
                    <img src=""images/schematic_sequence/flight_scheme/flight_scheme_2.png"" class=""exp-image"">
                    <div class=""question-area"">
                        <p style=""font-size: 20px; font-weight: bold; margin: 0;"">Is there a person in this image?</p>
                    </div>
                </div>","1","main_experiment_trial","2","flight_scheme","schematic_sequence","","","","",""
"","","","","","html-keyboard-response","168","504055","0.0-168.0","44A58D1B598A4F3BA35D0097B64CC2EF","019cf80f-9dc6-7ef5-89c7-2b6f99efd402","019cf80d-4266-7117-8a51-54e13c84aca4","","null","
                <div class=""stimulus-container"">
                    <img src=""images/schematic_sequence/flight_scheme/flight_scheme_3.png"" class=""exp-image"">
                    <div class=""question-area""></div> 
                </div>","null","","","","","","","","",""
"","","","","","html-button-response","169","504709","0.0-169.0","44A58D1B598A4F3BA35D0097B64CC2EF","019cf80f-9dc6-7ef5-89c7-2b6f99efd402","019cf80d-4266-7117-8a51-54e13c84aca4","","654","
                <div class=""stimulus-container"">
                    <img src=""images/schematic_sequence/flight_scheme/flight_scheme_3.png"" class=""exp-image"">
                    <div class=""question-area"">
                        <p style=""font-size: 20px; font-weight: bold; margin: 0;"">Is there a person in this image?</p>
                    </div>
                </div>","0","main_experiment_trial","3","flight_scheme","schematic_sequence","","","","",""
"","","","","","html-keyboard-response","170","509719","0.0-170.0","44A58D1B598A4F3BA35D0097B64CC2EF","019cf80f-9dc6-7ef5-89c7-2b6f99efd402","019cf80d-4266-7117-8a51-54e13c84aca4","","null","
                <div class=""stimulus-container"">
                    <img src=""images/schematic_sequence/flight_scheme/flight_scheme_4.png"" class=""exp-image"">
                    <div class=""question-area""></div> 
                </div>","null","","","","","","","","",""
"","","","","","html-button-response","171","510344","0.0-171.0","44A58D1B598A4F3BA35D0097B64CC2EF","019cf80f-9dc6-7ef5-89c7-2b6f99efd402","019cf80d-4266-7117-8a51-54e13c84aca4","","624","
                <div class=""stimulus-container"">
                    <img src=""images/schematic_sequence/flight_scheme/flight_scheme_4.png"" class=""exp-image"">
                    <div class=""question-area"">
                        <p style=""font-size: 20px; font-weight: bold; margin: 0;"">Is there a person in this image?</p>
                    </div>
                </div>","0","main_experiment_trial","4","flight_scheme","schematic_sequence","","","","",""
"","","","","","html-keyboard-response","172","515348","0.0-172.0","44A58D1B598A4F3BA35D0097B64CC2EF","019cf80f-9dc6-7ef5-89c7-2b6f99efd402","019cf80d-4266-7117-8a51-54e13c84aca4","","null","
                <div class=""stimulus-container"">
                    <img src=""images/schematic_sequence/flight_scheme/flight_scheme_5.png"" class=""exp-image"">
                    <div class=""question-area""></div> 
                </div>","null","","","","","","","","",""
"","","","","","html-button-response","173","515984","0.0-173.0","44A58D1B598A4F3BA35D0097B64CC2EF","019cf80f-9dc6-7ef5-89c7-2b6f99efd402","019cf80d-4266-7117-8a51-54e13c84aca4","","635","
                <div class=""stimulus-container"">
                    <img src=""images/schematic_sequence/flight_scheme/flight_scheme_5.png"" class=""exp-image"">
                    <div class=""question-area"">
                        <p style=""font-size: 20px; font-weight: bold; margin: 0;"">Is there a person in this image?</p>
                    </div>
                </div>","0","main_experiment_trial","5","flight_scheme","schematic_sequence","","","","",""
"","","","","","html-keyboard-response","174","520985","0.0-174.0","44A58D1B598A4F3BA35D0097B64CC2EF","019cf80f-9dc6-7ef5-89c7-2b6f99efd402","019cf80d-4266-7117-8a51-54e13c84aca4","","null","
                <div class=""stimulus-container"">
                    <img src=""images/schematic_sequence/flight_scheme/flight_scheme_6.png"" class=""exp-image"">
                    <div class=""question-area""></div> 
                </div>","null","","","","","","","","",""
"","","","","","html-button-response","175","521572","0.0-175.0","44A58D1B598A4F3BA35D0097B64CC2EF","019cf80f-9dc6-7ef5-89c7-2b6f99efd402","019cf80d-4266-7117-8a51-54e13c84aca4","","587","
                <div class=""stimulus-container"">
                    <img src=""images/schematic_sequence/flight_scheme/flight_scheme_6.png"" class=""exp-image"">
                    <div class=""question-area"">
                        <p style=""font-size: 20px; font-weight: bold; margin: 0;"">Is there a person in this image?</p>
                    </div>
                </div>","1","main_experiment_trial","6","flight_scheme","schematic_sequence","","","","",""
"","","","","","html-keyboard-response","176","526576","0.0-176.0","44A58D1B598A4F3BA35D0097B64CC2EF","019cf80f-9dc6-7ef5-89c7-2b6f99efd402","019cf80d-4266-7117-8a51-54e13c84aca4","","null","
                <div class=""stimulus-container"">
                    <img src=""images/schematic_sequence/flight_scheme/flight_scheme_7.png"" class=""exp-image"">
                    <div class=""question-area""></div> 
                </div>","null","","","","","","","","",""
"","","","","","html-button-response","177","527053","0.0-177.0","44A58D1B598A4F3BA35D0097B64CC2EF","019cf80f-9dc6-7ef5-89c7-2b6f99efd402","019cf80d-4266-7117-8a51-54e13c84aca4","","476","
                <div class=""stimulus-container"">
                    <img src=""images/schematic_sequence/flight_scheme/flight_scheme_7.png"" class=""exp-image"">
                    <div class=""question-area"">
                        <p style=""font-size: 20px; font-weight: bold; margin: 0;"">Is there a person in this image?</p>
                    </div>
                </div>","1","main_experiment_trial","7","flight_scheme","schematic_sequence","","","","",""
"","","","","","html-keyboard-response","178","532059","0.0-178.0","44A58D1B598A4F3BA35D0097B64CC2EF","019cf80f-9dc6-7ef5-89c7-2b6f99efd402","019cf80d-4266-7117-8a51-54e13c84aca4","","null","
                <div class=""stimulus-container"">
                    <img src=""images/schematic_sequence/flight_scheme/flight_scheme_8.png"" class=""exp-image"">
                    <div class=""question-area""></div> 
                </div>","null","","","","","","","","",""
"","","","","","html-button-response","179","532732","0.0-179.0","44A58D1B598A4F3BA35D0097B64CC2EF","019cf80f-9dc6-7ef5-89c7-2b6f99efd402","019cf80d-4266-7117-8a51-54e13c84aca4","","672","
                <div class=""stimulus-container"">
                    <img src=""images/schematic_sequence/flight_scheme/flight_scheme_8.png"" class=""exp-image"">
                    <div class=""question-area"">
                        <p style=""font-size: 20px; font-weight: bold; margin: 0;"">Is there a person in this image?</p>
                    </div>
                </div>","1","main_experiment_trial","8","flight_scheme","schematic_sequence","","","","",""
"","","","","","html-keyboard-response","180","537739","0.0-180.0","44A58D1B598A4F3BA35D0097B64CC2EF","019cf80f-9dc6-7ef5-89c7-2b6f99efd402","019cf80d-4266-7117-8a51-54e13c84aca4","","null","
                <div class=""stimulus-container"">
                    <img src=""images/schematic_sequence/flight_scheme/flight_scheme_9.png"" class=""exp-image"">
                    <div class=""question-area""></div> 
                </div>","null","","","","","","","","",""
