"success","timeout","failed_images","failed_audio","failed_video","trial_type","trial_index","time_elapsed","internal_node_id","subject_id","study_id","session_id","view_history","rt","stimulus","response","task","image_index","folder","sequence_type","valuable_image_index","reward_type","chosen_image_index","target_X","correct_choice"
"true","false","[]","[]","[]","preload","0","7095","0.0-0.0","340CDEF02F914686BADA14F1F83EDC5F","019cf0a4-3908-72a8-b927-cc5285bdf562","019cf037-5203-781a-b900-108ccb1cab86","","","","","","","","","","","","",""
"","","","","","instructions","1","40747","0.0-1.0","340CDEF02F914686BADA14F1F83EDC5F","019cf0a4-3908-72a8-b927-cc5285bdf562","019cf037-5203-781a-b900-108ccb1cab86","[{""page_index"":0,""viewing_time"":33650}]","33650","","","","","","","","","","",""
"","","","","","instructions","2","64157","0.0-2.0","340CDEF02F914686BADA14F1F83EDC5F","019cf0a4-3908-72a8-b927-cc5285bdf562","019cf037-5203-781a-b900-108ccb1cab86","[{""page_index"":0,""viewing_time"":23409}]","23409","","","","","","","","","","",""
"true","","","","","fullscreen","3","68061","0.0-3.0","340CDEF02F914686BADA14F1F83EDC5F","019cf0a4-3908-72a8-b927-cc5285bdf562","019cf037-5203-781a-b900-108ccb1cab86","","2900","","","","","","","","","","",""
"","","","","","instructions","4","85117","0.0-4.0","340CDEF02F914686BADA14F1F83EDC5F","019cf0a4-3908-72a8-b927-cc5285bdf562","019cf037-5203-781a-b900-108ccb1cab86","[{""page_index"":0,""viewing_time"":17055}]","17055","","","","","","","","","","",""
"","","","","","instructions","5","101988","0.0-5.0","340CDEF02F914686BADA14F1F83EDC5F","019cf0a4-3908-72a8-b927-cc5285bdf562","019cf037-5203-781a-b900-108ccb1cab86","[{""page_index"":0,""viewing_time"":16870}]","16870","","","","","","","","","","",""
"","","","","","html-keyboard-response","6","105991","0.0-6.0","340CDEF02F914686BADA14F1F83EDC5F","019cf0a4-3908-72a8-b927-cc5285bdf562","019cf037-5203-781a-b900-108ccb1cab86","","null","
                <div class=""stimulus-container"">
                    <img src=""images/instructions/movie_1.png"" class=""exp-image"">
                    <div class=""question-area""></div> 
                </div>","null","","","","","","","","",""
"","","","","","html-button-response","7","108996","0.0-7.0","340CDEF02F914686BADA14F1F83EDC5F","019cf0a4-3908-72a8-b927-cc5285bdf562","019cf037-5203-781a-b900-108ccb1cab86","","null","
                <div class=""stimulus-container"">
                    <img src=""images/instructions/movie_1.png"" class=""exp-image"">
                    <div class=""question-area"">
                        <p style=""font-size: 20px; font-weight: bold; margin: 0;"">Was there a person in this image?</p>
                    </div>
                </div>","null","example_question","1","","","","","","",""
"","","","","","html-keyboard-response","8","112999","0.0-8.0","340CDEF02F914686BADA14F1F83EDC5F","019cf0a4-3908-72a8-b927-cc5285bdf562","019cf037-5203-781a-b900-108ccb1cab86","","null","
                <div class=""stimulus-container"">
                    <img src=""images/instructions/movie_2.png"" class=""exp-image"">
                    <div class=""question-area""></div> 
                </div>","null","","","","","","","","",""
"","","","","","html-button-response","9","115013","0.0-9.0","340CDEF02F914686BADA14F1F83EDC5F","019cf0a4-3908-72a8-b927-cc5285bdf562","019cf037-5203-781a-b900-108ccb1cab86","","2011","
                <div class=""stimulus-container"">
                    <img src=""images/instructions/movie_2.png"" class=""exp-image"">
                    <div class=""question-area"">
                        <p style=""font-size: 20px; font-weight: bold; margin: 0;"">Was there a person in this image?</p>
                    </div>
                </div>","1","example_question","2","","","","","","",""
"","","","","","html-keyboard-response","10","119016","0.0-10.0","340CDEF02F914686BADA14F1F83EDC5F","019cf0a4-3908-72a8-b927-cc5285bdf562","019cf037-5203-781a-b900-108ccb1cab86","","null","
                <div class=""stimulus-container"">
                    <img src=""images/instructions/movie_3.png"" class=""exp-image"">
                    <div class=""question-area""></div> 
                </div>","null","","","","","","","","",""
"","","","","","html-button-response","11","120023","0.0-11.0","340CDEF02F914686BADA14F1F83EDC5F","019cf0a4-3908-72a8-b927-cc5285bdf562","019cf037-5203-781a-b900-108ccb1cab86","","1005","
                <div class=""stimulus-container"">
                    <img src=""images/instructions/movie_3.png"" class=""exp-image"">
                    <div class=""question-area"">
                        <p style=""font-size: 20px; font-weight: bold; margin: 0;"">Was there a person in this image?</p>
                    </div>
                </div>","0","example_question","3","","","","","","",""
"","","","","","html-keyboard-response","12","124026","0.0-12.0","340CDEF02F914686BADA14F1F83EDC5F","019cf0a4-3908-72a8-b927-cc5285bdf562","019cf037-5203-781a-b900-108ccb1cab86","","null","
                <div class=""stimulus-container"">
                    <img src=""images/instructions/movie_4.png"" class=""exp-image"">
                    <div class=""question-area""></div> 
                </div>","null","","","","","","","","",""
"","","","","","html-button-response","13","124572","0.0-13.0","340CDEF02F914686BADA14F1F83EDC5F","019cf0a4-3908-72a8-b927-cc5285bdf562","019cf037-5203-781a-b900-108ccb1cab86","","544","
                <div class=""stimulus-container"">
                    <img src=""images/instructions/movie_4.png"" class=""exp-image"">
                    <div class=""question-area"">
                        <p style=""font-size: 20px; font-weight: bold; margin: 0;"">Was there a person in this image?</p>
                    </div>
                </div>","0","example_question","4","","","","","","",""
"","","","","","instructions","14","127972","0.0-14.0","340CDEF02F914686BADA14F1F83EDC5F","019cf0a4-3908-72a8-b927-cc5285bdf562","019cf037-5203-781a-b900-108ccb1cab86","[{""page_index"":0,""viewing_time"":3399}]","3400","","","","","","","","","","",""
"","","","","","instructions","15","145797","0.0-15.0","340CDEF02F914686BADA14F1F83EDC5F","019cf0a4-3908-72a8-b927-cc5285bdf562","019cf037-5203-781a-b900-108ccb1cab86","[{""page_index"":0,""viewing_time"":17824}]","17825","","","","","","","","","","",""
"","","","","","html-keyboard-response","16","146799","0.0-16.0","340CDEF02F914686BADA14F1F83EDC5F","019cf0a4-3908-72a8-b927-cc5285bdf562","019cf037-5203-781a-b900-108ccb1cab86","","null","<div style=""background-color: white; width: 100vw; height: 100vh;""></div>","null","","","","","","","","",""
"","","","","","html-keyboard-response","17","151802","0.0-17.0","340CDEF02F914686BADA14F1F83EDC5F","019cf0a4-3908-72a8-b927-cc5285bdf562","019cf037-5203-781a-b900-108ccb1cab86","","null","
                <div class=""stimulus-container"">
                    <img src=""images/schematic_sequence/hotel_scheme/hotel_scheme_1.png"" class=""exp-image"">
                    <div class=""question-area""></div> 
                </div>","null","","","","","","","","",""
"","","","","","html-button-response","18","152846","0.0-18.0","340CDEF02F914686BADA14F1F83EDC5F","019cf0a4-3908-72a8-b927-cc5285bdf562","019cf037-5203-781a-b900-108ccb1cab86","","1043","
                <div class=""stimulus-container"">
                    <img src=""images/schematic_sequence/hotel_scheme/hotel_scheme_1.png"" class=""exp-image"">
                    <div class=""question-area"">
                        <p style=""font-size: 20px; font-weight: bold; margin: 0;"">Is there a person in this image?</p>
                    </div>
                </div>","1","main_experiment_trial","1","hotel_scheme","schematic_sequence","","","","",""
"","","","","","html-keyboard-response","19","157849","0.0-19.0","340CDEF02F914686BADA14F1F83EDC5F","019cf0a4-3908-72a8-b927-cc5285bdf562","019cf037-5203-781a-b900-108ccb1cab86","","null","
                <div class=""stimulus-container"">
                    <img src=""images/schematic_sequence/hotel_scheme/hotel_scheme_2.png"" class=""exp-image"">
                    <div class=""question-area""></div> 
                </div>","null","","","","","","","","",""
"","","","","","html-button-response","20","158918","0.0-20.0","340CDEF02F914686BADA14F1F83EDC5F","019cf0a4-3908-72a8-b927-cc5285bdf562","019cf037-5203-781a-b900-108ccb1cab86","","1067","
                <div class=""stimulus-container"">
                    <img src=""images/schematic_sequence/hotel_scheme/hotel_scheme_2.png"" class=""exp-image"">
                    <div class=""question-area"">
                        <p style=""font-size: 20px; font-weight: bold; margin: 0;"">Is there a person in this image?</p>
                    </div>
                </div>","0","main_experiment_trial","2","hotel_scheme","schematic_sequence","","","","",""
"","","","","","html-keyboard-response","21","163921","0.0-21.0","340CDEF02F914686BADA14F1F83EDC5F","019cf0a4-3908-72a8-b927-cc5285bdf562","019cf037-5203-781a-b900-108ccb1cab86","","null","
                <div class=""stimulus-container"">
                    <img src=""images/schematic_sequence/hotel_scheme/hotel_scheme_3.png"" class=""exp-image"">
                    <div class=""question-area""></div> 
                </div>","null","","","","","","","","",""
"","","","","","html-button-response","22","164728","0.0-22.0","340CDEF02F914686BADA14F1F83EDC5F","019cf0a4-3908-72a8-b927-cc5285bdf562","019cf037-5203-781a-b900-108ccb1cab86","","805","
                <div class=""stimulus-container"">
                    <img src=""images/schematic_sequence/hotel_scheme/hotel_scheme_3.png"" class=""exp-image"">
                    <div class=""question-area"">
                        <p style=""font-size: 20px; font-weight: bold; margin: 0;"">Is there a person in this image?</p>
                    </div>
                </div>","0","main_experiment_trial","3","hotel_scheme","schematic_sequence","","","","",""
"","","","","","html-keyboard-response","23","169731","0.0-23.0","340CDEF02F914686BADA14F1F83EDC5F","019cf0a4-3908-72a8-b927-cc5285bdf562","019cf037-5203-781a-b900-108ccb1cab86","","null","
                <div class=""stimulus-container"">
                    <img src=""images/schematic_sequence/hotel_scheme/hotel_scheme_4.png"" class=""exp-image"">
                    <div class=""question-area""></div> 
                </div>","null","","","","","","","","",""
"","","","","","html-button-response","24","171288","0.0-24.0","340CDEF02F914686BADA14F1F83EDC5F","019cf0a4-3908-72a8-b927-cc5285bdf562","019cf037-5203-781a-b900-108ccb1cab86","","1555","
                <div class=""stimulus-container"">
                    <img src=""images/schematic_sequence/hotel_scheme/hotel_scheme_4.png"" class=""exp-image"">
                    <div class=""question-area"">
                        <p style=""font-size: 20px; font-weight: bold; margin: 0;"">Is there a person in this image?</p>
                    </div>
                </div>","1","main_experiment_trial","4","hotel_scheme","schematic_sequence","","","","",""
"","","","","","html-keyboard-response","25","176291","0.0-25.0","340CDEF02F914686BADA14F1F83EDC5F","019cf0a4-3908-72a8-b927-cc5285bdf562","019cf037-5203-781a-b900-108ccb1cab86","","null","
                <div class=""stimulus-container"">
                    <img src=""images/schematic_sequence/hotel_scheme/hotel_scheme_5.png"" class=""exp-image"">
                    <div class=""question-area""></div> 
                </div>","null","","","","","","","","",""
"","","","","","html-button-response","26","177053","0.0-26.0","340CDEF02F914686BADA14F1F83EDC5F","019cf0a4-3908-72a8-b927-cc5285bdf562","019cf037-5203-781a-b900-108ccb1cab86","","761","
                <div class=""stimulus-container"">
                    <img src=""images/schematic_sequence/hotel_scheme/hotel_scheme_5.png"" class=""exp-image"">
                    <div class=""question-area"">
                        <p style=""font-size: 20px; font-weight: bold; margin: 0;"">Is there a person in this image?</p>
                    </div>
                </div>","0","main_experiment_trial","5","hotel_scheme","schematic_sequence","","","","",""
"","","","","","html-keyboard-response","27","182056","0.0-27.0","340CDEF02F914686BADA14F1F83EDC5F","019cf0a4-3908-72a8-b927-cc5285bdf562","019cf037-5203-781a-b900-108ccb1cab86","","null","
                <div class=""stimulus-container"">
                    <img src=""images/schematic_sequence/hotel_scheme/hotel_scheme_6.png"" class=""exp-image"">
                    <div class=""question-area""></div> 
                </div>","null","","","","","","","","",""
"","","","","","html-button-response","28","182864","0.0-28.0","340CDEF02F914686BADA14F1F83EDC5F","019cf0a4-3908-72a8-b927-cc5285bdf562","019cf037-5203-781a-b900-108ccb1cab86","","806","
                <div class=""stimulus-container"">
                    <img src=""images/schematic_sequence/hotel_scheme/hotel_scheme_6.png"" class=""exp-image"">
                    <div class=""question-area"">
                        <p style=""font-size: 20px; font-weight: bold; margin: 0;"">Is there a person in this image?</p>
                    </div>
                </div>","0","main_experiment_trial","6","hotel_scheme","schematic_sequence","","","","",""
"","","","","","html-keyboard-response","29","187867","0.0-29.0","340CDEF02F914686BADA14F1F83EDC5F","019cf0a4-3908-72a8-b927-cc5285bdf562","019cf037-5203-781a-b900-108ccb1cab86","","null","
                <div class=""stimulus-container"">
                    <img src=""images/schematic_sequence/hotel_scheme/hotel_scheme_7.png"" class=""exp-image"">
                    <div class=""question-area""></div> 
                </div>","null","","","","","","","","",""
"","","","","","html-button-response","30","188609","0.0-30.0","340CDEF02F914686BADA14F1F83EDC5F","019cf0a4-3908-72a8-b927-cc5285bdf562","019cf037-5203-781a-b900-108ccb1cab86","","740","
                <div class=""stimulus-container"">
                    <img src=""images/schematic_sequence/hotel_scheme/hotel_scheme_7.png"" class=""exp-image"">
                    <div class=""question-area"">
                        <p style=""font-size: 20px; font-weight: bold; margin: 0;"">Is there a person in this image?</p>
                    </div>
                </div>","0","main_experiment_trial","7","hotel_scheme","schematic_sequence","","","","",""
"","","","","","html-keyboard-response","31","193612","0.0-31.0","340CDEF02F914686BADA14F1F83EDC5F","019cf0a4-3908-72a8-b927-cc5285bdf562","019cf037-5203-781a-b900-108ccb1cab86","","null","
                <div class=""stimulus-container"">
                    <img src=""images/schematic_sequence/hotel_scheme/hotel_scheme_8.png"" class=""exp-image"">
                    <div class=""question-area""></div> 
                </div>","null","","","","","","","","",""
"","","","","","html-button-response","32","195203","0.0-32.0","340CDEF02F914686BADA14F1F83EDC5F","019cf0a4-3908-72a8-b927-cc5285bdf562","019cf037-5203-781a-b900-108ccb1cab86","","1590","
                <div class=""stimulus-container"">
                    <img src=""images/schematic_sequence/hotel_scheme/hotel_scheme_8.png"" class=""exp-image"">
                    <div class=""question-area"">
                        <p style=""font-size: 20px; font-weight: bold; margin: 0;"">Is there a person in this image?</p>
                    </div>
                </div>","0","main_experiment_trial","8","hotel_scheme","schematic_sequence","","","","",""
"","","","","","html-keyboard-response","33","200206","0.0-33.0","340CDEF02F914686BADA14F1F83EDC5F","019cf0a4-3908-72a8-b927-cc5285bdf562","019cf037-5203-781a-b900-108ccb1cab86","","null","
                <div class=""stimulus-container"">
                    <img src=""images/schematic_sequence/hotel_scheme/hotel_scheme_9.png"" class=""exp-image"">
                    <div class=""question-area""></div> 
                </div>","null","","","","","","","","",""
"","","","","","html-button-response","34","202406","0.0-34.0","340CDEF02F914686BADA14F1F83EDC5F","019cf0a4-3908-72a8-b927-cc5285bdf562","019cf037-5203-781a-b900-108ccb1cab86","","2199","
                <div class=""stimulus-container"">
                    <img src=""images/schematic_sequence/hotel_scheme/hotel_scheme_9.png"" class=""exp-image"">
                    <div class=""question-area"">
                        <p style=""font-size: 20px; font-weight: bold; margin: 0;"">Is there a person in this image?</p>
                    </div>
                </div>","0","main_experiment_trial","9","hotel_scheme","schematic_sequence","","","","",""
"","","","","","html-keyboard-response","35","207409","0.0-35.0","340CDEF02F914686BADA14F1F83EDC5F","019cf0a4-3908-72a8-b927-cc5285bdf562","019cf037-5203-781a-b900-108ccb1cab86","","null","
                <div class=""stimulus-container"">
                    <img src=""images/schematic_sequence/hotel_scheme/hotel_scheme_ten.png"" class=""exp-image"">
                    <div class=""question-area""></div> 
                </div>","null","","","","","","","","",""
"","","","","","html-button-response","36","208175","0.0-36.0","340CDEF02F914686BADA14F1F83EDC5F","019cf0a4-3908-72a8-b927-cc5285bdf562","019cf037-5203-781a-b900-108ccb1cab86","","764","
                <div class=""stimulus-container"">
                    <img src=""images/schematic_sequence/hotel_scheme/hotel_scheme_ten.png"" class=""exp-image"">
                    <div class=""question-area"">
                        <p style=""font-size: 20px; font-weight: bold; margin: 0;"">Is there a person in this image?</p>
                    </div>
                </div>","0","main_experiment_trial","ten","hotel_scheme","schematic_sequence","","","","",""
"","","","","","html-keyboard-response","37","209177","0.0-37.0","340CDEF02F914686BADA14F1F83EDC5F","019cf0a4-3908-72a8-b927-cc5285bdf562","019cf037-5203-781a-b900-108ccb1cab86","","null","<div style=""background-color: white; width: 100vw; height: 100vh;""></div>","null","","","","","","","","",""
"","","","","","html-keyboard-response","38","214180","0.0-38.0","340CDEF02F914686BADA14F1F83EDC5F","019cf0a4-3908-72a8-b927-cc5285bdf562","019cf037-5203-781a-b900-108ccb1cab86","","null","
                <div class=""stimulus-container"">
                    <img src=""images/causal_sequence/dog_causal/dog_causal_1.png"" class=""exp-image"">
                    <div class=""question-area""></div> 
                </div>","null","","","","","","","","",""
"","","","","","html-button-response","39","215224","0.0-39.0","340CDEF02F914686BADA14F1F83EDC5F","019cf0a4-3908-72a8-b927-cc5285bdf562","019cf037-5203-781a-b900-108ccb1cab86","","1042","
                <div class=""stimulus-container"">
                    <img src=""images/causal_sequence/dog_causal/dog_causal_1.png"" class=""exp-image"">
                    <div class=""question-area"">
                        <p style=""font-size: 20px; font-weight: bold; margin: 0;"">Is there a person in this image?</p>
                    </div>
                </div>","0","main_experiment_trial","1","dog_causal","causal_sequence","","","","",""
"","","","","","html-keyboard-response","40","220226","0.0-40.0","340CDEF02F914686BADA14F1F83EDC5F","019cf0a4-3908-72a8-b927-cc5285bdf562","019cf037-5203-781a-b900-108ccb1cab86","","null","
                <div class=""stimulus-container"">
                    <img src=""images/causal_sequence/dog_causal/dog_causal_2.png"" class=""exp-image"">
                    <div class=""question-area""></div> 
                </div>","null","","","","","","","","",""
"","","","","","html-button-response","41","221032","0.0-41.0","340CDEF02F914686BADA14F1F83EDC5F","019cf0a4-3908-72a8-b927-cc5285bdf562","019cf037-5203-781a-b900-108ccb1cab86","","804","
                <div class=""stimulus-container"">
                    <img src=""images/causal_sequence/dog_causal/dog_causal_2.png"" class=""exp-image"">
                    <div class=""question-area"">
                        <p style=""font-size: 20px; font-weight: bold; margin: 0;"">Is there a person in this image?</p>
                    </div>
                </div>","0","main_experiment_trial","2","dog_causal","causal_sequence","","","","",""
"","","","","","html-keyboard-response","42","226035","0.0-42.0","340CDEF02F914686BADA14F1F83EDC5F","019cf0a4-3908-72a8-b927-cc5285bdf562","019cf037-5203-781a-b900-108ccb1cab86","","null","
                <div class=""stimulus-container"">
                    <img src=""images/causal_sequence/dog_causal/dog_causal_3.png"" class=""exp-image"">
                    <div class=""question-area""></div> 
                </div>","null","","","","","","","","",""
"","","","","","html-button-response","43","228190","0.0-43.0","340CDEF02F914686BADA14F1F83EDC5F","019cf0a4-3908-72a8-b927-cc5285bdf562","019cf037-5203-781a-b900-108ccb1cab86","","2153","
                <div class=""stimulus-container"">
                    <img src=""images/causal_sequence/dog_causal/dog_causal_3.png"" class=""exp-image"">
                    <div class=""question-area"">
                        <p style=""font-size: 20px; font-weight: bold; margin: 0;"">Is there a person in this image?</p>
                    </div>
                </div>","0","main_experiment_trial","3","dog_causal","causal_sequence","","","","",""
"","","","","","html-keyboard-response","44","233193","0.0-44.0","340CDEF02F914686BADA14F1F83EDC5F","019cf0a4-3908-72a8-b927-cc5285bdf562","019cf037-5203-781a-b900-108ccb1cab86","","null","
                <div class=""stimulus-container"">
                    <img src=""images/causal_sequence/dog_causal/dog_causal_4.png"" class=""exp-image"">
                    <div class=""question-area""></div> 
                </div>","null","","","","","","","","",""
"","","","","","html-button-response","45","235323","0.0-45.0","340CDEF02F914686BADA14F1F83EDC5F","019cf0a4-3908-72a8-b927-cc5285bdf562","019cf037-5203-781a-b900-108ccb1cab86","","2128","
                <div class=""stimulus-container"">
                    <img src=""images/causal_sequence/dog_causal/dog_causal_4.png"" class=""exp-image"">
                    <div class=""question-area"">
                        <p style=""font-size: 20px; font-weight: bold; margin: 0;"">Is there a person in this image?</p>
                    </div>
                </div>","0","main_experiment_trial","4","dog_causal","causal_sequence","","","","",""
"","","","","","html-keyboard-response","46","240325","0.0-46.0","340CDEF02F914686BADA14F1F83EDC5F","019cf0a4-3908-72a8-b927-cc5285bdf562","019cf037-5203-781a-b900-108ccb1cab86","","null","
                <div class=""stimulus-container"">
                    <img src=""images/causal_sequence/dog_causal/dog_causal_5.png"" class=""exp-image"">
                    <div class=""question-area""></div> 
                </div>","null","","","","","","","","",""
"","","","","","html-button-response","47","241766","0.0-47.0","340CDEF02F914686BADA14F1F83EDC5F","019cf0a4-3908-72a8-b927-cc5285bdf562","019cf037-5203-781a-b900-108ccb1cab86","","1439","
                <div class=""stimulus-container"">
                    <img src=""images/causal_sequence/dog_causal/dog_causal_5.png"" class=""exp-image"">
                    <div class=""question-area"">
                        <p style=""font-size: 20px; font-weight: bold; margin: 0;"">Is there a person in this image?</p>
                    </div>
                </div>","0","main_experiment_trial","5","dog_causal","causal_sequence","","","","",""
"","","","","","html-keyboard-response","48","246768","0.0-48.0","340CDEF02F914686BADA14F1F83EDC5F","019cf0a4-3908-72a8-b927-cc5285bdf562","019cf037-5203-781a-b900-108ccb1cab86","","null","
                <div class=""stimulus-container"">
                    <img src=""images/causal_sequence/dog_causal/dog_causal_6.png"" class=""exp-image"">
                    <div class=""question-area""></div> 
                </div>","null","","","","","","","","",""
"","","","","","html-button-response","49","247374","0.0-49.0","340CDEF02F914686BADA14F1F83EDC5F","019cf0a4-3908-72a8-b927-cc5285bdf562","019cf037-5203-781a-b900-108ccb1cab86","","604","
                <div class=""stimulus-container"">
                    <img src=""images/causal_sequence/dog_causal/dog_causal_6.png"" class=""exp-image"">
                    <div class=""question-area"">
                        <p style=""font-size: 20px; font-weight: bold; margin: 0;"">Is there a person in this image?</p>
                    </div>
                </div>","0","main_experiment_trial","6","dog_causal","causal_sequence","","","","",""
"","","","","","html-keyboard-response","50","252377","0.0-50.0","340CDEF02F914686BADA14F1F83EDC5F","019cf0a4-3908-72a8-b927-cc5285bdf562","019cf037-5203-781a-b900-108ccb1cab86","","null","
                <div class=""stimulus-container"">
                    <img src=""images/causal_sequence/dog_causal/dog_causal_7.png"" class=""exp-image"">
                    <div class=""question-area""></div> 
                </div>","null","","","","","","","","",""
"","","","","","html-button-response","51","253857","0.0-51.0","340CDEF02F914686BADA14F1F83EDC5F","019cf0a4-3908-72a8-b927-cc5285bdf562","019cf037-5203-781a-b900-108ccb1cab86","","1478","
                <div class=""stimulus-container"">
                    <img src=""images/causal_sequence/dog_causal/dog_causal_7.png"" class=""exp-image"">
                    <div class=""question-area"">
                        <p style=""font-size: 20px; font-weight: bold; margin: 0;"">Is there a person in this image?</p>
                    </div>
                </div>","0","main_experiment_trial","7","dog_causal","causal_sequence","","","","",""
"","","","","","html-keyboard-response","52","258859","0.0-52.0","340CDEF02F914686BADA14F1F83EDC5F","019cf0a4-3908-72a8-b927-cc5285bdf562","019cf037-5203-781a-b900-108ccb1cab86","","null","
                <div class=""stimulus-container"">
                    <img src=""images/causal_sequence/dog_causal/dog_causal_8.png"" class=""exp-image"">
                    <div class=""question-area""></div> 
                </div>","null","","","","","","","","",""
"","","","","","html-button-response","53","259838","0.0-53.0","340CDEF02F914686BADA14F1F83EDC5F","019cf0a4-3908-72a8-b927-cc5285bdf562","019cf037-5203-781a-b900-108ccb1cab86","","977","
                <div class=""stimulus-container"">
                    <img src=""images/causal_sequence/dog_causal/dog_causal_8.png"" class=""exp-image"">
                    <div class=""question-area"">
                        <p style=""font-size: 20px; font-weight: bold; margin: 0;"">Is there a person in this image?</p>
                    </div>
                </div>","0","main_experiment_trial","8","dog_causal","causal_sequence","","","","",""
"","","","","","html-keyboard-response","54","264840","0.0-54.0","340CDEF02F914686BADA14F1F83EDC5F","019cf0a4-3908-72a8-b927-cc5285bdf562","019cf037-5203-781a-b900-108ccb1cab86","","null","
                <div class=""stimulus-container"">
                    <img src=""images/causal_sequence/dog_causal/dog_causal_9.png"" class=""exp-image"">
                    <div class=""question-area""></div> 
                </div>","null","","","","","","","","",""
"","","","","","html-button-response","55","265423","0.0-55.0","340CDEF02F914686BADA14F1F83EDC5F","019cf0a4-3908-72a8-b927-cc5285bdf562","019cf037-5203-781a-b900-108ccb1cab86","","581","
                <div class=""stimulus-container"">
                    <img src=""images/causal_sequence/dog_causal/dog_causal_9.png"" class=""exp-image"">
                    <div class=""question-area"">
                        <p style=""font-size: 20px; font-weight: bold; margin: 0;"">Is there a person in this image?</p>
                    </div>
                </div>","0","main_experiment_trial","9","dog_causal","causal_sequence","","","","",""
"","","","","","html-keyboard-response","56","270426","0.0-56.0","340CDEF02F914686BADA14F1F83EDC5F","019cf0a4-3908-72a8-b927-cc5285bdf562","019cf037-5203-781a-b900-108ccb1cab86","","null","
                <div class=""stimulus-container"">
                    <img src=""images/causal_sequence/dog_causal/dog_causal_ten.png"" class=""exp-image"">
                    <div class=""question-area""></div> 
                </div>","null","","","","","","","","",""
"","","","","","html-button-response","57","271219","0.0-57.0","340CDEF02F914686BADA14F1F83EDC5F","019cf0a4-3908-72a8-b927-cc5285bdf562","019cf037-5203-781a-b900-108ccb1cab86","","792","
                <div class=""stimulus-container"">
                    <img src=""images/causal_sequence/dog_causal/dog_causal_ten.png"" class=""exp-image"">
                    <div class=""question-area"">
                        <p style=""font-size: 20px; font-weight: bold; margin: 0;"">Is there a person in this image?</p>
                    </div>
                </div>","0","main_experiment_trial","ten","dog_causal","causal_sequence","","","","",""
"","","","","","html-keyboard-response","58","272221","0.0-58.0","340CDEF02F914686BADA14F1F83EDC5F","019cf0a4-3908-72a8-b927-cc5285bdf562","019cf037-5203-781a-b900-108ccb1cab86","","null","<div style=""background-color: white; width: 100vw; height: 100vh;""></div>","null","","","","","","","","",""
"","","","","","html-keyboard-response","59","277224","0.0-59.0","340CDEF02F914686BADA14F1F83EDC5F","019cf0a4-3908-72a8-b927-cc5285bdf562","019cf037-5203-781a-b900-108ccb1cab86","","null","
                <div class=""stimulus-container"">
                    <img src=""images/causal_sequence/coin_causal/coin_causal_1.png"" class=""exp-image"">
                    <div class=""question-area""></div> 
                </div>","null","","","","","","","","",""
"","","","","","html-button-response","60","278740","0.0-60.0","340CDEF02F914686BADA14F1F83EDC5F","019cf0a4-3908-72a8-b927-cc5285bdf562","019cf037-5203-781a-b900-108ccb1cab86","","1514","
                <div class=""stimulus-container"">
                    <img src=""images/causal_sequence/coin_causal/coin_causal_1.png"" class=""exp-image"">
                    <div class=""question-area"">
                        <p style=""font-size: 20px; font-weight: bold; margin: 0;"">Is there a person in this image?</p>
                    </div>
                </div>","0","main_experiment_trial","1","coin_causal","causal_sequence","","","","",""
"","","","","","html-keyboard-response","61","283742","0.0-61.0","340CDEF02F914686BADA14F1F83EDC5F","019cf0a4-3908-72a8-b927-cc5285bdf562","019cf037-5203-781a-b900-108ccb1cab86","","null","
                <div class=""stimulus-container"">
                    <img src=""images/causal_sequence/coin_causal/coin_causal_2.png"" class=""exp-image"">
                    <div class=""question-area""></div> 
                </div>","null","","","","","","","","",""
"","","","","","html-button-response","62","285628","0.0-62.0","340CDEF02F914686BADA14F1F83EDC5F","019cf0a4-3908-72a8-b927-cc5285bdf562","019cf037-5203-781a-b900-108ccb1cab86","","1884","
                <div class=""stimulus-container"">
                    <img src=""images/causal_sequence/coin_causal/coin_causal_2.png"" class=""exp-image"">
                    <div class=""question-area"">
                        <p style=""font-size: 20px; font-weight: bold; margin: 0;"">Is there a person in this image?</p>
                    </div>
                </div>","0","main_experiment_trial","2","coin_causal","causal_sequence","","","","",""
"","","","","","html-keyboard-response","63","290631","0.0-63.0","340CDEF02F914686BADA14F1F83EDC5F","019cf0a4-3908-72a8-b927-cc5285bdf562","019cf037-5203-781a-b900-108ccb1cab86","","null","
                <div class=""stimulus-container"">
                    <img src=""images/causal_sequence/coin_causal/coin_causal_3.png"" class=""exp-image"">
                    <div class=""question-area""></div> 
                </div>","null","","","","","","","","",""
"","","","","","html-button-response","64","291678","0.0-64.0","340CDEF02F914686BADA14F1F83EDC5F","019cf0a4-3908-72a8-b927-cc5285bdf562","019cf037-5203-781a-b900-108ccb1cab86","","1045","
                <div class=""stimulus-container"">
                    <img src=""images/causal_sequence/coin_causal/coin_causal_3.png"" class=""exp-image"">
                    <div class=""question-area"">
                        <p style=""font-size: 20px; font-weight: bold; margin: 0;"">Is there a person in this image?</p>
                    </div>
                </div>","0","main_experiment_trial","3","coin_causal","causal_sequence","","","","",""
"","","","","","html-keyboard-response","65","296681","0.0-65.0","340CDEF02F914686BADA14F1F83EDC5F","019cf0a4-3908-72a8-b927-cc5285bdf562","019cf037-5203-781a-b900-108ccb1cab86","","null","
                <div class=""stimulus-container"">
                    <img src=""images/causal_sequence/coin_causal/coin_causal_4.png"" class=""exp-image"">
                    <div class=""question-area""></div> 
                </div>","null","","","","","","","","",""
"","","","","","html-button-response","66","297597","0.0-66.0","340CDEF02F914686BADA14F1F83EDC5F","019cf0a4-3908-72a8-b927-cc5285bdf562","019cf037-5203-781a-b900-108ccb1cab86","","914","
                <div class=""stimulus-container"">
                    <img src=""images/causal_sequence/coin_causal/coin_causal_4.png"" class=""exp-image"">
                    <div class=""question-area"">
                        <p style=""font-size: 20px; font-weight: bold; margin: 0;"">Is there a person in this image?</p>
                    </div>
                </div>","0","main_experiment_trial","4","coin_causal","causal_sequence","","","","",""
"","","","","","html-keyboard-response","67","302600","0.0-67.0","340CDEF02F914686BADA14F1F83EDC5F","019cf0a4-3908-72a8-b927-cc5285bdf562","019cf037-5203-781a-b900-108ccb1cab86","","null","
                <div class=""stimulus-container"">
                    <img src=""images/causal_sequence/coin_causal/coin_causal_5.png"" class=""exp-image"">
                    <div class=""question-area""></div> 
                </div>","null","","","","","","","","",""
"","","","","","html-button-response","68","303213","0.0-68.0","340CDEF02F914686BADA14F1F83EDC5F","019cf0a4-3908-72a8-b927-cc5285bdf562","019cf037-5203-781a-b900-108ccb1cab86","","611","
                <div class=""stimulus-container"">
                    <img src=""images/causal_sequence/coin_causal/coin_causal_5.png"" class=""exp-image"">
                    <div class=""question-area"">
                        <p style=""font-size: 20px; font-weight: bold; margin: 0;"">Is there a person in this image?</p>
                    </div>
                </div>","0","main_experiment_trial","5","coin_causal","causal_sequence","","","","",""
"","","","","","html-keyboard-response","69","308216","0.0-69.0","340CDEF02F914686BADA14F1F83EDC5F","019cf0a4-3908-72a8-b927-cc5285bdf562","019cf037-5203-781a-b900-108ccb1cab86","","null","
                <div class=""stimulus-container"">
                    <img src=""images/causal_sequence/coin_causal/coin_causal_6.png"" class=""exp-image"">
                    <div class=""question-area""></div> 
                </div>","null","","","","","","","","",""
"","","","","","html-button-response","70","308862","0.0-70.0","340CDEF02F914686BADA14F1F83EDC5F","019cf0a4-3908-72a8-b927-cc5285bdf562","019cf037-5203-781a-b900-108ccb1cab86","","644","
                <div class=""stimulus-container"">
                    <img src=""images/causal_sequence/coin_causal/coin_causal_6.png"" class=""exp-image"">
                    <div class=""question-area"">
                        <p style=""font-size: 20px; font-weight: bold; margin: 0;"">Is there a person in this image?</p>
                    </div>
                </div>","0","main_experiment_trial","6","coin_causal","causal_sequence","","","","",""
"","","","","","html-keyboard-response","71","313864","0.0-71.0","340CDEF02F914686BADA14F1F83EDC5F","019cf0a4-3908-72a8-b927-cc5285bdf562","019cf037-5203-781a-b900-108ccb1cab86","","null","
                <div class=""stimulus-container"">
                    <img src=""images/causal_sequence/coin_causal/coin_causal_7.png"" class=""exp-image"">
                    <div class=""question-area""></div> 
                </div>","null","","","","","","","","",""
"","","","","","html-button-response","72","315999","0.0-72.0","340CDEF02F914686BADA14F1F83EDC5F","019cf0a4-3908-72a8-b927-cc5285bdf562","019cf037-5203-781a-b900-108ccb1cab86","","2133","
                <div class=""stimulus-container"">
                    <img src=""images/causal_sequence/coin_causal/coin_causal_7.png"" class=""exp-image"">
                    <div class=""question-area"">
                        <p style=""font-size: 20px; font-weight: bold; margin: 0;"">Is there a person in this image?</p>
                    </div>
                </div>","1","main_experiment_trial","7","coin_causal","causal_sequence","","","","",""
"","","","","","html-keyboard-response","73","321002","0.0-73.0","340CDEF02F914686BADA14F1F83EDC5F","019cf0a4-3908-72a8-b927-cc5285bdf562","019cf037-5203-781a-b900-108ccb1cab86","","null","
                <div class=""stimulus-container"">
                    <img src=""images/causal_sequence/coin_causal/coin_causal_8.png"" class=""exp-image"">
                    <div class=""question-area""></div> 
                </div>","null","","","","","","","","",""
"","","","","","html-button-response","74","322119","0.0-74.0","340CDEF02F914686BADA14F1F83EDC5F","019cf0a4-3908-72a8-b927-cc5285bdf562","019cf037-5203-781a-b900-108ccb1cab86","","1116","
                <div class=""stimulus-container"">
                    <img src=""images/causal_sequence/coin_causal/coin_causal_8.png"" class=""exp-image"">
                    <div class=""question-area"">
                        <p style=""font-size: 20px; font-weight: bold; margin: 0;"">Is there a person in this image?</p>
                    </div>
                </div>","0","main_experiment_trial","8","coin_causal","causal_sequence","","","","",""
"","","","","","html-keyboard-response","75","327121","0.0-75.0","340CDEF02F914686BADA14F1F83EDC5F","019cf0a4-3908-72a8-b927-cc5285bdf562","019cf037-5203-781a-b900-108ccb1cab86","","null","
                <div class=""stimulus-container"">
                    <img src=""images/causal_sequence/coin_causal/coin_causal_9.png"" class=""exp-image"">
                    <div class=""question-area""></div> 
                </div>","null","","","","","","","","",""
"","","","","","html-button-response","76","327957","0.0-76.0","340CDEF02F914686BADA14F1F83EDC5F","019cf0a4-3908-72a8-b927-cc5285bdf562","019cf037-5203-781a-b900-108ccb1cab86","","834","
                <div class=""stimulus-container"">
                    <img src=""images/causal_sequence/coin_causal/coin_causal_9.png"" class=""exp-image"">
                    <div class=""question-area"">
                        <p style=""font-size: 20px; font-weight: bold; margin: 0;"">Is there a person in this image?</p>
                    </div>
                </div>","0","main_experiment_trial","9","coin_causal","causal_sequence","","","","",""
"","","","","","html-keyboard-response","77","332961","0.0-77.0","340CDEF02F914686BADA14F1F83EDC5F","019cf0a4-3908-72a8-b927-cc5285bdf562","019cf037-5203-781a-b900-108ccb1cab86","","null","
                <div class=""stimulus-container"">
                    <img src=""images/causal_sequence/coin_causal/coin_causal_ten.png"" class=""exp-image"">
                    <div class=""question-area""></div> 
                </div>","null","","","","","","","","",""
"","","","","","html-button-response","78","333921","0.0-78.0","340CDEF02F914686BADA14F1F83EDC5F","019cf0a4-3908-72a8-b927-cc5285bdf562","019cf037-5203-781a-b900-108ccb1cab86","","959","
                <div class=""stimulus-container"">
                    <img src=""images/causal_sequence/coin_causal/coin_causal_ten.png"" class=""exp-image"">
                    <div class=""question-area"">
                        <p style=""font-size: 20px; font-weight: bold; margin: 0;"">Is there a person in this image?</p>
                    </div>
                </div>","0","main_experiment_trial","ten","coin_causal","causal_sequence","","","","",""
"","","","","","html-keyboard-response","79","334924","0.0-79.0","340CDEF02F914686BADA14F1F83EDC5F","019cf0a4-3908-72a8-b927-cc5285bdf562","019cf037-5203-781a-b900-108ccb1cab86","","null","<div style=""background-color: white; width: 100vw; height: 100vh;""></div>","null","","","","","","","","",""
"","","","","","html-keyboard-response","80","339927","0.0-80.0","340CDEF02F914686BADA14F1F83EDC5F","019cf0a4-3908-72a8-b927-cc5285bdf562","019cf037-5203-781a-b900-108ccb1cab86","","null","
                <div class=""stimulus-container"">
                    <img src=""images/schematic_sequence/flight_scheme/flight_scheme_1.png"" class=""exp-image"">
                    <div class=""question-area""></div> 
                </div>","null","","","","","","","","",""
"","","","","","html-button-response","81","341083","0.0-81.0","340CDEF02F914686BADA14F1F83EDC5F","019cf0a4-3908-72a8-b927-cc5285bdf562","019cf037-5203-781a-b900-108ccb1cab86","","1154","
                <div class=""stimulus-container"">
                    <img src=""images/schematic_sequence/flight_scheme/flight_scheme_1.png"" class=""exp-image"">
                    <div class=""question-area"">
                        <p style=""font-size: 20px; font-weight: bold; margin: 0;"">Is there a person in this image?</p>
                    </div>
                </div>","1","main_experiment_trial","1","flight_scheme","schematic_sequence","","","","",""
"","","","","","html-keyboard-response","82","346085","0.0-82.0","340CDEF02F914686BADA14F1F83EDC5F","019cf0a4-3908-72a8-b927-cc5285bdf562","019cf037-5203-781a-b900-108ccb1cab86","","null","
                <div class=""stimulus-container"">
                    <img src=""images/schematic_sequence/flight_scheme/flight_scheme_2.png"" class=""exp-image"">
                    <div class=""question-area""></div> 
                </div>","null","","","","","","","","",""
"","","","","","html-button-response","83","347325","0.0-83.0","340CDEF02F914686BADA14F1F83EDC5F","019cf0a4-3908-72a8-b927-cc5285bdf562","019cf037-5203-781a-b900-108ccb1cab86","","1238","
                <div class=""stimulus-container"">
                    <img src=""images/schematic_sequence/flight_scheme/flight_scheme_2.png"" class=""exp-image"">
                    <div class=""question-area"">
                        <p style=""font-size: 20px; font-weight: bold; margin: 0;"">Is there a person in this image?</p>
                    </div>
                </div>","1","main_experiment_trial","2","flight_scheme","schematic_sequence","","","","",""
"","","","","","html-keyboard-response","84","352328","0.0-84.0","340CDEF02F914686BADA14F1F83EDC5F","019cf0a4-3908-72a8-b927-cc5285bdf562","019cf037-5203-781a-b900-108ccb1cab86","","null","
                <div class=""stimulus-container"">
                    <img src=""images/schematic_sequence/flight_scheme/flight_scheme_3.png"" class=""exp-image"">
                    <div class=""question-area""></div> 
                </div>","null","","","","","","","","",""
"","","","","","html-button-response","85","353785","0.0-85.0","340CDEF02F914686BADA14F1F83EDC5F","019cf0a4-3908-72a8-b927-cc5285bdf562","019cf037-5203-781a-b900-108ccb1cab86","","1455","
                <div class=""stimulus-container"">
                    <img src=""images/schematic_sequence/flight_scheme/flight_scheme_3.png"" class=""exp-image"">
                    <div class=""question-area"">
                        <p style=""font-size: 20px; font-weight: bold; margin: 0;"">Is there a person in this image?</p>
                    </div>
                </div>","0","main_experiment_trial","3","flight_scheme","schematic_sequence","","","","",""
"","","","","","html-keyboard-response","86","358788","0.0-86.0","340CDEF02F914686BADA14F1F83EDC5F","019cf0a4-3908-72a8-b927-cc5285bdf562","019cf037-5203-781a-b900-108ccb1cab86","","null","
                <div class=""stimulus-container"">
                    <img src=""images/schematic_sequence/flight_scheme/flight_scheme_4.png"" class=""exp-image"">
                    <div class=""question-area""></div> 
                </div>","null","","","","","","","","",""
"","","","","","html-button-response","87","360567","0.0-87.0","340CDEF02F914686BADA14F1F83EDC5F","019cf0a4-3908-72a8-b927-cc5285bdf562","019cf037-5203-781a-b900-108ccb1cab86","","1777","
                <div class=""stimulus-container"">
                    <img src=""images/schematic_sequence/flight_scheme/flight_scheme_4.png"" class=""exp-image"">
                    <div class=""question-area"">
                        <p style=""font-size: 20px; font-weight: bold; margin: 0;"">Is there a person in this image?</p>
                    </div>
                </div>","0","main_experiment_trial","4","flight_scheme","schematic_sequence","","","","",""
"","","","","","html-keyboard-response","88","365569","0.0-88.0","340CDEF02F914686BADA14F1F83EDC5F","019cf0a4-3908-72a8-b927-cc5285bdf562","019cf037-5203-781a-b900-108ccb1cab86","","null","
                <div class=""stimulus-container"">
                    <img src=""images/schematic_sequence/flight_scheme/flight_scheme_5.png"" class=""exp-image"">
                    <div class=""question-area""></div> 
                </div>","null","","","","","","","","",""
"","","","","","html-button-response","89","367600","0.0-89.0","340CDEF02F914686BADA14F1F83EDC5F","019cf0a4-3908-72a8-b927-cc5285bdf562","019cf037-5203-781a-b900-108ccb1cab86","","2029","
                <div class=""stimulus-container"">
                    <img src=""images/schematic_sequence/flight_scheme/flight_scheme_5.png"" class=""exp-image"">
                    <div class=""question-area"">
                        <p style=""font-size: 20px; font-weight: bold; margin: 0;"">Is there a person in this image?</p>
                    </div>
                </div>","0","main_experiment_trial","5","flight_scheme","schematic_sequence","","","","",""
"","","","","","html-keyboard-response","90","372602","0.0-90.0","340CDEF02F914686BADA14F1F83EDC5F","019cf0a4-3908-72a8-b927-cc5285bdf562","019cf037-5203-781a-b900-108ccb1cab86","","null","
                <div class=""stimulus-container"">
                    <img src=""images/schematic_sequence/flight_scheme/flight_scheme_6.png"" class=""exp-image"">
                    <div class=""question-area""></div> 
                </div>","null","","","","","","","","",""
"","","","","","html-button-response","91","373864","0.0-91.0","340CDEF02F914686BADA14F1F83EDC5F","019cf0a4-3908-72a8-b927-cc5285bdf562","019cf037-5203-781a-b900-108ccb1cab86","","1260","
                <div class=""stimulus-container"">
                    <img src=""images/schematic_sequence/flight_scheme/flight_scheme_6.png"" class=""exp-image"">
                    <div class=""question-area"">
                        <p style=""font-size: 20px; font-weight: bold; margin: 0;"">Is there a person in this image?</p>
                    </div>
                </div>","1","main_experiment_trial","6","flight_scheme","schematic_sequence","","","","",""
"","","","","","html-keyboard-response","92","378867","0.0-92.0","340CDEF02F914686BADA14F1F83EDC5F","019cf0a4-3908-72a8-b927-cc5285bdf562","019cf037-5203-781a-b900-108ccb1cab86","","null","
                <div class=""stimulus-container"">
                    <img src=""images/schematic_sequence/flight_scheme/flight_scheme_7.png"" class=""exp-image"">
                    <div class=""question-area""></div> 
                </div>","null","","","","","","","","",""
"","","","","","html-button-response","93","380309","0.0-93.0","340CDEF02F914686BADA14F1F83EDC5F","019cf0a4-3908-72a8-b927-cc5285bdf562","019cf037-5203-781a-b900-108ccb1cab86","","1440","
                <div class=""stimulus-container"">
                    <img src=""images/schematic_sequence/flight_scheme/flight_scheme_7.png"" class=""exp-image"">
                    <div class=""question-area"">
                        <p style=""font-size: 20px; font-weight: bold; margin: 0;"">Is there a person in this image?</p>
                    </div>
                </div>","1","main_experiment_trial","7","flight_scheme","schematic_sequence","","","","",""
"","","","","","html-keyboard-response","94","385311","0.0-94.0","340CDEF02F914686BADA14F1F83EDC5F","019cf0a4-3908-72a8-b927-cc5285bdf562","019cf037-5203-781a-b900-108ccb1cab86","","null","
                <div class=""stimulus-container"">
                    <img src=""images/schematic_sequence/flight_scheme/flight_scheme_8.png"" class=""exp-image"">
                    <div class=""question-area""></div> 
                </div>","null","","","","","","","","",""
"","","","","","html-button-response","95","386978","0.0-95.0","340CDEF02F914686BADA14F1F83EDC5F","019cf0a4-3908-72a8-b927-cc5285bdf562","019cf037-5203-781a-b900-108ccb1cab86","","1665","
                <div class=""stimulus-container"">
                    <img src=""images/schematic_sequence/flight_scheme/flight_scheme_8.png"" class=""exp-image"">
                    <div class=""question-area"">
                        <p style=""font-size: 20px; font-weight: bold; margin: 0;"">Is there a person in this image?</p>
                    </div>
                </div>","1","main_experiment_trial","8","flight_scheme","schematic_sequence","","","","",""
"","","","","","html-keyboard-response","96","391981","0.0-96.0","340CDEF02F914686BADA14F1F83EDC5F","019cf0a4-3908-72a8-b927-cc5285bdf562","019cf037-5203-781a-b900-108ccb1cab86","","null","
                <div class=""stimulus-container"">
                    <img src=""images/schematic_sequence/flight_scheme/flight_scheme_9.png"" class=""exp-image"">
                    <div class=""question-area""></div> 
                </div>","null","","","","","","","","",""
"","","","","","html-button-response","97","393301","0.0-97.0","340CDEF02F914686BADA14F1F83EDC5F","019cf0a4-3908-72a8-b927-cc5285bdf562","019cf037-5203-781a-b900-108ccb1cab86","","1319","
                <div class=""stimulus-container"">
                    <img src=""images/schematic_sequence/flight_scheme/flight_scheme_9.png"" class=""exp-image"">
                    <div class=""question-area"">
                        <p style=""font-size: 20px; font-weight: bold; margin: 0;"">Is there a person in this image?</p>
                    </div>
                </div>","0","main_experiment_trial","9","flight_scheme","schematic_sequence","","","","",""
"","","","","","html-keyboard-response","98","398303","0.0-98.0","340CDEF02F914686BADA14F1F83EDC5F","019cf0a4-3908-72a8-b927-cc5285bdf562","019cf037-5203-781a-b900-108ccb1cab86","","null","
                <div class=""stimulus-container"">
                    <img src=""images/schematic_sequence/flight_scheme/flight_scheme_ten.png"" class=""exp-image"">
                    <div class=""question-area""></div> 
                </div>","null","","","","","","","","",""
"","","","","","html-button-response","99","400011","0.0-99.0","340CDEF02F914686BADA14F1F83EDC5F","019cf0a4-3908-72a8-b927-cc5285bdf562","019cf037-5203-781a-b900-108ccb1cab86","","1707","
                <div class=""stimulus-container"">
                    <img src=""images/schematic_sequence/flight_scheme/flight_scheme_ten.png"" class=""exp-image"">
                    <div class=""question-area"">
                        <p style=""font-size: 20px; font-weight: bold; margin: 0;"">Is there a person in this image?</p>
                    </div>
                </div>","0","main_experiment_trial","ten","flight_scheme","schematic_sequence","","","","",""
"","","","","","html-keyboard-response","100","401014","0.0-100.0","340CDEF02F914686BADA14F1F83EDC5F","019cf0a4-3908-72a8-b927-cc5285bdf562","019cf037-5203-781a-b900-108ccb1cab86","","null","<div style=""background-color: white; width: 100vw; height: 100vh;""></div>","null","","","","","","","","",""
"","","","","","html-keyboard-response","101","406017","0.0-101.0","340CDEF02F914686BADA14F1F83EDC5F","019cf0a4-3908-72a8-b927-cc5285bdf562","019cf037-5203-781a-b900-108ccb1cab86","","null","
                <div class=""stimulus-container"">
                    <img src=""images/causal_sequence/museum_causal/museum_causal_1.png"" class=""exp-image"">
                    <div class=""question-area""></div> 
                </div>","null","","","","","","","","",""
"","","","","","html-button-response","102","408607","0.0-102.0","340CDEF02F914686BADA14F1F83EDC5F","019cf0a4-3908-72a8-b927-cc5285bdf562","019cf037-5203-781a-b900-108ccb1cab86","","2588","
                <div class=""stimulus-container"">
                    <img src=""images/causal_sequence/museum_causal/museum_causal_1.png"" class=""exp-image"">
                    <div class=""question-area"">
                        <p style=""font-size: 20px; font-weight: bold; margin: 0;"">Is there a person in this image?</p>
                    </div>
                </div>","0","main_experiment_trial","1","museum_causal","causal_sequence","","","","",""
"","","","","","html-keyboard-response","103","413610","0.0-103.0","340CDEF02F914686BADA14F1F83EDC5F","019cf0a4-3908-72a8-b927-cc5285bdf562","019cf037-5203-781a-b900-108ccb1cab86","","null","
                <div class=""stimulus-container"">
                    <img src=""images/causal_sequence/museum_causal/museum_causal_2.png"" class=""exp-image"">
                    <div class=""question-area""></div> 
                </div>","null","","","","","","","","",""
"","","","","","html-button-response","104","414630","0.0-104.0","340CDEF02F914686BADA14F1F83EDC5F","019cf0a4-3908-72a8-b927-cc5285bdf562","019cf037-5203-781a-b900-108ccb1cab86","","1019","
                <div class=""stimulus-container"">
                    <img src=""images/causal_sequence/museum_causal/museum_causal_2.png"" class=""exp-image"">
                    <div class=""question-area"">
                        <p style=""font-size: 20px; font-weight: bold; margin: 0;"">Is there a person in this image?</p>
                    </div>
                </div>","1","main_experiment_trial","2","museum_causal","causal_sequence","","","","",""
"","","","","","html-keyboard-response","105","419633","0.0-105.0","340CDEF02F914686BADA14F1F83EDC5F","019cf0a4-3908-72a8-b927-cc5285bdf562","019cf037-5203-781a-b900-108ccb1cab86","","null","
                <div class=""stimulus-container"">
                    <img src=""images/causal_sequence/museum_causal/museum_causal_3.png"" class=""exp-image"">
                    <div class=""question-area""></div> 
                </div>","null","","","","","","","","",""
"","","","","","html-button-response","106","420737","0.0-106.0","340CDEF02F914686BADA14F1F83EDC5F","019cf0a4-3908-72a8-b927-cc5285bdf562","019cf037-5203-781a-b900-108ccb1cab86","","1101","
                <div class=""stimulus-container"">
                    <img src=""images/causal_sequence/museum_causal/museum_causal_3.png"" class=""exp-image"">
                    <div class=""question-area"">
                        <p style=""font-size: 20px; font-weight: bold; margin: 0;"">Is there a person in this image?</p>
                    </div>
                </div>","1","main_experiment_trial","3","museum_causal","causal_sequence","","","","",""
"","","","","","html-keyboard-response","107","425739","0.0-107.0","340CDEF02F914686BADA14F1F83EDC5F","019cf0a4-3908-72a8-b927-cc5285bdf562","019cf037-5203-781a-b900-108ccb1cab86","","null","
                <div class=""stimulus-container"">
                    <img src=""images/causal_sequence/museum_causal/museum_causal_4.png"" class=""exp-image"">
                    <div class=""question-area""></div> 
                </div>","null","","","","","","","","",""
"","","","","","html-button-response","108","426758","0.0-108.0","340CDEF02F914686BADA14F1F83EDC5F","019cf0a4-3908-72a8-b927-cc5285bdf562","019cf037-5203-781a-b900-108ccb1cab86","","1017","
                <div class=""stimulus-container"">
                    <img src=""images/causal_sequence/museum_causal/museum_causal_4.png"" class=""exp-image"">
                    <div class=""question-area"">
                        <p style=""font-size: 20px; font-weight: bold; margin: 0;"">Is there a person in this image?</p>
                    </div>
                </div>","1","main_experiment_trial","4","museum_causal","causal_sequence","","","","",""
"","","","","","html-keyboard-response","109","431761","0.0-109.0","340CDEF02F914686BADA14F1F83EDC5F","019cf0a4-3908-72a8-b927-cc5285bdf562","019cf037-5203-781a-b900-108ccb1cab86","","null","
                <div class=""stimulus-container"">
                    <img src=""images/causal_sequence/museum_causal/museum_causal_5.png"" class=""exp-image"">
                    <div class=""question-area""></div> 
                </div>","null","","","","","","","","",""
"","","","","","html-button-response","110","432857","0.0-110.0","340CDEF02F914686BADA14F1F83EDC5F","019cf0a4-3908-72a8-b927-cc5285bdf562","019cf037-5203-781a-b900-108ccb1cab86","","1094","
                <div class=""stimulus-container"">
                    <img src=""images/causal_sequence/museum_causal/museum_causal_5.png"" class=""exp-image"">
                    <div class=""question-area"">
                        <p style=""font-size: 20px; font-weight: bold; margin: 0;"">Is there a person in this image?</p>
                    </div>
                </div>","0","main_experiment_trial","5","museum_causal","causal_sequence","","","","",""
"","","","","","html-keyboard-response","111","437860","0.0-111.0","340CDEF02F914686BADA14F1F83EDC5F","019cf0a4-3908-72a8-b927-cc5285bdf562","019cf037-5203-781a-b900-108ccb1cab86","","null","
                <div class=""stimulus-container"">
                    <img src=""images/causal_sequence/museum_causal/museum_causal_6.png"" class=""exp-image"">
                    <div class=""question-area""></div> 
                </div>","null","","","","","","","","",""
"","","","","","html-button-response","112","438771","0.0-112.0","340CDEF02F914686BADA14F1F83EDC5F","019cf0a4-3908-72a8-b927-cc5285bdf562","019cf037-5203-781a-b900-108ccb1cab86","","910","
                <div class=""stimulus-container"">
                    <img src=""images/causal_sequence/museum_causal/museum_causal_6.png"" class=""exp-image"">
                    <div class=""question-area"">
                        <p style=""font-size: 20px; font-weight: bold; margin: 0;"">Is there a person in this image?</p>
                    </div>
                </div>","0","main_experiment_trial","6","museum_causal","causal_sequence","","","","",""
"","","","","","html-keyboard-response","113","443774","0.0-113.0","340CDEF02F914686BADA14F1F83EDC5F","019cf0a4-3908-72a8-b927-cc5285bdf562","019cf037-5203-781a-b900-108ccb1cab86","","null","
                <div class=""stimulus-container"">
                    <img src=""images/causal_sequence/museum_causal/museum_causal_7.png"" class=""exp-image"">
                    <div class=""question-area""></div> 
                </div>","null","","","","","","","","",""
"","","","","","html-button-response","114","446777","0.0-114.0","340CDEF02F914686BADA14F1F83EDC5F","019cf0a4-3908-72a8-b927-cc5285bdf562","019cf037-5203-781a-b900-108ccb1cab86","","null","
                <div class=""stimulus-container"">
                    <img src=""images/causal_sequence/museum_causal/museum_causal_7.png"" class=""exp-image"">
                    <div class=""question-area"">
                        <p style=""font-size: 20px; font-weight: bold; margin: 0;"">Is there a person in this image?</p>
                    </div>
                </div>","null","main_experiment_trial","7","museum_causal","causal_sequence","","","","",""
"","","","","","html-keyboard-response","115","451779","0.0-115.0","340CDEF02F914686BADA14F1F83EDC5F","019cf0a4-3908-72a8-b927-cc5285bdf562","019cf037-5203-781a-b900-108ccb1cab86","","null","
                <div class=""stimulus-container"">
                    <img src=""images/causal_sequence/museum_causal/museum_causal_8.png"" class=""exp-image"">
                    <div class=""question-area""></div> 
                </div>","null","","","","","","","","",""
"","","","","","html-button-response","116","452419","0.0-116.0","340CDEF02F914686BADA14F1F83EDC5F","019cf0a4-3908-72a8-b927-cc5285bdf562","019cf037-5203-781a-b900-108ccb1cab86","","638","
                <div class=""stimulus-container"">
                    <img src=""images/causal_sequence/museum_causal/museum_causal_8.png"" class=""exp-image"">
                    <div class=""question-area"">
                        <p style=""font-size: 20px; font-weight: bold; margin: 0;"">Is there a person in this image?</p>
                    </div>
                </div>","0","main_experiment_trial","8","museum_causal","causal_sequence","","","","",""
"","","","","","html-keyboard-response","117","457422","0.0-117.0","340CDEF02F914686BADA14F1F83EDC5F","019cf0a4-3908-72a8-b927-cc5285bdf562","019cf037-5203-781a-b900-108ccb1cab86","","null","
                <div class=""stimulus-container"">
                    <img src=""images/causal_sequence/museum_causal/museum_causal_9.png"" class=""exp-image"">
                    <div class=""question-area""></div> 
                </div>","null","","","","","","","","",""
"","","","","","html-button-response","118","458233","0.0-118.0","340CDEF02F914686BADA14F1F83EDC5F","019cf0a4-3908-72a8-b927-cc5285bdf562","019cf037-5203-781a-b900-108ccb1cab86","","809","
                <div class=""stimulus-container"">
                    <img src=""images/causal_sequence/museum_causal/museum_causal_9.png"" class=""exp-image"">
                    <div class=""question-area"">
                        <p style=""font-size: 20px; font-weight: bold; margin: 0;"">Is there a person in this image?</p>
                    </div>
                </div>","1","main_experiment_trial","9","museum_causal","causal_sequence","","","","",""
"","","","","","html-keyboard-response","119","463235","0.0-119.0","340CDEF02F914686BADA14F1F83EDC5F","019cf0a4-3908-72a8-b927-cc5285bdf562","019cf037-5203-781a-b900-108ccb1cab86","","null","
                <div class=""stimulus-container"">
                    <img src=""images/causal_sequence/museum_causal/museum_causal_ten.png"" class=""exp-image"">
                    <div class=""question-area""></div> 
                </div>","null","","","","","","","","",""
"","","","","","html-button-response","120","464402","0.0-120.0","340CDEF02F914686BADA14F1F83EDC5F","019cf0a4-3908-72a8-b927-cc5285bdf562","019cf037-5203-781a-b900-108ccb1cab86","","1165","
                <div class=""stimulus-container"">
                    <img src=""images/causal_sequence/museum_causal/museum_causal_ten.png"" class=""exp-image"">
                    <div class=""question-area"">
                        <p style=""font-size: 20px; font-weight: bold; margin: 0;"">Is there a person in this image?</p>
                    </div>
                </div>","0","main_experiment_trial","ten","museum_causal","causal_sequence","","","","",""
"","","","","","html-keyboard-response","121","465405","0.0-121.0","340CDEF02F914686BADA14F1F83EDC5F","019cf0a4-3908-72a8-b927-cc5285bdf562","019cf037-5203-781a-b900-108ccb1cab86","","null","<div style=""background-color: white; width: 100vw; height: 100vh;""></div>","null","","","","","","","","",""
"","","","","","html-keyboard-response","122","470408","0.0-122.0","340CDEF02F914686BADA14F1F83EDC5F","019cf0a4-3908-72a8-b927-cc5285bdf562","019cf037-5203-781a-b900-108ccb1cab86","","null","
                <div class=""stimulus-container"">
                    <img src=""images/causal_sequence/the_performance_causal/the_performance_causal_1.png"" class=""exp-image"">
                    <div class=""question-area""></div> 
                </div>","null","","","","","","","","",""
"","","","","","html-button-response","123","471616","0.0-123.0","340CDEF02F914686BADA14F1F83EDC5F","019cf0a4-3908-72a8-b927-cc5285bdf562","019cf037-5203-781a-b900-108ccb1cab86","","1207","
                <div class=""stimulus-container"">
                    <img src=""images/causal_sequence/the_performance_causal/the_performance_causal_1.png"" class=""exp-image"">
                    <div class=""question-area"">
                        <p style=""font-size: 20px; font-weight: bold; margin: 0;"">Is there a person in this image?</p>
                    </div>
                </div>","0","main_experiment_trial","1","the_performance_causal","causal_sequence","","","","",""
"","","","","","html-keyboard-response","124","476618","0.0-124.0","340CDEF02F914686BADA14F1F83EDC5F","019cf0a4-3908-72a8-b927-cc5285bdf562","019cf037-5203-781a-b900-108ccb1cab86","","null","
                <div class=""stimulus-container"">
                    <img src=""images/causal_sequence/the_performance_causal/the_performance_causal_2.png"" class=""exp-image"">
                    <div class=""question-area""></div> 
                </div>","null","","","","","","","","",""
"","","","","","html-button-response","125","477796","0.0-125.0","340CDEF02F914686BADA14F1F83EDC5F","019cf0a4-3908-72a8-b927-cc5285bdf562","019cf037-5203-781a-b900-108ccb1cab86","","1177","
                <div class=""stimulus-container"">
                    <img src=""images/causal_sequence/the_performance_causal/the_performance_causal_2.png"" class=""exp-image"">
                    <div class=""question-area"">
                        <p style=""font-size: 20px; font-weight: bold; margin: 0;"">Is there a person in this image?</p>
                    </div>
                </div>","0","main_experiment_trial","2","the_performance_causal","causal_sequence","","","","",""
"","","","","","html-keyboard-response","126","482800","0.0-126.0","340CDEF02F914686BADA14F1F83EDC5F","019cf0a4-3908-72a8-b927-cc5285bdf562","019cf037-5203-781a-b900-108ccb1cab86","","null","
                <div class=""stimulus-container"">
                    <img src=""images/causal_sequence/the_performance_causal/the_performance_causal_3.png"" class=""exp-image"">
                    <div class=""question-area""></div> 
                </div>","null","","","","","","","","",""
"","","","","","html-button-response","127","484048","0.0-127.0","340CDEF02F914686BADA14F1F83EDC5F","019cf0a4-3908-72a8-b927-cc5285bdf562","019cf037-5203-781a-b900-108ccb1cab86","","1247","
                <div class=""stimulus-container"">
                    <img src=""images/causal_sequence/the_performance_causal/the_performance_causal_3.png"" class=""exp-image"">
                    <div class=""question-area"">
                        <p style=""font-size: 20px; font-weight: bold; margin: 0;"">Is there a person in this image?</p>
                    </div>
                </div>","0","main_experiment_trial","3","the_performance_causal","causal_sequence","","","","",""
"","","","","","html-keyboard-response","128","489051","0.0-128.0","340CDEF02F914686BADA14F1F83EDC5F","019cf0a4-3908-72a8-b927-cc5285bdf562","019cf037-5203-781a-b900-108ccb1cab86","","null","
                <div class=""stimulus-container"">
                    <img src=""images/causal_sequence/the_performance_causal/the_performance_causal_4.png"" class=""exp-image"">
                    <div class=""question-area""></div> 
                </div>","null","","","","","","","","",""
"","","","","","html-button-response","129","490376","0.0-129.0","340CDEF02F914686BADA14F1F83EDC5F","019cf0a4-3908-72a8-b927-cc5285bdf562","019cf037-5203-781a-b900-108ccb1cab86","","1323","
                <div class=""stimulus-container"">
                    <img src=""images/causal_sequence/the_performance_causal/the_performance_causal_4.png"" class=""exp-image"">
                    <div class=""question-area"">
                        <p style=""font-size: 20px; font-weight: bold; margin: 0;"">Is there a person in this image?</p>
                    </div>
                </div>","0","main_experiment_trial","4","the_performance_causal","causal_sequence","","","","",""
"","","","","","html-keyboard-response","130","495379","0.0-130.0","340CDEF02F914686BADA14F1F83EDC5F","019cf0a4-3908-72a8-b927-cc5285bdf562","019cf037-5203-781a-b900-108ccb1cab86","","null","
                <div class=""stimulus-container"">
                    <img src=""images/causal_sequence/the_performance_causal/the_performance_causal_5.png"" class=""exp-image"">
                    <div class=""question-area""></div> 
                </div>","null","","","","","","","","",""
"","","","","","html-button-response","131","496948","0.0-131.0","340CDEF02F914686BADA14F1F83EDC5F","019cf0a4-3908-72a8-b927-cc5285bdf562","019cf037-5203-781a-b900-108ccb1cab86","","1567","
                <div class=""stimulus-container"">
                    <img src=""images/causal_sequence/the_performance_causal/the_performance_causal_5.png"" class=""exp-image"">
                    <div class=""question-area"">
                        <p style=""font-size: 20px; font-weight: bold; margin: 0;"">Is there a person in this image?</p>
                    </div>
                </div>","0","main_experiment_trial","5","the_performance_causal","causal_sequence","","","","",""
"","","","","","html-keyboard-response","132","501950","0.0-132.0","340CDEF02F914686BADA14F1F83EDC5F","019cf0a4-3908-72a8-b927-cc5285bdf562","019cf037-5203-781a-b900-108ccb1cab86","","null","
                <div class=""stimulus-container"">
                    <img src=""images/causal_sequence/the_performance_causal/the_performance_causal_6.png"" class=""exp-image"">
                    <div class=""question-area""></div> 
                </div>","null","","","","","","","","",""
"","","","","","html-button-response","133","503527","0.0-133.0","340CDEF02F914686BADA14F1F83EDC5F","019cf0a4-3908-72a8-b927-cc5285bdf562","019cf037-5203-781a-b900-108ccb1cab86","","1575","
                <div class=""stimulus-container"">
                    <img src=""images/causal_sequence/the_performance_causal/the_performance_causal_6.png"" class=""exp-image"">
                    <div class=""question-area"">
                        <p style=""font-size: 20px; font-weight: bold; margin: 0;"">Is there a person in this image?</p>
                    </div>
                </div>","0","main_experiment_trial","6","the_performance_causal","causal_sequence","","","","",""
"","","","","","html-keyboard-response","134","508529","0.0-134.0","340CDEF02F914686BADA14F1F83EDC5F","019cf0a4-3908-72a8-b927-cc5285bdf562","019cf037-5203-781a-b900-108ccb1cab86","","null","
                <div class=""stimulus-container"">
                    <img src=""images/causal_sequence/the_performance_causal/the_performance_causal_7.png"" class=""exp-image"">
                    <div class=""question-area""></div> 
                </div>","null","","","","","","","","",""
"","","","","","html-button-response","135","509890","0.0-135.0","340CDEF02F914686BADA14F1F83EDC5F","019cf0a4-3908-72a8-b927-cc5285bdf562","019cf037-5203-781a-b900-108ccb1cab86","","1359","
                <div class=""stimulus-container"">
                    <img src=""images/causal_sequence/the_performance_causal/the_performance_causal_7.png"" class=""exp-image"">
                    <div class=""question-area"">
                        <p style=""font-size: 20px; font-weight: bold; margin: 0;"">Is there a person in this image?</p>
                    </div>
                </div>","0","main_experiment_trial","7","the_performance_causal","causal_sequence","","","","",""
"","","","","","html-keyboard-response","136","514893","0.0-136.0","340CDEF02F914686BADA14F1F83EDC5F","019cf0a4-3908-72a8-b927-cc5285bdf562","019cf037-5203-781a-b900-108ccb1cab86","","null","
                <div class=""stimulus-container"">
                    <img src=""images/causal_sequence/the_performance_causal/the_performance_causal_8.png"" class=""exp-image"">
                    <div class=""question-area""></div> 
                </div>","null","","","","","","","","",""
"","","","","","html-button-response","137","516115","0.0-137.0","340CDEF02F914686BADA14F1F83EDC5F","019cf0a4-3908-72a8-b927-cc5285bdf562","019cf037-5203-781a-b900-108ccb1cab86","","1220","
                <div class=""stimulus-container"">
                    <img src=""images/causal_sequence/the_performance_causal/the_performance_causal_8.png"" class=""exp-image"">
                    <div class=""question-area"">
                        <p style=""font-size: 20px; font-weight: bold; margin: 0;"">Is there a person in this image?</p>
                    </div>
                </div>","0","main_experiment_trial","8","the_performance_causal","causal_sequence","","","","",""
"","","","","","html-keyboard-response","138","521118","0.0-138.0","340CDEF02F914686BADA14F1F83EDC5F","019cf0a4-3908-72a8-b927-cc5285bdf562","019cf037-5203-781a-b900-108ccb1cab86","","null","
                <div class=""stimulus-container"">
                    <img src=""images/causal_sequence/the_performance_causal/the_performance_causal_9.png"" class=""exp-image"">
                    <div class=""question-area""></div> 
                </div>","null","","","","","","","","",""
"","","","","","html-button-response","139","522495","0.0-139.0","340CDEF02F914686BADA14F1F83EDC5F","019cf0a4-3908-72a8-b927-cc5285bdf562","019cf037-5203-781a-b900-108ccb1cab86","","1375","
                <div class=""stimulus-container"">
                    <img src=""images/causal_sequence/the_performance_causal/the_performance_causal_9.png"" class=""exp-image"">
                    <div class=""question-area"">
                        <p style=""font-size: 20px; font-weight: bold; margin: 0;"">Is there a person in this image?</p>
                    </div>
                </div>","0","main_experiment_trial","9","the_performance_causal","causal_sequence","","","","",""
"","","","","","html-keyboard-response","140","527498","0.0-140.0","340CDEF02F914686BADA14F1F83EDC5F","019cf0a4-3908-72a8-b927-cc5285bdf562","019cf037-5203-781a-b900-108ccb1cab86","","null","
                <div class=""stimulus-container"">
                    <img src=""images/causal_sequence/the_performance_causal/the_performance_causal_ten.png"" class=""exp-image"">
                    <div class=""question-area""></div> 
                </div>","null","","","","","","","","",""
"","","","","","html-button-response","141","529141","0.0-141.0","340CDEF02F914686BADA14F1F83EDC5F","019cf0a4-3908-72a8-b927-cc5285bdf562","019cf037-5203-781a-b900-108ccb1cab86","","1640","
                <div class=""stimulus-container"">
                    <img src=""images/causal_sequence/the_performance_causal/the_performance_causal_ten.png"" class=""exp-image"">
                    <div class=""question-area"">
                        <p style=""font-size: 20px; font-weight: bold; margin: 0;"">Is there a person in this image?</p>
                    </div>
                </div>","0","main_experiment_trial","ten","the_performance_causal","causal_sequence","","","","",""
"","","","","","html-keyboard-response","142","530144","0.0-142.0","340CDEF02F914686BADA14F1F83EDC5F","019cf0a4-3908-72a8-b927-cc5285bdf562","019cf037-5203-781a-b900-108ccb1cab86","","null","<div style=""background-color: white; width: 100vw; height: 100vh;""></div>","null","","","","","","","","",""
"","","","","","html-keyboard-response","143","535147","0.0-143.0","340CDEF02F914686BADA14F1F83EDC5F","019cf0a4-3908-72a8-b927-cc5285bdf562","019cf037-5203-781a-b900-108ccb1cab86","","null","
                <div class=""stimulus-container"">
                    <img src=""images/schematic_sequence/restaurant_scheme/restaurant_scheme_1.png"" class=""exp-image"">
                    <div class=""question-area""></div> 
                </div>","null","","","","","","","","",""
"","","","","","html-button-response","144","536977","0.0-144.0","340CDEF02F914686BADA14F1F83EDC5F","019cf0a4-3908-72a8-b927-cc5285bdf562","019cf037-5203-781a-b900-108ccb1cab86","","1828","
                <div class=""stimulus-container"">
                    <img src=""images/schematic_sequence/restaurant_scheme/restaurant_scheme_1.png"" class=""exp-image"">
                    <div class=""question-area"">
                        <p style=""font-size: 20px; font-weight: bold; margin: 0;"">Is there a person in this image?</p>
                    </div>
                </div>","0","main_experiment_trial","1","restaurant_scheme","schematic_sequence","","","","",""
"","","","","","html-keyboard-response","145","541980","0.0-145.0","340CDEF02F914686BADA14F1F83EDC5F","019cf0a4-3908-72a8-b927-cc5285bdf562","019cf037-5203-781a-b900-108ccb1cab86","","null","
                <div class=""stimulus-container"">
                    <img src=""images/schematic_sequence/restaurant_scheme/restaurant_scheme_2.png"" class=""exp-image"">
                    <div class=""question-area""></div> 
                </div>","null","","","","","","","","",""
"","","","","","html-button-response","146","543035","0.0-146.0","340CDEF02F914686BADA14F1F83EDC5F","019cf0a4-3908-72a8-b927-cc5285bdf562","019cf037-5203-781a-b900-108ccb1cab86","","1054","
                <div class=""stimulus-container"">
                    <img src=""images/schematic_sequence/restaurant_scheme/restaurant_scheme_2.png"" class=""exp-image"">
                    <div class=""question-area"">
                        <p style=""font-size: 20px; font-weight: bold; margin: 0;"">Is there a person in this image?</p>
                    </div>
                </div>","1","main_experiment_trial","2","restaurant_scheme","schematic_sequence","","","","",""
"","","","","","html-keyboard-response","147","548037","0.0-147.0","340CDEF02F914686BADA14F1F83EDC5F","019cf0a4-3908-72a8-b927-cc5285bdf562","019cf037-5203-781a-b900-108ccb1cab86","","null","
                <div class=""stimulus-container"">
                    <img src=""images/schematic_sequence/restaurant_scheme/restaurant_scheme_3.png"" class=""exp-image"">
                    <div class=""question-area""></div> 
                </div>","null","","","","","","","","",""
"","","","","","html-button-response","148","549739","0.0-148.0","340CDEF02F914686BADA14F1F83EDC5F","019cf0a4-3908-72a8-b927-cc5285bdf562","019cf037-5203-781a-b900-108ccb1cab86","","1700","
                <div class=""stimulus-container"">
                    <img src=""images/schematic_sequence/restaurant_scheme/restaurant_scheme_3.png"" class=""exp-image"">
                    <div class=""question-area"">
                        <p style=""font-size: 20px; font-weight: bold; margin: 0;"">Is there a person in this image?</p>
                    </div>
                </div>","1","main_experiment_trial","3","restaurant_scheme","schematic_sequence","","","","",""
"","","","","","html-keyboard-response","149","554742","0.0-149.0","340CDEF02F914686BADA14F1F83EDC5F","019cf0a4-3908-72a8-b927-cc5285bdf562","019cf037-5203-781a-b900-108ccb1cab86","","null","
                <div class=""stimulus-container"">
                    <img src=""images/schematic_sequence/restaurant_scheme/restaurant_scheme_4.png"" class=""exp-image"">
                    <div class=""question-area""></div> 
                </div>","null","","","","","","","","",""
"","","","","","html-button-response","150","556347","0.0-150.0","340CDEF02F914686BADA14F1F83EDC5F","019cf0a4-3908-72a8-b927-cc5285bdf562","019cf037-5203-781a-b900-108ccb1cab86","","1604","
                <div class=""stimulus-container"">
                    <img src=""images/schematic_sequence/restaurant_scheme/restaurant_scheme_4.png"" class=""exp-image"">
                    <div class=""question-area"">
                        <p style=""font-size: 20px; font-weight: bold; margin: 0;"">Is there a person in this image?</p>
                    </div>
                </div>","0","main_experiment_trial","4","restaurant_scheme","schematic_sequence","","","","",""
"","","","","","html-keyboard-response","151","561350","0.0-151.0","340CDEF02F914686BADA14F1F83EDC5F","019cf0a4-3908-72a8-b927-cc5285bdf562","019cf037-5203-781a-b900-108ccb1cab86","","null","
                <div class=""stimulus-container"">
                    <img src=""images/schematic_sequence/restaurant_scheme/restaurant_scheme_5.png"" class=""exp-image"">
                    <div class=""question-area""></div> 
                </div>","null","","","","","","","","",""
"","","","","","html-button-response","152","563886","0.0-152.0","340CDEF02F914686BADA14F1F83EDC5F","019cf0a4-3908-72a8-b927-cc5285bdf562","019cf037-5203-781a-b900-108ccb1cab86","","2534","
                <div class=""stimulus-container"">
                    <img src=""images/schematic_sequence/restaurant_scheme/restaurant_scheme_5.png"" class=""exp-image"">
                    <div class=""question-area"">
                        <p style=""font-size: 20px; font-weight: bold; margin: 0;"">Is there a person in this image?</p>
                    </div>
                </div>","0","main_experiment_trial","5","restaurant_scheme","schematic_sequence","","","","",""
"","","","","","html-keyboard-response","153","568889","0.0-153.0","340CDEF02F914686BADA14F1F83EDC5F","019cf0a4-3908-72a8-b927-cc5285bdf562","019cf037-5203-781a-b900-108ccb1cab86","","null","
                <div class=""stimulus-container"">
                    <img src=""images/schematic_sequence/restaurant_scheme/restaurant_scheme_6.png"" class=""exp-image"">
                    <div class=""question-area""></div> 
                </div>","null","","","","","","","","",""
"","","","","","html-button-response","154","570540","0.0-154.0","340CDEF02F914686BADA14F1F83EDC5F","019cf0a4-3908-72a8-b927-cc5285bdf562","019cf037-5203-781a-b900-108ccb1cab86","","1649","
                <div class=""stimulus-container"">
                    <img src=""images/schematic_sequence/restaurant_scheme/restaurant_scheme_6.png"" class=""exp-image"">
                    <div class=""question-area"">
                        <p style=""font-size: 20px; font-weight: bold; margin: 0;"">Is there a person in this image?</p>
                    </div>
                </div>","1","main_experiment_trial","6","restaurant_scheme","schematic_sequence","","","","",""
"","","","","","html-keyboard-response","155","575542","0.0-155.0","340CDEF02F914686BADA14F1F83EDC5F","019cf0a4-3908-72a8-b927-cc5285bdf562","019cf037-5203-781a-b900-108ccb1cab86","","null","
                <div class=""stimulus-container"">
                    <img src=""images/schematic_sequence/restaurant_scheme/restaurant_scheme_7.png"" class=""exp-image"">
                    <div class=""question-area""></div> 
                </div>","null","","","","","","","","",""
"","","","","","html-button-response","156","576225","0.0-156.0","340CDEF02F914686BADA14F1F83EDC5F","019cf0a4-3908-72a8-b927-cc5285bdf562","019cf037-5203-781a-b900-108ccb1cab86","","682","
                <div class=""stimulus-container"">
                    <img src=""images/schematic_sequence/restaurant_scheme/restaurant_scheme_7.png"" class=""exp-image"">
                    <div class=""question-area"">
                        <p style=""font-size: 20px; font-weight: bold; margin: 0;"">Is there a person in this image?</p>
                    </div>
                </div>","1","main_experiment_trial","7","restaurant_scheme","schematic_sequence","","","","",""
"","","","","","html-keyboard-response","157","581228","0.0-157.0","340CDEF02F914686BADA14F1F83EDC5F","019cf0a4-3908-72a8-b927-cc5285bdf562","019cf037-5203-781a-b900-108ccb1cab86","","null","
                <div class=""stimulus-container"">
                    <img src=""images/schematic_sequence/restaurant_scheme/restaurant_scheme_8.png"" class=""exp-image"">
                    <div class=""question-area""></div> 
                </div>","null","","","","","","","","",""
"","","","","","html-button-response","158","582491","0.0-158.0","340CDEF02F914686BADA14F1F83EDC5F","019cf0a4-3908-72a8-b927-cc5285bdf562","019cf037-5203-781a-b900-108ccb1cab86","","1262","
                <div class=""stimulus-container"">
                    <img src=""images/schematic_sequence/restaurant_scheme/restaurant_scheme_8.png"" class=""exp-image"">
                    <div class=""question-area"">
                        <p style=""font-size: 20px; font-weight: bold; margin: 0;"">Is there a person in this image?</p>
                    </div>
                </div>","1","main_experiment_trial","8","restaurant_scheme","schematic_sequence","","","","",""
"","","","","","html-keyboard-response","159","587493","0.0-159.0","340CDEF02F914686BADA14F1F83EDC5F","019cf0a4-3908-72a8-b927-cc5285bdf562","019cf037-5203-781a-b900-108ccb1cab86","","null","
                <div class=""stimulus-container"">
                    <img src=""images/schematic_sequence/restaurant_scheme/restaurant_scheme_9.png"" class=""exp-image"">
                    <div class=""question-area""></div> 
                </div>","null","","","","","","","","",""
"","","","","","html-button-response","160","590496","0.0-160.0","340CDEF02F914686BADA14F1F83EDC5F","019cf0a4-3908-72a8-b927-cc5285bdf562","019cf037-5203-781a-b900-108ccb1cab86","","null","
                <div class=""stimulus-container"">
                    <img src=""images/schematic_sequence/restaurant_scheme/restaurant_scheme_9.png"" class=""exp-image"">
                    <div class=""question-area"">
                        <p style=""font-size: 20px; font-weight: bold; margin: 0;"">Is there a person in this image?</p>
                    </div>
                </div>","null","main_experiment_trial","9","restaurant_scheme","schematic_sequence","","","","",""
"","","","","","html-keyboard-response","161","595499","0.0-161.0","340CDEF02F914686BADA14F1F83EDC5F","019cf0a4-3908-72a8-b927-cc5285bdf562","019cf037-5203-781a-b900-108ccb1cab86","","null","
                <div class=""stimulus-container"">
                    <img src=""images/schematic_sequence/restaurant_scheme/restaurant_scheme_ten.png"" class=""exp-image"">
                    <div class=""question-area""></div> 
                </div>","null","","","","","","","","",""
"","","","","","html-button-response","162","596086","0.0-162.0","340CDEF02F914686BADA14F1F83EDC5F","019cf0a4-3908-72a8-b927-cc5285bdf562","019cf037-5203-781a-b900-108ccb1cab86","","586","
                <div class=""stimulus-container"">
                    <img src=""images/schematic_sequence/restaurant_scheme/restaurant_scheme_ten.png"" class=""exp-image"">
                    <div class=""question-area"">
                        <p style=""font-size: 20px; font-weight: bold; margin: 0;"">Is there a person in this image?</p>
                    </div>
                </div>","0","main_experiment_trial","ten","restaurant_scheme","schematic_sequence","","","","",""
"","","","","","html-keyboard-response","163","597088","0.0-163.0","340CDEF02F914686BADA14F1F83EDC5F","019cf0a4-3908-72a8-b927-cc5285bdf562","019cf037-5203-781a-b900-108ccb1cab86","","null","<div style=""background-color: white; width: 100vw; height: 100vh;""></div>","null","","","","","","","","",""
"","","","","","html-keyboard-response","164","602091","0.0-164.0","340CDEF02F914686BADA14F1F83EDC5F","019cf0a4-3908-72a8-b927-cc5285bdf562","019cf037-5203-781a-b900-108ccb1cab86","","null","
                <div class=""stimulus-container"">
                    <img src=""images/causal_sequence/package_causal/package_causal_1.png"" class=""exp-image"">
                    <div class=""question-area""></div> 
                </div>","null","","","","","","","","",""
"","","","","","html-button-response","165","602676","0.0-165.0","340CDEF02F914686BADA14F1F83EDC5F","019cf0a4-3908-72a8-b927-cc5285bdf562","019cf037-5203-781a-b900-108ccb1cab86","","584","
                <div class=""stimulus-container"">
                    <img src=""images/causal_sequence/package_causal/package_causal_1.png"" class=""exp-image"">
                    <div class=""question-area"">
                        <p style=""font-size: 20px; font-weight: bold; margin: 0;"">Is there a person in this image?</p>
                    </div>
                </div>","0","main_experiment_trial","1","package_causal","causal_sequence","","","","",""
"","","","","","html-keyboard-response","166","607677","0.0-166.0","340CDEF02F914686BADA14F1F83EDC5F","019cf0a4-3908-72a8-b927-cc5285bdf562","019cf037-5203-781a-b900-108ccb1cab86","","null","
                <div class=""stimulus-container"">
                    <img src=""images/causal_sequence/package_causal/package_causal_2.png"" class=""exp-image"">
                    <div class=""question-area""></div> 
                </div>","null","","","","","","","","",""
"","","","","","html-button-response","167","608366","0.0-167.0","340CDEF02F914686BADA14F1F83EDC5F","019cf0a4-3908-72a8-b927-cc5285bdf562","019cf037-5203-781a-b900-108ccb1cab86","","687","
                <div class=""stimulus-container"">
                    <img src=""images/causal_sequence/package_causal/package_causal_2.png"" class=""exp-image"">
                    <div class=""question-area"">
                        <p style=""font-size: 20px; font-weight: bold; margin: 0;"">Is there a person in this image?</p>
                    </div>
                </div>","0","main_experiment_trial","2","package_causal","causal_sequence","","","","",""
"","","","","","html-keyboard-response","168","613368","0.0-168.0","340CDEF02F914686BADA14F1F83EDC5F","019cf0a4-3908-72a8-b927-cc5285bdf562","019cf037-5203-781a-b900-108ccb1cab86","","null","
                <div class=""stimulus-container"">
                    <img src=""images/causal_sequence/package_causal/package_causal_3.png"" class=""exp-image"">
                    <div class=""question-area""></div> 
                </div>","null","","","","","","","","",""
"","","","","","html-button-response","169","614352","0.0-169.0","340CDEF02F914686BADA14F1F83EDC5F","019cf0a4-3908-72a8-b927-cc5285bdf562","019cf037-5203-781a-b900-108ccb1cab86","","982","
                <div class=""stimulus-container"">
                    <img src=""images/causal_sequence/package_causal/package_causal_3.png"" class=""exp-image"">
                    <div class=""question-area"">
                        <p style=""font-size: 20px; font-weight: bold; margin: 0;"">Is there a person in this image?</p>
                    </div>
                </div>","0","main_experiment_trial","3","package_causal","causal_sequence","","","","",""
"","","","","","html-keyboard-response","170","619355","0.0-170.0","340CDEF02F914686BADA14F1F83EDC5F","019cf0a4-3908-72a8-b927-cc5285bdf562","019cf037-5203-781a-b900-108ccb1cab86","","null","
                <div class=""stimulus-container"">
                    <img src=""images/causal_sequence/package_causal/package_causal_4.png"" class=""exp-image"">
                    <div class=""question-area""></div> 
                </div>","null","","","","","","","","",""
"","","","","","html-button-response","171","620487","0.0-171.0","340CDEF02F914686BADA14F1F83EDC5F","019cf0a4-3908-72a8-b927-cc5285bdf562","019cf037-5203-781a-b900-108ccb1cab86","","1131","
                <div class=""stimulus-container"">
                    <img src=""images/causal_sequence/package_causal/package_causal_4.png"" class=""exp-image"">
                    <div class=""question-area"">
                        <p style=""font-size: 20px; font-weight: bold; margin: 0;"">Is there a person in this image?</p>
                    </div>
                </div>","1","main_experiment_trial","4","package_causal","causal_sequence","","","","",""
"","","","","","html-keyboard-response","172","625488","0.0-172.0","340CDEF02F914686BADA14F1F83EDC5F","019cf0a4-3908-72a8-b927-cc5285bdf562","019cf037-5203-781a-b900-108ccb1cab86","","null","
                <div class=""stimulus-container"">
                    <img src=""images/causal_sequence/package_causal/package_causal_5.png"" class=""exp-image"">
                    <div class=""question-area""></div> 
                </div>","null","","","","","","","","",""
"","","","","","html-button-response","173","626727","0.0-173.0","340CDEF02F914686BADA14F1F83EDC5F","019cf0a4-3908-72a8-b927-cc5285bdf562","019cf037-5203-781a-b900-108ccb1cab86","","1237","
                <div class=""stimulus-container"">
                    <img src=""images/causal_sequence/package_causal/package_causal_5.png"" class=""exp-image"">
                    <div class=""question-area"">
                        <p style=""font-size: 20px; font-weight: bold; margin: 0;"">Is there a person in this image?</p>
                    </div>
                </div>","0","main_experiment_trial","5","package_causal","causal_sequence","","","","",""
"","","","","","html-keyboard-response","174","631730","0.0-174.0","340CDEF02F914686BADA14F1F83EDC5F","019cf0a4-3908-72a8-b927-cc5285bdf562","019cf037-5203-781a-b900-108ccb1cab86","","null","
                <div class=""stimulus-container"">
                    <img src=""images/causal_sequence/package_causal/package_causal_6.png"" class=""exp-image"">
                    <div class=""question-area""></div> 
                </div>","null","","","","","","","","",""
"","","","","","html-button-response","175","634734","0.0-175.0","340CDEF02F914686BADA14F1F83EDC5F","019cf0a4-3908-72a8-b927-cc5285bdf562","019cf037-5203-781a-b900-108ccb1cab86","","null","
                <div class=""stimulus-container"">
                    <img src=""images/causal_sequence/package_causal/package_causal_6.png"" class=""exp-image"">
                    <div class=""question-area"">
                        <p style=""font-size: 20px; font-weight: bold; margin: 0;"">Is there a person in this image?</p>
                    </div>
                </div>","null","main_experiment_trial","6","package_causal","causal_sequence","","","","",""
"","","","","","html-keyboard-response","176","639736","0.0-176.0","340CDEF02F914686BADA14F1F83EDC5F","019cf0a4-3908-72a8-b927-cc5285bdf562","019cf037-5203-781a-b900-108ccb1cab86","","null","
                <div class=""stimulus-container"">
                    <img src=""images/causal_sequence/package_causal/package_causal_7.png"" class=""exp-image"">
                    <div class=""question-area""></div> 
                </div>","null","","","","","","","","",""
"","","","","","html-button-response","177","640991","0.0-177.0","340CDEF02F914686BADA14F1F83EDC5F","019cf0a4-3908-72a8-b927-cc5285bdf562","019cf037-5203-781a-b900-108ccb1cab86","","1253","
                <div class=""stimulus-container"">
                    <img src=""images/causal_sequence/package_causal/package_causal_7.png"" class=""exp-image"">
                    <div class=""question-area"">
                        <p style=""font-size: 20px; font-weight: bold; margin: 0;"">Is there a person in this image?</p>
                    </div>
                </div>","0","main_experiment_trial","7","package_causal","causal_sequence","","","","",""
"","","","","","html-keyboard-response","178","645994","0.0-178.0","340CDEF02F914686BADA14F1F83EDC5F","019cf0a4-3908-72a8-b927-cc5285bdf562","019cf037-5203-781a-b900-108ccb1cab86","","null","
                <div class=""stimulus-container"">
                    <img src=""images/causal_sequence/package_causal/package_causal_8.png"" class=""exp-image"">
                    <div class=""question-area""></div> 
                </div>","null","","","","","","","","",""
"","","","","","html-button-response","179","647432","0.0-179.0","340CDEF02F914686BADA14F1F83EDC5F","019cf0a4-3908-72a8-b927-cc5285bdf562","019cf037-5203-781a-b900-108ccb1cab86","","1437","
                <div class=""stimulus-container"">
                    <img src=""images/causal_sequence/package_causal/package_causal_8.png"" class=""exp-image"">
                    <div class=""question-area"">
                        <p style=""font-size: 20px; font-weight: bold; margin: 0;"">Is there a person in this image?</p>
                    </div>
                </div>","0","main_experiment_trial","8","package_causal","causal_sequence","","","","",""
"","","","","","html-keyboard-response","180","652435","0.0-180.0","340CDEF02F914686BADA14F1F83EDC5F","019cf0a4-3908-72a8-b927-cc5285bdf562","019cf037-5203-781a-b900-108ccb1cab86","","null","
                <div class=""stimulus-container"">
                    <img src=""images/causal_sequence/package_causal/package_causal_9.png"" class=""exp-image"">
                    <div class=""question-area""></div> 
                </div>","null","","","","","","","","",""
"","","","","","html-button-response","181","653162","0.0-181.0","340CDEF02F914686BADA14F1F83EDC5F","019cf0a4-3908-72a8-b927-cc5285bdf562","019cf037-5203-781a-b900-108ccb1cab86","","725","
                <div class=""stimulus-container"">
                    <img src=""images/causal_sequence/package_causal/package_causal_9.png"" class=""exp-image"">
                    <div class=""question-area"">
                        <p style=""font-size: 20px; font-weight: bold; margin: 0;"">Is there a person in this image?</p>
                    </div>
                </div>","0","main_experiment_trial","9","package_causal","causal_sequence","","","","",""
"","","","","","html-keyboard-response","182","658165","0.0-182.0","340CDEF02F914686BADA14F1F83EDC5F","019cf0a4-3908-72a8-b927-cc5285bdf562","019cf037-5203-781a-b900-108ccb1cab86","","null","
                <div class=""stimulus-container"">
                    <img src=""images/causal_sequence/package_causal/package_causal_ten.png"" class=""exp-image"">
                    <div class=""question-area""></div> 
                </div>","null","","","","","","","","",""
"","","","","","html-button-response","183","659364","0.0-183.0","340CDEF02F914686BADA14F1F83EDC5F","019cf0a4-3908-72a8-b927-cc5285bdf562","019cf037-5203-781a-b900-108ccb1cab86","","1197","
                <div class=""stimulus-container"">
                    <img src=""images/causal_sequence/package_causal/package_causal_ten.png"" class=""exp-image"">
                    <div class=""question-area"">
                        <p style=""font-size: 20px; font-weight: bold; margin: 0;"">Is there a person in this image?</p>
                    </div>
                </div>","0","main_experiment_trial","ten","package_causal","causal_sequence","","","","",""
"","","","","","html-keyboard-response","184","660366","0.0-184.0","340CDEF02F914686BADA14F1F83EDC5F","019cf0a4-3908-72a8-b927-cc5285bdf562","019cf037-5203-781a-b900-108ccb1cab86","","null","<div style=""background-color: white; width: 100vw; height: 100vh;""></div>","null","","","","","","","","",""
"","","","","","html-keyboard-response","185","665369","0.0-185.0","340CDEF02F914686BADA14F1F83EDC5F","019cf0a4-3908-72a8-b927-cc5285bdf562","019cf037-5203-781a-b900-108ccb1cab86","","null","
