"success","timeout","failed_images","failed_audio","failed_video","trial_type","trial_index","time_elapsed","internal_node_id","subject_id","study_id","session_id","view_history","rt","stimulus","response","task","image_index","folder","sequence_type","valuable_image_index","reward_type","correct_choice","chosen_image_index","target_X"
"true","false","[]","[]","[]","preload","0","10580","0.0-0.0","F0E86DE3F75D4187B8B5A154AEF7C6EB","019cf4d7-6063-77f1-9050-a8ad94358d67","019cf4c8-1de8-79ec-b3bd-d98520647593","","","","","","","","","","","","",""
"","","","","","instructions","1","16971","0.0-1.0","F0E86DE3F75D4187B8B5A154AEF7C6EB","019cf4d7-6063-77f1-9050-a8ad94358d67","019cf4c8-1de8-79ec-b3bd-d98520647593","[{""page_index"":0,""viewing_time"":6388}]","6389","","","","","","","","","","",""
"","","","","","instructions","2","20959","0.0-2.0","F0E86DE3F75D4187B8B5A154AEF7C6EB","019cf4d7-6063-77f1-9050-a8ad94358d67","019cf4c8-1de8-79ec-b3bd-d98520647593","[{""page_index"":0,""viewing_time"":3986}]","3986","","","","","","","","","","",""
"true","","","","","fullscreen","3","23220","0.0-3.0","F0E86DE3F75D4187B8B5A154AEF7C6EB","019cf4d7-6063-77f1-9050-a8ad94358d67","019cf4c8-1de8-79ec-b3bd-d98520647593","","1242","","","","","","","","","","",""
"","","","","","instructions","4","36430","0.0-4.0","F0E86DE3F75D4187B8B5A154AEF7C6EB","019cf4d7-6063-77f1-9050-a8ad94358d67","019cf4c8-1de8-79ec-b3bd-d98520647593","[{""page_index"":0,""viewing_time"":13209}]","13210","","","","","","","","","","",""
"","","","","","instructions","5","45064","0.0-5.0","F0E86DE3F75D4187B8B5A154AEF7C6EB","019cf4d7-6063-77f1-9050-a8ad94358d67","019cf4c8-1de8-79ec-b3bd-d98520647593","[{""page_index"":0,""viewing_time"":8632}]","8633","","","","","","","","","","",""
"","","","","","html-keyboard-response","6","49065","0.0-6.0","F0E86DE3F75D4187B8B5A154AEF7C6EB","019cf4d7-6063-77f1-9050-a8ad94358d67","019cf4c8-1de8-79ec-b3bd-d98520647593","","null","
                <div class=""stimulus-container"">
                    <img src=""images/instructions/movie_1.png"" class=""exp-image"">
                    <div class=""question-area""></div> 
                </div>","null","","","","","","","","",""
"","","","","","html-button-response","7","50681","0.0-7.0","F0E86DE3F75D4187B8B5A154AEF7C6EB","019cf4d7-6063-77f1-9050-a8ad94358d67","019cf4c8-1de8-79ec-b3bd-d98520647593","","1614","
                <div class=""stimulus-container"">
                    <img src=""images/instructions/movie_1.png"" class=""exp-image"">
                    <div class=""question-area"">
                        <p style=""font-size: 20px; font-weight: bold; margin: 0;"">Was there a person in this image?</p>
                    </div>
                </div>","0","example_question","1","","","","","","",""
"","","","","","html-keyboard-response","8","54689","0.0-8.0","F0E86DE3F75D4187B8B5A154AEF7C6EB","019cf4d7-6063-77f1-9050-a8ad94358d67","019cf4c8-1de8-79ec-b3bd-d98520647593","","null","
                <div class=""stimulus-container"">
                    <img src=""images/instructions/movie_2.png"" class=""exp-image"">
                    <div class=""question-area""></div> 
                </div>","null","","","","","","","","",""
"","","","","","html-button-response","9","55774","0.0-9.0","F0E86DE3F75D4187B8B5A154AEF7C6EB","019cf4d7-6063-77f1-9050-a8ad94358d67","019cf4c8-1de8-79ec-b3bd-d98520647593","","1084","
                <div class=""stimulus-container"">
                    <img src=""images/instructions/movie_2.png"" class=""exp-image"">
                    <div class=""question-area"">
                        <p style=""font-size: 20px; font-weight: bold; margin: 0;"">Was there a person in this image?</p>
                    </div>
                </div>","0","example_question","2","","","","","","",""
"","","","","","html-keyboard-response","10","59783","0.0-10.0","F0E86DE3F75D4187B8B5A154AEF7C6EB","019cf4d7-6063-77f1-9050-a8ad94358d67","019cf4c8-1de8-79ec-b3bd-d98520647593","","null","
                <div class=""stimulus-container"">
                    <img src=""images/instructions/movie_3.png"" class=""exp-image"">
                    <div class=""question-area""></div> 
                </div>","null","","","","","","","","",""
"","","","","","html-button-response","11","60483","0.0-11.0","F0E86DE3F75D4187B8B5A154AEF7C6EB","019cf4d7-6063-77f1-9050-a8ad94358d67","019cf4c8-1de8-79ec-b3bd-d98520647593","","699","
                <div class=""stimulus-container"">
                    <img src=""images/instructions/movie_3.png"" class=""exp-image"">
                    <div class=""question-area"">
                        <p style=""font-size: 20px; font-weight: bold; margin: 0;"">Was there a person in this image?</p>
                    </div>
                </div>","0","example_question","3","","","","","","",""
"","","","","","html-keyboard-response","12","64485","0.0-12.0","F0E86DE3F75D4187B8B5A154AEF7C6EB","019cf4d7-6063-77f1-9050-a8ad94358d67","019cf4c8-1de8-79ec-b3bd-d98520647593","","null","
                <div class=""stimulus-container"">
                    <img src=""images/instructions/movie_4.png"" class=""exp-image"">
                    <div class=""question-area""></div> 
                </div>","null","","","","","","","","",""
"","","","","","html-button-response","13","65117","0.0-13.0","F0E86DE3F75D4187B8B5A154AEF7C6EB","019cf4d7-6063-77f1-9050-a8ad94358d67","019cf4c8-1de8-79ec-b3bd-d98520647593","","631","
                <div class=""stimulus-container"">
                    <img src=""images/instructions/movie_4.png"" class=""exp-image"">
                    <div class=""question-area"">
                        <p style=""font-size: 20px; font-weight: bold; margin: 0;"">Was there a person in this image?</p>
                    </div>
                </div>","0","example_question","4","","","","","","",""
"","","","","","instructions","14","66561","0.0-14.0","F0E86DE3F75D4187B8B5A154AEF7C6EB","019cf4d7-6063-77f1-9050-a8ad94358d67","019cf4c8-1de8-79ec-b3bd-d98520647593","[{""page_index"":0,""viewing_time"":1443}]","1443","","","","","","","","","","",""
"","","","","","instructions","15","71404","0.0-15.0","F0E86DE3F75D4187B8B5A154AEF7C6EB","019cf4d7-6063-77f1-9050-a8ad94358d67","019cf4c8-1de8-79ec-b3bd-d98520647593","[{""page_index"":0,""viewing_time"":4842}]","4842","","","","","","","","","","",""
"","","","","","html-keyboard-response","16","72410","0.0-16.0","F0E86DE3F75D4187B8B5A154AEF7C6EB","019cf4d7-6063-77f1-9050-a8ad94358d67","019cf4c8-1de8-79ec-b3bd-d98520647593","","null","<div style=""background-color: white; width: 100vw; height: 100vh;""></div>","null","","","","","","","","",""
"","","","","","html-keyboard-response","17","77412","0.0-17.0","F0E86DE3F75D4187B8B5A154AEF7C6EB","019cf4d7-6063-77f1-9050-a8ad94358d67","019cf4c8-1de8-79ec-b3bd-d98520647593","","null","
                <div class=""stimulus-container"">
                    <img src=""images/schematic_sequence/dinner_party_scheme/dinner_party_scheme_1.png"" class=""exp-image"">
                    <div class=""question-area""></div> 
                </div>","null","","","","","","","","",""
"","","","","","html-button-response","18","78358","0.0-18.0","F0E86DE3F75D4187B8B5A154AEF7C6EB","019cf4d7-6063-77f1-9050-a8ad94358d67","019cf4c8-1de8-79ec-b3bd-d98520647593","","944","
                <div class=""stimulus-container"">
                    <img src=""images/schematic_sequence/dinner_party_scheme/dinner_party_scheme_1.png"" class=""exp-image"">
                    <div class=""question-area"">
                        <p style=""font-size: 20px; font-weight: bold; margin: 0;"">Is there a person in this image?</p>
                    </div>
                </div>","0","main_experiment_trial","1","dinner_party_scheme","schematic_sequence","","","","",""
"","","","","","html-keyboard-response","19","83362","0.0-19.0","F0E86DE3F75D4187B8B5A154AEF7C6EB","019cf4d7-6063-77f1-9050-a8ad94358d67","019cf4c8-1de8-79ec-b3bd-d98520647593","","null","
                <div class=""stimulus-container"">
                    <img src=""images/schematic_sequence/dinner_party_scheme/dinner_party_scheme_2.png"" class=""exp-image"">
                    <div class=""question-area""></div> 
                </div>","null","","","","","","","","",""
"","","","","","html-button-response","20","84185","0.0-20.0","F0E86DE3F75D4187B8B5A154AEF7C6EB","019cf4d7-6063-77f1-9050-a8ad94358d67","019cf4c8-1de8-79ec-b3bd-d98520647593","","821","
                <div class=""stimulus-container"">
                    <img src=""images/schematic_sequence/dinner_party_scheme/dinner_party_scheme_2.png"" class=""exp-image"">
                    <div class=""question-area"">
                        <p style=""font-size: 20px; font-weight: bold; margin: 0;"">Is there a person in this image?</p>
                    </div>
                </div>","0","main_experiment_trial","2","dinner_party_scheme","schematic_sequence","","","","",""
"","","","","","html-keyboard-response","21","89189","0.0-21.0","F0E86DE3F75D4187B8B5A154AEF7C6EB","019cf4d7-6063-77f1-9050-a8ad94358d67","019cf4c8-1de8-79ec-b3bd-d98520647593","","null","
                <div class=""stimulus-container"">
                    <img src=""images/schematic_sequence/dinner_party_scheme/dinner_party_scheme_3.png"" class=""exp-image"">
                    <div class=""question-area""></div> 
                </div>","null","","","","","","","","",""
"","","","","","html-button-response","22","89914","0.0-22.0","F0E86DE3F75D4187B8B5A154AEF7C6EB","019cf4d7-6063-77f1-9050-a8ad94358d67","019cf4c8-1de8-79ec-b3bd-d98520647593","","724","
                <div class=""stimulus-container"">
                    <img src=""images/schematic_sequence/dinner_party_scheme/dinner_party_scheme_3.png"" class=""exp-image"">
                    <div class=""question-area"">
                        <p style=""font-size: 20px; font-weight: bold; margin: 0;"">Is there a person in this image?</p>
                    </div>
                </div>","0","main_experiment_trial","3","dinner_party_scheme","schematic_sequence","","","","",""
"","","","","","html-keyboard-response","23","94922","0.0-23.0","F0E86DE3F75D4187B8B5A154AEF7C6EB","019cf4d7-6063-77f1-9050-a8ad94358d67","019cf4c8-1de8-79ec-b3bd-d98520647593","","null","
                <div class=""stimulus-container"">
                    <img src=""images/schematic_sequence/dinner_party_scheme/dinner_party_scheme_4.png"" class=""exp-image"">
                    <div class=""question-area""></div> 
                </div>","null","","","","","","","","",""
"","","","","","html-button-response","24","95763","0.0-24.0","F0E86DE3F75D4187B8B5A154AEF7C6EB","019cf4d7-6063-77f1-9050-a8ad94358d67","019cf4c8-1de8-79ec-b3bd-d98520647593","","840","
                <div class=""stimulus-container"">
                    <img src=""images/schematic_sequence/dinner_party_scheme/dinner_party_scheme_4.png"" class=""exp-image"">
                    <div class=""question-area"">
                        <p style=""font-size: 20px; font-weight: bold; margin: 0;"">Is there a person in this image?</p>
                    </div>
                </div>","0","main_experiment_trial","4","dinner_party_scheme","schematic_sequence","","","","",""
"","","","","","html-keyboard-response","25","100780","0.0-25.0","F0E86DE3F75D4187B8B5A154AEF7C6EB","019cf4d7-6063-77f1-9050-a8ad94358d67","019cf4c8-1de8-79ec-b3bd-d98520647593","","null","
                <div class=""stimulus-container"">
                    <img src=""images/schematic_sequence/dinner_party_scheme/dinner_party_scheme_5.png"" class=""exp-image"">
                    <div class=""question-area""></div> 
                </div>","null","","","","","","","","",""
"","","","","","html-button-response","26","101463","0.0-26.0","F0E86DE3F75D4187B8B5A154AEF7C6EB","019cf4d7-6063-77f1-9050-a8ad94358d67","019cf4c8-1de8-79ec-b3bd-d98520647593","","682","
                <div class=""stimulus-container"">
                    <img src=""images/schematic_sequence/dinner_party_scheme/dinner_party_scheme_5.png"" class=""exp-image"">
                    <div class=""question-area"">
                        <p style=""font-size: 20px; font-weight: bold; margin: 0;"">Is there a person in this image?</p>
                    </div>
                </div>","0","main_experiment_trial","5","dinner_party_scheme","schematic_sequence","","","","",""
"","","","","","html-keyboard-response","27","106473","0.0-27.0","F0E86DE3F75D4187B8B5A154AEF7C6EB","019cf4d7-6063-77f1-9050-a8ad94358d67","019cf4c8-1de8-79ec-b3bd-d98520647593","","null","
                <div class=""stimulus-container"">
                    <img src=""images/schematic_sequence/dinner_party_scheme/dinner_party_scheme_6.png"" class=""exp-image"">
                    <div class=""question-area""></div> 
                </div>","null","","","","","","","","",""
"","","","","","html-button-response","28","107247","0.0-28.0","F0E86DE3F75D4187B8B5A154AEF7C6EB","019cf4d7-6063-77f1-9050-a8ad94358d67","019cf4c8-1de8-79ec-b3bd-d98520647593","","772","
                <div class=""stimulus-container"">
                    <img src=""images/schematic_sequence/dinner_party_scheme/dinner_party_scheme_6.png"" class=""exp-image"">
                    <div class=""question-area"">
                        <p style=""font-size: 20px; font-weight: bold; margin: 0;"">Is there a person in this image?</p>
                    </div>
                </div>","0","main_experiment_trial","6","dinner_party_scheme","schematic_sequence","","","","",""
"","","","","","html-keyboard-response","29","112258","0.0-29.0","F0E86DE3F75D4187B8B5A154AEF7C6EB","019cf4d7-6063-77f1-9050-a8ad94358d67","019cf4c8-1de8-79ec-b3bd-d98520647593","","null","
                <div class=""stimulus-container"">
                    <img src=""images/schematic_sequence/dinner_party_scheme/dinner_party_scheme_7.png"" class=""exp-image"">
                    <div class=""question-area""></div> 
                </div>","null","","","","","","","","",""
"","","","","","html-button-response","30","112898","0.0-30.0","F0E86DE3F75D4187B8B5A154AEF7C6EB","019cf4d7-6063-77f1-9050-a8ad94358d67","019cf4c8-1de8-79ec-b3bd-d98520647593","","639","
                <div class=""stimulus-container"">
                    <img src=""images/schematic_sequence/dinner_party_scheme/dinner_party_scheme_7.png"" class=""exp-image"">
                    <div class=""question-area"">
                        <p style=""font-size: 20px; font-weight: bold; margin: 0;"">Is there a person in this image?</p>
                    </div>
                </div>","0","main_experiment_trial","7","dinner_party_scheme","schematic_sequence","","","","",""
"","","","","","html-keyboard-response","31","117901","0.0-31.0","F0E86DE3F75D4187B8B5A154AEF7C6EB","019cf4d7-6063-77f1-9050-a8ad94358d67","019cf4c8-1de8-79ec-b3bd-d98520647593","","null","
                <div class=""stimulus-container"">
                    <img src=""images/schematic_sequence/dinner_party_scheme/dinner_party_scheme_8.png"" class=""exp-image"">
                    <div class=""question-area""></div> 
                </div>","null","","","","","","","","",""
"","","","","","html-button-response","32","118712","0.0-32.0","F0E86DE3F75D4187B8B5A154AEF7C6EB","019cf4d7-6063-77f1-9050-a8ad94358d67","019cf4c8-1de8-79ec-b3bd-d98520647593","","810","
                <div class=""stimulus-container"">
                    <img src=""images/schematic_sequence/dinner_party_scheme/dinner_party_scheme_8.png"" class=""exp-image"">
                    <div class=""question-area"">
                        <p style=""font-size: 20px; font-weight: bold; margin: 0;"">Is there a person in this image?</p>
                    </div>
                </div>","0","main_experiment_trial","8","dinner_party_scheme","schematic_sequence","","","","",""
"","","","","","html-keyboard-response","33","123727","0.0-33.0","F0E86DE3F75D4187B8B5A154AEF7C6EB","019cf4d7-6063-77f1-9050-a8ad94358d67","019cf4c8-1de8-79ec-b3bd-d98520647593","","null","
                <div class=""stimulus-container"">
                    <img src=""images/schematic_sequence/dinner_party_scheme/dinner_party_scheme_9.png"" class=""exp-image"">
                    <div class=""question-area""></div> 
                </div>","null","","","","","","","","",""
"","","","","","html-button-response","34","124363","0.0-34.0","F0E86DE3F75D4187B8B5A154AEF7C6EB","019cf4d7-6063-77f1-9050-a8ad94358d67","019cf4c8-1de8-79ec-b3bd-d98520647593","","634","
                <div class=""stimulus-container"">
                    <img src=""images/schematic_sequence/dinner_party_scheme/dinner_party_scheme_9.png"" class=""exp-image"">
                    <div class=""question-area"">
                        <p style=""font-size: 20px; font-weight: bold; margin: 0;"">Is there a person in this image?</p>
                    </div>
                </div>","0","main_experiment_trial","9","dinner_party_scheme","schematic_sequence","","","","",""
"","","","","","html-keyboard-response","35","129369","0.0-35.0","F0E86DE3F75D4187B8B5A154AEF7C6EB","019cf4d7-6063-77f1-9050-a8ad94358d67","019cf4c8-1de8-79ec-b3bd-d98520647593","","null","
                <div class=""stimulus-container"">
                    <img src=""images/schematic_sequence/dinner_party_scheme/dinner_party_scheme_ten.png"" class=""exp-image"">
                    <div class=""question-area""></div> 
                </div>","null","","","","","","","","",""
"","","","","","html-button-response","36","130116","0.0-36.0","F0E86DE3F75D4187B8B5A154AEF7C6EB","019cf4d7-6063-77f1-9050-a8ad94358d67","019cf4c8-1de8-79ec-b3bd-d98520647593","","745","
                <div class=""stimulus-container"">
                    <img src=""images/schematic_sequence/dinner_party_scheme/dinner_party_scheme_ten.png"" class=""exp-image"">
                    <div class=""question-area"">
                        <p style=""font-size: 20px; font-weight: bold; margin: 0;"">Is there a person in this image?</p>
                    </div>
                </div>","0","main_experiment_trial","ten","dinner_party_scheme","schematic_sequence","","","","",""
"","","","","","html-keyboard-response","37","131127","0.0-37.0","F0E86DE3F75D4187B8B5A154AEF7C6EB","019cf4d7-6063-77f1-9050-a8ad94358d67","019cf4c8-1de8-79ec-b3bd-d98520647593","","null","<div style=""background-color: white; width: 100vw; height: 100vh;""></div>","null","","","","","","","","",""
"","","","","","html-keyboard-response","38","136134","0.0-38.0","F0E86DE3F75D4187B8B5A154AEF7C6EB","019cf4d7-6063-77f1-9050-a8ad94358d67","019cf4c8-1de8-79ec-b3bd-d98520647593","","null","
                <div class=""stimulus-container"">
                    <img src=""images/causal_sequence/the_performance_causal/the_performance_causal_1.png"" class=""exp-image"">
                    <div class=""question-area""></div> 
                </div>","null","","","","","","","","",""
"","","","","","html-button-response","39","137271","0.0-39.0","F0E86DE3F75D4187B8B5A154AEF7C6EB","019cf4d7-6063-77f1-9050-a8ad94358d67","019cf4c8-1de8-79ec-b3bd-d98520647593","","1135","
                <div class=""stimulus-container"">
                    <img src=""images/causal_sequence/the_performance_causal/the_performance_causal_1.png"" class=""exp-image"">
                    <div class=""question-area"">
                        <p style=""font-size: 20px; font-weight: bold; margin: 0;"">Is there a person in this image?</p>
                    </div>
                </div>","0","main_experiment_trial","1","the_performance_causal","causal_sequence","","","","",""
"","","","","","html-keyboard-response","40","142282","0.0-40.0","F0E86DE3F75D4187B8B5A154AEF7C6EB","019cf4d7-6063-77f1-9050-a8ad94358d67","019cf4c8-1de8-79ec-b3bd-d98520647593","","null","
                <div class=""stimulus-container"">
                    <img src=""images/causal_sequence/the_performance_causal/the_performance_causal_2.png"" class=""exp-image"">
                    <div class=""question-area""></div> 
                </div>","null","","","","","","","","",""
"","","","","","html-button-response","41","143470","0.0-41.0","F0E86DE3F75D4187B8B5A154AEF7C6EB","019cf4d7-6063-77f1-9050-a8ad94358d67","019cf4c8-1de8-79ec-b3bd-d98520647593","","1186","
                <div class=""stimulus-container"">
                    <img src=""images/causal_sequence/the_performance_causal/the_performance_causal_2.png"" class=""exp-image"">
                    <div class=""question-area"">
                        <p style=""font-size: 20px; font-weight: bold; margin: 0;"">Is there a person in this image?</p>
                    </div>
                </div>","0","main_experiment_trial","2","the_performance_causal","causal_sequence","","","","",""
"","","","","","html-keyboard-response","42","148479","0.0-42.0","F0E86DE3F75D4187B8B5A154AEF7C6EB","019cf4d7-6063-77f1-9050-a8ad94358d67","019cf4c8-1de8-79ec-b3bd-d98520647593","","null","
                <div class=""stimulus-container"">
                    <img src=""images/causal_sequence/the_performance_causal/the_performance_causal_3.png"" class=""exp-image"">
                    <div class=""question-area""></div> 
                </div>","null","","","","","","","","",""
"","","","","","html-button-response","43","149349","0.0-43.0","F0E86DE3F75D4187B8B5A154AEF7C6EB","019cf4d7-6063-77f1-9050-a8ad94358d67","019cf4c8-1de8-79ec-b3bd-d98520647593","","869","
                <div class=""stimulus-container"">
                    <img src=""images/causal_sequence/the_performance_causal/the_performance_causal_3.png"" class=""exp-image"">
                    <div class=""question-area"">
                        <p style=""font-size: 20px; font-weight: bold; margin: 0;"">Is there a person in this image?</p>
                    </div>
                </div>","0","main_experiment_trial","3","the_performance_causal","causal_sequence","","","","",""
"","","","","","html-keyboard-response","44","154354","0.0-44.0","F0E86DE3F75D4187B8B5A154AEF7C6EB","019cf4d7-6063-77f1-9050-a8ad94358d67","019cf4c8-1de8-79ec-b3bd-d98520647593","","null","
                <div class=""stimulus-container"">
                    <img src=""images/causal_sequence/the_performance_causal/the_performance_causal_4.png"" class=""exp-image"">
                    <div class=""question-area""></div> 
                </div>","null","","","","","","","","",""
"","","","","","html-button-response","45","155194","0.0-45.0","F0E86DE3F75D4187B8B5A154AEF7C6EB","019cf4d7-6063-77f1-9050-a8ad94358d67","019cf4c8-1de8-79ec-b3bd-d98520647593","","839","
                <div class=""stimulus-container"">
                    <img src=""images/causal_sequence/the_performance_causal/the_performance_causal_4.png"" class=""exp-image"">
                    <div class=""question-area"">
                        <p style=""font-size: 20px; font-weight: bold; margin: 0;"">Is there a person in this image?</p>
                    </div>
                </div>","0","main_experiment_trial","4","the_performance_causal","causal_sequence","","","","",""
"","","","","","html-keyboard-response","46","160195","0.0-46.0","F0E86DE3F75D4187B8B5A154AEF7C6EB","019cf4d7-6063-77f1-9050-a8ad94358d67","019cf4c8-1de8-79ec-b3bd-d98520647593","","null","
                <div class=""stimulus-container"">
                    <img src=""images/causal_sequence/the_performance_causal/the_performance_causal_5.png"" class=""exp-image"">
                    <div class=""question-area""></div> 
                </div>","null","","","","","","","","",""
"","","","","","html-button-response","47","161195","0.0-47.0","F0E86DE3F75D4187B8B5A154AEF7C6EB","019cf4d7-6063-77f1-9050-a8ad94358d67","019cf4c8-1de8-79ec-b3bd-d98520647593","","999","
                <div class=""stimulus-container"">
                    <img src=""images/causal_sequence/the_performance_causal/the_performance_causal_5.png"" class=""exp-image"">
                    <div class=""question-area"">
                        <p style=""font-size: 20px; font-weight: bold; margin: 0;"">Is there a person in this image?</p>
                    </div>
                </div>","0","main_experiment_trial","5","the_performance_causal","causal_sequence","","","","",""
"","","","","","html-keyboard-response","48","166201","0.0-48.0","F0E86DE3F75D4187B8B5A154AEF7C6EB","019cf4d7-6063-77f1-9050-a8ad94358d67","019cf4c8-1de8-79ec-b3bd-d98520647593","","null","
                <div class=""stimulus-container"">
                    <img src=""images/causal_sequence/the_performance_causal/the_performance_causal_6.png"" class=""exp-image"">
                    <div class=""question-area""></div> 
                </div>","null","","","","","","","","",""
"","","","","","html-button-response","49","167088","0.0-49.0","F0E86DE3F75D4187B8B5A154AEF7C6EB","019cf4d7-6063-77f1-9050-a8ad94358d67","019cf4c8-1de8-79ec-b3bd-d98520647593","","886","
                <div class=""stimulus-container"">
                    <img src=""images/causal_sequence/the_performance_causal/the_performance_causal_6.png"" class=""exp-image"">
                    <div class=""question-area"">
                        <p style=""font-size: 20px; font-weight: bold; margin: 0;"">Is there a person in this image?</p>
                    </div>
                </div>","0","main_experiment_trial","6","the_performance_causal","causal_sequence","","","","",""
"","","","","","html-keyboard-response","50","172103","0.0-50.0","F0E86DE3F75D4187B8B5A154AEF7C6EB","019cf4d7-6063-77f1-9050-a8ad94358d67","019cf4c8-1de8-79ec-b3bd-d98520647593","","null","
                <div class=""stimulus-container"">
                    <img src=""images/causal_sequence/the_performance_causal/the_performance_causal_7.png"" class=""exp-image"">
                    <div class=""question-area""></div> 
                </div>","null","","","","","","","","",""
"","","","","","html-button-response","51","172913","0.0-51.0","F0E86DE3F75D4187B8B5A154AEF7C6EB","019cf4d7-6063-77f1-9050-a8ad94358d67","019cf4c8-1de8-79ec-b3bd-d98520647593","","808","
                <div class=""stimulus-container"">
                    <img src=""images/causal_sequence/the_performance_causal/the_performance_causal_7.png"" class=""exp-image"">
                    <div class=""question-area"">
                        <p style=""font-size: 20px; font-weight: bold; margin: 0;"">Is there a person in this image?</p>
                    </div>
                </div>","0","main_experiment_trial","7","the_performance_causal","causal_sequence","","","","",""
"","","","","","html-keyboard-response","52","177925","0.0-52.0","F0E86DE3F75D4187B8B5A154AEF7C6EB","019cf4d7-6063-77f1-9050-a8ad94358d67","019cf4c8-1de8-79ec-b3bd-d98520647593","","null","
                <div class=""stimulus-container"">
                    <img src=""images/causal_sequence/the_performance_causal/the_performance_causal_8.png"" class=""exp-image"">
                    <div class=""question-area""></div> 
                </div>","null","","","","","","","","",""
"","","","","","html-button-response","53","178669","0.0-53.0","F0E86DE3F75D4187B8B5A154AEF7C6EB","019cf4d7-6063-77f1-9050-a8ad94358d67","019cf4c8-1de8-79ec-b3bd-d98520647593","","743","
                <div class=""stimulus-container"">
                    <img src=""images/causal_sequence/the_performance_causal/the_performance_causal_8.png"" class=""exp-image"">
                    <div class=""question-area"">
                        <p style=""font-size: 20px; font-weight: bold; margin: 0;"">Is there a person in this image?</p>
                    </div>
                </div>","0","main_experiment_trial","8","the_performance_causal","causal_sequence","","","","",""
"","","","","","html-keyboard-response","54","183675","0.0-54.0","F0E86DE3F75D4187B8B5A154AEF7C6EB","019cf4d7-6063-77f1-9050-a8ad94358d67","019cf4c8-1de8-79ec-b3bd-d98520647593","","null","
                <div class=""stimulus-container"">
                    <img src=""images/causal_sequence/the_performance_causal/the_performance_causal_9.png"" class=""exp-image"">
                    <div class=""question-area""></div> 
                </div>","null","","","","","","","","",""
"","","","","","html-button-response","55","184688","0.0-55.0","F0E86DE3F75D4187B8B5A154AEF7C6EB","019cf4d7-6063-77f1-9050-a8ad94358d67","019cf4c8-1de8-79ec-b3bd-d98520647593","","1012","
                <div class=""stimulus-container"">
                    <img src=""images/causal_sequence/the_performance_causal/the_performance_causal_9.png"" class=""exp-image"">
                    <div class=""question-area"">
                        <p style=""font-size: 20px; font-weight: bold; margin: 0;"">Is there a person in this image?</p>
                    </div>
                </div>","0","main_experiment_trial","9","the_performance_causal","causal_sequence","","","","",""
"","","","","","html-keyboard-response","56","189701","0.0-56.0","F0E86DE3F75D4187B8B5A154AEF7C6EB","019cf4d7-6063-77f1-9050-a8ad94358d67","019cf4c8-1de8-79ec-b3bd-d98520647593","","null","
                <div class=""stimulus-container"">
                    <img src=""images/causal_sequence/the_performance_causal/the_performance_causal_ten.png"" class=""exp-image"">
                    <div class=""question-area""></div> 
                </div>","null","","","","","","","","",""
"","","","","","html-button-response","57","190702","0.0-57.0","F0E86DE3F75D4187B8B5A154AEF7C6EB","019cf4d7-6063-77f1-9050-a8ad94358d67","019cf4c8-1de8-79ec-b3bd-d98520647593","","999","
                <div class=""stimulus-container"">
                    <img src=""images/causal_sequence/the_performance_causal/the_performance_causal_ten.png"" class=""exp-image"">
                    <div class=""question-area"">
                        <p style=""font-size: 20px; font-weight: bold; margin: 0;"">Is there a person in this image?</p>
                    </div>
                </div>","0","main_experiment_trial","ten","the_performance_causal","causal_sequence","","","","",""
"","","","","","html-keyboard-response","58","191708","0.0-58.0","F0E86DE3F75D4187B8B5A154AEF7C6EB","019cf4d7-6063-77f1-9050-a8ad94358d67","019cf4c8-1de8-79ec-b3bd-d98520647593","","null","<div style=""background-color: white; width: 100vw; height: 100vh;""></div>","null","","","","","","","","",""
"","","","","","html-keyboard-response","59","196721","0.0-59.0","F0E86DE3F75D4187B8B5A154AEF7C6EB","019cf4d7-6063-77f1-9050-a8ad94358d67","019cf4c8-1de8-79ec-b3bd-d98520647593","","null","
                <div class=""stimulus-container"">
                    <img src=""images/schematic_sequence/supermarket_scheme/supermarket_scheme_1.png"" class=""exp-image"">
                    <div class=""question-area""></div> 
                </div>","null","","","","","","","","",""
"","","","","","html-button-response","60","197772","0.0-60.0","F0E86DE3F75D4187B8B5A154AEF7C6EB","019cf4d7-6063-77f1-9050-a8ad94358d67","019cf4c8-1de8-79ec-b3bd-d98520647593","","1049","
                <div class=""stimulus-container"">
                    <img src=""images/schematic_sequence/supermarket_scheme/supermarket_scheme_1.png"" class=""exp-image"">
                    <div class=""question-area"">
                        <p style=""font-size: 20px; font-weight: bold; margin: 0;"">Is there a person in this image?</p>
                    </div>
                </div>","1","main_experiment_trial","1","supermarket_scheme","schematic_sequence","","","","",""
"","","","","","html-keyboard-response","61","202774","0.0-61.0","F0E86DE3F75D4187B8B5A154AEF7C6EB","019cf4d7-6063-77f1-9050-a8ad94358d67","019cf4c8-1de8-79ec-b3bd-d98520647593","","null","
                <div class=""stimulus-container"">
                    <img src=""images/schematic_sequence/supermarket_scheme/supermarket_scheme_2.png"" class=""exp-image"">
                    <div class=""question-area""></div> 
                </div>","null","","","","","","","","",""
"","","","","","html-button-response","62","203568","0.0-62.0","F0E86DE3F75D4187B8B5A154AEF7C6EB","019cf4d7-6063-77f1-9050-a8ad94358d67","019cf4c8-1de8-79ec-b3bd-d98520647593","","793","
                <div class=""stimulus-container"">
                    <img src=""images/schematic_sequence/supermarket_scheme/supermarket_scheme_2.png"" class=""exp-image"">
                    <div class=""question-area"">
                        <p style=""font-size: 20px; font-weight: bold; margin: 0;"">Is there a person in this image?</p>
                    </div>
                </div>","1","main_experiment_trial","2","supermarket_scheme","schematic_sequence","","","","",""
"","","","","","html-keyboard-response","63","208572","0.0-63.0","F0E86DE3F75D4187B8B5A154AEF7C6EB","019cf4d7-6063-77f1-9050-a8ad94358d67","019cf4c8-1de8-79ec-b3bd-d98520647593","","null","
                <div class=""stimulus-container"">
                    <img src=""images/schematic_sequence/supermarket_scheme/supermarket_scheme_3.png"" class=""exp-image"">
                    <div class=""question-area""></div> 
                </div>","null","","","","","","","","",""
"","","","","","html-button-response","64","209402","0.0-64.0","F0E86DE3F75D4187B8B5A154AEF7C6EB","019cf4d7-6063-77f1-9050-a8ad94358d67","019cf4c8-1de8-79ec-b3bd-d98520647593","","829","
                <div class=""stimulus-container"">
                    <img src=""images/schematic_sequence/supermarket_scheme/supermarket_scheme_3.png"" class=""exp-image"">
                    <div class=""question-area"">
                        <p style=""font-size: 20px; font-weight: bold; margin: 0;"">Is there a person in this image?</p>
                    </div>
                </div>","1","main_experiment_trial","3","supermarket_scheme","schematic_sequence","","","","",""
"","","","","","html-keyboard-response","65","214408","0.0-65.0","F0E86DE3F75D4187B8B5A154AEF7C6EB","019cf4d7-6063-77f1-9050-a8ad94358d67","019cf4c8-1de8-79ec-b3bd-d98520647593","","null","
                <div class=""stimulus-container"">
                    <img src=""images/schematic_sequence/supermarket_scheme/supermarket_scheme_4.png"" class=""exp-image"">
                    <div class=""question-area""></div> 
                </div>","null","","","","","","","","",""
"","","","","","html-button-response","66","215280","0.0-66.0","F0E86DE3F75D4187B8B5A154AEF7C6EB","019cf4d7-6063-77f1-9050-a8ad94358d67","019cf4c8-1de8-79ec-b3bd-d98520647593","","870","
                <div class=""stimulus-container"">
                    <img src=""images/schematic_sequence/supermarket_scheme/supermarket_scheme_4.png"" class=""exp-image"">
                    <div class=""question-area"">
                        <p style=""font-size: 20px; font-weight: bold; margin: 0;"">Is there a person in this image?</p>
                    </div>
                </div>","0","main_experiment_trial","4","supermarket_scheme","schematic_sequence","","","","",""
"","","","","","html-keyboard-response","67","220291","0.0-67.0","F0E86DE3F75D4187B8B5A154AEF7C6EB","019cf4d7-6063-77f1-9050-a8ad94358d67","019cf4c8-1de8-79ec-b3bd-d98520647593","","null","
                <div class=""stimulus-container"">
                    <img src=""images/schematic_sequence/supermarket_scheme/supermarket_scheme_5.png"" class=""exp-image"">
                    <div class=""question-area""></div> 
                </div>","null","","","","","","","","",""
"","","","","","html-button-response","68","221292","0.0-68.0","F0E86DE3F75D4187B8B5A154AEF7C6EB","019cf4d7-6063-77f1-9050-a8ad94358d67","019cf4c8-1de8-79ec-b3bd-d98520647593","","999","
                <div class=""stimulus-container"">
                    <img src=""images/schematic_sequence/supermarket_scheme/supermarket_scheme_5.png"" class=""exp-image"">
                    <div class=""question-area"">
                        <p style=""font-size: 20px; font-weight: bold; margin: 0;"">Is there a person in this image?</p>
                    </div>
                </div>","1","main_experiment_trial","5","supermarket_scheme","schematic_sequence","","","","",""
"","","","","","html-keyboard-response","69","226306","0.0-69.0","F0E86DE3F75D4187B8B5A154AEF7C6EB","019cf4d7-6063-77f1-9050-a8ad94358d67","019cf4c8-1de8-79ec-b3bd-d98520647593","","null","
                <div class=""stimulus-container"">
                    <img src=""images/schematic_sequence/supermarket_scheme/supermarket_scheme_6.png"" class=""exp-image"">
                    <div class=""question-area""></div> 
                </div>","null","","","","","","","","",""
"","","","","","html-button-response","70","228091","0.0-70.0","F0E86DE3F75D4187B8B5A154AEF7C6EB","019cf4d7-6063-77f1-9050-a8ad94358d67","019cf4c8-1de8-79ec-b3bd-d98520647593","","1784","
                <div class=""stimulus-container"">
                    <img src=""images/schematic_sequence/supermarket_scheme/supermarket_scheme_6.png"" class=""exp-image"">
                    <div class=""question-area"">
                        <p style=""font-size: 20px; font-weight: bold; margin: 0;"">Is there a person in this image?</p>
                    </div>
                </div>","0","main_experiment_trial","6","supermarket_scheme","schematic_sequence","","","","",""
"","","","","","html-keyboard-response","71","233108","0.0-71.0","F0E86DE3F75D4187B8B5A154AEF7C6EB","019cf4d7-6063-77f1-9050-a8ad94358d67","019cf4c8-1de8-79ec-b3bd-d98520647593","","null","
                <div class=""stimulus-container"">
                    <img src=""images/schematic_sequence/supermarket_scheme/supermarket_scheme_7.png"" class=""exp-image"">
                    <div class=""question-area""></div> 
                </div>","null","","","","","","","","",""
"","","","","","html-button-response","72","234794","0.0-72.0","F0E86DE3F75D4187B8B5A154AEF7C6EB","019cf4d7-6063-77f1-9050-a8ad94358d67","019cf4c8-1de8-79ec-b3bd-d98520647593","","1685","
                <div class=""stimulus-container"">
                    <img src=""images/schematic_sequence/supermarket_scheme/supermarket_scheme_7.png"" class=""exp-image"">
                    <div class=""question-area"">
                        <p style=""font-size: 20px; font-weight: bold; margin: 0;"">Is there a person in this image?</p>
                    </div>
                </div>","0","main_experiment_trial","7","supermarket_scheme","schematic_sequence","","","","",""
"","","","","","html-keyboard-response","73","239796","0.0-73.0","F0E86DE3F75D4187B8B5A154AEF7C6EB","019cf4d7-6063-77f1-9050-a8ad94358d67","019cf4c8-1de8-79ec-b3bd-d98520647593","","null","
                <div class=""stimulus-container"">
                    <img src=""images/schematic_sequence/supermarket_scheme/supermarket_scheme_8.png"" class=""exp-image"">
                    <div class=""question-area""></div> 
                </div>","null","","","","","","","","",""
"","","","","","html-button-response","74","240632","0.0-74.0","F0E86DE3F75D4187B8B5A154AEF7C6EB","019cf4d7-6063-77f1-9050-a8ad94358d67","019cf4c8-1de8-79ec-b3bd-d98520647593","","834","
                <div class=""stimulus-container"">
                    <img src=""images/schematic_sequence/supermarket_scheme/supermarket_scheme_8.png"" class=""exp-image"">
                    <div class=""question-area"">
                        <p style=""font-size: 20px; font-weight: bold; margin: 0;"">Is there a person in this image?</p>
                    </div>
                </div>","0","main_experiment_trial","8","supermarket_scheme","schematic_sequence","","","","",""
"","","","","","html-keyboard-response","75","245640","0.0-75.0","F0E86DE3F75D4187B8B5A154AEF7C6EB","019cf4d7-6063-77f1-9050-a8ad94358d67","019cf4c8-1de8-79ec-b3bd-d98520647593","","null","
                <div class=""stimulus-container"">
                    <img src=""images/schematic_sequence/supermarket_scheme/supermarket_scheme_9.png"" class=""exp-image"">
                    <div class=""question-area""></div> 
                </div>","null","","","","","","","","",""
"","","","","","html-button-response","76","246302","0.0-76.0","F0E86DE3F75D4187B8B5A154AEF7C6EB","019cf4d7-6063-77f1-9050-a8ad94358d67","019cf4c8-1de8-79ec-b3bd-d98520647593","","660","
                <div class=""stimulus-container"">
                    <img src=""images/schematic_sequence/supermarket_scheme/supermarket_scheme_9.png"" class=""exp-image"">
                    <div class=""question-area"">
                        <p style=""font-size: 20px; font-weight: bold; margin: 0;"">Is there a person in this image?</p>
                    </div>
                </div>","0","main_experiment_trial","9","supermarket_scheme","schematic_sequence","","","","",""
"","","","","","html-keyboard-response","77","251305","0.0-77.0","F0E86DE3F75D4187B8B5A154AEF7C6EB","019cf4d7-6063-77f1-9050-a8ad94358d67","019cf4c8-1de8-79ec-b3bd-d98520647593","","null","
                <div class=""stimulus-container"">
                    <img src=""images/schematic_sequence/supermarket_scheme/supermarket_scheme_ten.png"" class=""exp-image"">
                    <div class=""question-area""></div> 
                </div>","null","","","","","","","","",""
"","","","","","html-button-response","78","252003","0.0-78.0","F0E86DE3F75D4187B8B5A154AEF7C6EB","019cf4d7-6063-77f1-9050-a8ad94358d67","019cf4c8-1de8-79ec-b3bd-d98520647593","","696","
                <div class=""stimulus-container"">
                    <img src=""images/schematic_sequence/supermarket_scheme/supermarket_scheme_ten.png"" class=""exp-image"">
                    <div class=""question-area"">
                        <p style=""font-size: 20px; font-weight: bold; margin: 0;"">Is there a person in this image?</p>
                    </div>
                </div>","1","main_experiment_trial","ten","supermarket_scheme","schematic_sequence","","","","",""
"","","","","","html-keyboard-response","79","253016","0.0-79.0","F0E86DE3F75D4187B8B5A154AEF7C6EB","019cf4d7-6063-77f1-9050-a8ad94358d67","019cf4c8-1de8-79ec-b3bd-d98520647593","","null","<div style=""background-color: white; width: 100vw; height: 100vh;""></div>","null","","","","","","","","",""
"","","","","","html-keyboard-response","80","258018","0.0-80.0","F0E86DE3F75D4187B8B5A154AEF7C6EB","019cf4d7-6063-77f1-9050-a8ad94358d67","019cf4c8-1de8-79ec-b3bd-d98520647593","","null","
                <div class=""stimulus-container"">
                    <img src=""images/schematic_sequence/hotel_scheme/hotel_scheme_1.png"" class=""exp-image"">
                    <div class=""question-area""></div> 
                </div>","null","","","","","","","","",""
"","","","","","html-button-response","81","259127","0.0-81.0","F0E86DE3F75D4187B8B5A154AEF7C6EB","019cf4d7-6063-77f1-9050-a8ad94358d67","019cf4c8-1de8-79ec-b3bd-d98520647593","","1109","
                <div class=""stimulus-container"">
                    <img src=""images/schematic_sequence/hotel_scheme/hotel_scheme_1.png"" class=""exp-image"">
                    <div class=""question-area"">
                        <p style=""font-size: 20px; font-weight: bold; margin: 0;"">Is there a person in this image?</p>
                    </div>
                </div>","1","main_experiment_trial","1","hotel_scheme","schematic_sequence","","","","",""
"","","","","","html-keyboard-response","82","264145","0.0-82.0","F0E86DE3F75D4187B8B5A154AEF7C6EB","019cf4d7-6063-77f1-9050-a8ad94358d67","019cf4c8-1de8-79ec-b3bd-d98520647593","","null","
                <div class=""stimulus-container"">
                    <img src=""images/schematic_sequence/hotel_scheme/hotel_scheme_2.png"" class=""exp-image"">
                    <div class=""question-area""></div> 
                </div>","null","","","","","","","","",""
"","","","","","html-button-response","83","264948","0.0-83.0","F0E86DE3F75D4187B8B5A154AEF7C6EB","019cf4d7-6063-77f1-9050-a8ad94358d67","019cf4c8-1de8-79ec-b3bd-d98520647593","","802","
                <div class=""stimulus-container"">
                    <img src=""images/schematic_sequence/hotel_scheme/hotel_scheme_2.png"" class=""exp-image"">
                    <div class=""question-area"">
                        <p style=""font-size: 20px; font-weight: bold; margin: 0;"">Is there a person in this image?</p>
                    </div>
                </div>","0","main_experiment_trial","2","hotel_scheme","schematic_sequence","","","","",""
"","","","","","html-keyboard-response","84","269953","0.0-84.0","F0E86DE3F75D4187B8B5A154AEF7C6EB","019cf4d7-6063-77f1-9050-a8ad94358d67","019cf4c8-1de8-79ec-b3bd-d98520647593","","null","
                <div class=""stimulus-container"">
                    <img src=""images/schematic_sequence/hotel_scheme/hotel_scheme_3.png"" class=""exp-image"">
                    <div class=""question-area""></div> 
                </div>","null","","","","","","","","",""
"","","","","","html-button-response","85","271079","0.0-85.0","F0E86DE3F75D4187B8B5A154AEF7C6EB","019cf4d7-6063-77f1-9050-a8ad94358d67","019cf4c8-1de8-79ec-b3bd-d98520647593","","1125","
                <div class=""stimulus-container"">
                    <img src=""images/schematic_sequence/hotel_scheme/hotel_scheme_3.png"" class=""exp-image"">
                    <div class=""question-area"">
                        <p style=""font-size: 20px; font-weight: bold; margin: 0;"">Is there a person in this image?</p>
                    </div>
                </div>","0","main_experiment_trial","3","hotel_scheme","schematic_sequence","","","","",""
"","","","","","html-keyboard-response","86","276082","0.0-86.0","F0E86DE3F75D4187B8B5A154AEF7C6EB","019cf4d7-6063-77f1-9050-a8ad94358d67","019cf4c8-1de8-79ec-b3bd-d98520647593","","null","
                <div class=""stimulus-container"">
                    <img src=""images/schematic_sequence/hotel_scheme/hotel_scheme_4.png"" class=""exp-image"">
                    <div class=""question-area""></div> 
                </div>","null","","","","","","","","",""
"","","","","","html-button-response","87","276877","0.0-87.0","F0E86DE3F75D4187B8B5A154AEF7C6EB","019cf4d7-6063-77f1-9050-a8ad94358d67","019cf4c8-1de8-79ec-b3bd-d98520647593","","794","
                <div class=""stimulus-container"">
                    <img src=""images/schematic_sequence/hotel_scheme/hotel_scheme_4.png"" class=""exp-image"">
                    <div class=""question-area"">
                        <p style=""font-size: 20px; font-weight: bold; margin: 0;"">Is there a person in this image?</p>
                    </div>
                </div>","1","main_experiment_trial","4","hotel_scheme","schematic_sequence","","","","",""
"","","","","","html-keyboard-response","88","281893","0.0-88.0","F0E86DE3F75D4187B8B5A154AEF7C6EB","019cf4d7-6063-77f1-9050-a8ad94358d67","019cf4c8-1de8-79ec-b3bd-d98520647593","","null","
                <div class=""stimulus-container"">
                    <img src=""images/schematic_sequence/hotel_scheme/hotel_scheme_5.png"" class=""exp-image"">
                    <div class=""question-area""></div> 
                </div>","null","","","","","","","","",""
"","","","","","html-button-response","89","282960","0.0-89.0","F0E86DE3F75D4187B8B5A154AEF7C6EB","019cf4d7-6063-77f1-9050-a8ad94358d67","019cf4c8-1de8-79ec-b3bd-d98520647593","","1065","
                <div class=""stimulus-container"">
                    <img src=""images/schematic_sequence/hotel_scheme/hotel_scheme_5.png"" class=""exp-image"">
                    <div class=""question-area"">
                        <p style=""font-size: 20px; font-weight: bold; margin: 0;"">Is there a person in this image?</p>
                    </div>
                </div>","0","main_experiment_trial","5","hotel_scheme","schematic_sequence","","","","",""
"","","","","","html-keyboard-response","90","287968","0.0-90.0","F0E86DE3F75D4187B8B5A154AEF7C6EB","019cf4d7-6063-77f1-9050-a8ad94358d67","019cf4c8-1de8-79ec-b3bd-d98520647593","","null","
                <div class=""stimulus-container"">
                    <img src=""images/schematic_sequence/hotel_scheme/hotel_scheme_6.png"" class=""exp-image"">
                    <div class=""question-area""></div> 
                </div>","null","","","","","","","","",""
"","","","","","html-button-response","91","289259","0.0-91.0","F0E86DE3F75D4187B8B5A154AEF7C6EB","019cf4d7-6063-77f1-9050-a8ad94358d67","019cf4c8-1de8-79ec-b3bd-d98520647593","","1289","
                <div class=""stimulus-container"">
                    <img src=""images/schematic_sequence/hotel_scheme/hotel_scheme_6.png"" class=""exp-image"">
                    <div class=""question-area"">
                        <p style=""font-size: 20px; font-weight: bold; margin: 0;"">Is there a person in this image?</p>
                    </div>
                </div>","0","main_experiment_trial","6","hotel_scheme","schematic_sequence","","","","",""
"","","","","","html-keyboard-response","92","294273","0.0-92.0","F0E86DE3F75D4187B8B5A154AEF7C6EB","019cf4d7-6063-77f1-9050-a8ad94358d67","019cf4c8-1de8-79ec-b3bd-d98520647593","","null","
                <div class=""stimulus-container"">
                    <img src=""images/schematic_sequence/hotel_scheme/hotel_scheme_7.png"" class=""exp-image"">
                    <div class=""question-area""></div> 
                </div>","null","","","","","","","","",""
"","","","","","html-button-response","93","295033","0.0-93.0","F0E86DE3F75D4187B8B5A154AEF7C6EB","019cf4d7-6063-77f1-9050-a8ad94358d67","019cf4c8-1de8-79ec-b3bd-d98520647593","","758","
                <div class=""stimulus-container"">
                    <img src=""images/schematic_sequence/hotel_scheme/hotel_scheme_7.png"" class=""exp-image"">
                    <div class=""question-area"">
                        <p style=""font-size: 20px; font-weight: bold; margin: 0;"">Is there a person in this image?</p>
                    </div>
                </div>","0","main_experiment_trial","7","hotel_scheme","schematic_sequence","","","","",""
"","","","","","html-keyboard-response","94","300047","0.0-94.0","F0E86DE3F75D4187B8B5A154AEF7C6EB","019cf4d7-6063-77f1-9050-a8ad94358d67","019cf4c8-1de8-79ec-b3bd-d98520647593","","null","
                <div class=""stimulus-container"">
                    <img src=""images/schematic_sequence/hotel_scheme/hotel_scheme_8.png"" class=""exp-image"">
                    <div class=""question-area""></div> 
                </div>","null","","","","","","","","",""
"","","","","","html-button-response","95","300830","0.0-95.0","F0E86DE3F75D4187B8B5A154AEF7C6EB","019cf4d7-6063-77f1-9050-a8ad94358d67","019cf4c8-1de8-79ec-b3bd-d98520647593","","780","
                <div class=""stimulus-container"">
                    <img src=""images/schematic_sequence/hotel_scheme/hotel_scheme_8.png"" class=""exp-image"">
                    <div class=""question-area"">
                        <p style=""font-size: 20px; font-weight: bold; margin: 0;"">Is there a person in this image?</p>
                    </div>
                </div>","0","main_experiment_trial","8","hotel_scheme","schematic_sequence","","","","",""
"","","","","","html-keyboard-response","96","305844","0.0-96.0","F0E86DE3F75D4187B8B5A154AEF7C6EB","019cf4d7-6063-77f1-9050-a8ad94358d67","019cf4c8-1de8-79ec-b3bd-d98520647593","","null","
                <div class=""stimulus-container"">
                    <img src=""images/schematic_sequence/hotel_scheme/hotel_scheme_9.png"" class=""exp-image"">
                    <div class=""question-area""></div> 
                </div>","null","","","","","","","","",""
"","","","","","html-button-response","97","306642","0.0-97.0","F0E86DE3F75D4187B8B5A154AEF7C6EB","019cf4d7-6063-77f1-9050-a8ad94358d67","019cf4c8-1de8-79ec-b3bd-d98520647593","","797","
                <div class=""stimulus-container"">
                    <img src=""images/schematic_sequence/hotel_scheme/hotel_scheme_9.png"" class=""exp-image"">
                    <div class=""question-area"">
                        <p style=""font-size: 20px; font-weight: bold; margin: 0;"">Is there a person in this image?</p>
                    </div>
                </div>","0","main_experiment_trial","9","hotel_scheme","schematic_sequence","","","","",""
"","","","","","html-keyboard-response","98","311654","0.0-98.0","F0E86DE3F75D4187B8B5A154AEF7C6EB","019cf4d7-6063-77f1-9050-a8ad94358d67","019cf4c8-1de8-79ec-b3bd-d98520647593","","null","
                <div class=""stimulus-container"">
                    <img src=""images/schematic_sequence/hotel_scheme/hotel_scheme_ten.png"" class=""exp-image"">
                    <div class=""question-area""></div> 
                </div>","null","","","","","","","","",""
"","","","","","html-button-response","99","312394","0.0-99.0","F0E86DE3F75D4187B8B5A154AEF7C6EB","019cf4d7-6063-77f1-9050-a8ad94358d67","019cf4c8-1de8-79ec-b3bd-d98520647593","","739","
                <div class=""stimulus-container"">
                    <img src=""images/schematic_sequence/hotel_scheme/hotel_scheme_ten.png"" class=""exp-image"">
                    <div class=""question-area"">
                        <p style=""font-size: 20px; font-weight: bold; margin: 0;"">Is there a person in this image?</p>
                    </div>
                </div>","0","main_experiment_trial","ten","hotel_scheme","schematic_sequence","","","","",""
"","","","","","html-keyboard-response","100","313397","0.0-100.0","F0E86DE3F75D4187B8B5A154AEF7C6EB","019cf4d7-6063-77f1-9050-a8ad94358d67","019cf4c8-1de8-79ec-b3bd-d98520647593","","null","<div style=""background-color: white; width: 100vw; height: 100vh;""></div>","null","","","","","","","","",""
"","","","","","html-keyboard-response","101","318398","0.0-101.0","F0E86DE3F75D4187B8B5A154AEF7C6EB","019cf4d7-6063-77f1-9050-a8ad94358d67","019cf4c8-1de8-79ec-b3bd-d98520647593","","null","
                <div class=""stimulus-container"">
                    <img src=""images/schematic_sequence/flight_scheme/flight_scheme_1.png"" class=""exp-image"">
                    <div class=""question-area""></div> 
                </div>","null","","","","","","","","",""
"","","","","","html-button-response","102","319103","0.0-102.0","F0E86DE3F75D4187B8B5A154AEF7C6EB","019cf4d7-6063-77f1-9050-a8ad94358d67","019cf4c8-1de8-79ec-b3bd-d98520647593","","703","
                <div class=""stimulus-container"">
                    <img src=""images/schematic_sequence/flight_scheme/flight_scheme_1.png"" class=""exp-image"">
                    <div class=""question-area"">
                        <p style=""font-size: 20px; font-weight: bold; margin: 0;"">Is there a person in this image?</p>
                    </div>
                </div>","0","main_experiment_trial","1","flight_scheme","schematic_sequence","","","","",""
"","","","","","html-keyboard-response","103","324112","0.0-103.0","F0E86DE3F75D4187B8B5A154AEF7C6EB","019cf4d7-6063-77f1-9050-a8ad94358d67","019cf4c8-1de8-79ec-b3bd-d98520647593","","null","
                <div class=""stimulus-container"">
                    <img src=""images/schematic_sequence/flight_scheme/flight_scheme_2.png"" class=""exp-image"">
                    <div class=""question-area""></div> 
                </div>","null","","","","","","","","",""
"","","","","","html-button-response","104","324837","0.0-104.0","F0E86DE3F75D4187B8B5A154AEF7C6EB","019cf4d7-6063-77f1-9050-a8ad94358d67","019cf4c8-1de8-79ec-b3bd-d98520647593","","723","
                <div class=""stimulus-container"">
                    <img src=""images/schematic_sequence/flight_scheme/flight_scheme_2.png"" class=""exp-image"">
                    <div class=""question-area"">
                        <p style=""font-size: 20px; font-weight: bold; margin: 0;"">Is there a person in this image?</p>
                    </div>
                </div>","1","main_experiment_trial","2","flight_scheme","schematic_sequence","","","","",""
"","","","","","html-keyboard-response","105","329854","0.0-105.0","F0E86DE3F75D4187B8B5A154AEF7C6EB","019cf4d7-6063-77f1-9050-a8ad94358d67","019cf4c8-1de8-79ec-b3bd-d98520647593","","null","
                <div class=""stimulus-container"">
                    <img src=""images/schematic_sequence/flight_scheme/flight_scheme_3.png"" class=""exp-image"">
                    <div class=""question-area""></div> 
                </div>","null","","","","","","","","",""
"","","","","","html-button-response","106","330557","0.0-106.0","F0E86DE3F75D4187B8B5A154AEF7C6EB","019cf4d7-6063-77f1-9050-a8ad94358d67","019cf4c8-1de8-79ec-b3bd-d98520647593","","702","
                <div class=""stimulus-container"">
                    <img src=""images/schematic_sequence/flight_scheme/flight_scheme_3.png"" class=""exp-image"">
                    <div class=""question-area"">
                        <p style=""font-size: 20px; font-weight: bold; margin: 0;"">Is there a person in this image?</p>
                    </div>
                </div>","0","main_experiment_trial","3","flight_scheme","schematic_sequence","","","","",""
"","","","","","html-keyboard-response","107","335559","0.0-107.0","F0E86DE3F75D4187B8B5A154AEF7C6EB","019cf4d7-6063-77f1-9050-a8ad94358d67","019cf4c8-1de8-79ec-b3bd-d98520647593","","null","
                <div class=""stimulus-container"">
                    <img src=""images/schematic_sequence/flight_scheme/flight_scheme_4.png"" class=""exp-image"">
                    <div class=""question-area""></div> 
                </div>","null","","","","","","","","",""
"","","","","","html-button-response","108","336524","0.0-108.0","F0E86DE3F75D4187B8B5A154AEF7C6EB","019cf4d7-6063-77f1-9050-a8ad94358d67","019cf4c8-1de8-79ec-b3bd-d98520647593","","964","
                <div class=""stimulus-container"">
                    <img src=""images/schematic_sequence/flight_scheme/flight_scheme_4.png"" class=""exp-image"">
                    <div class=""question-area"">
                        <p style=""font-size: 20px; font-weight: bold; margin: 0;"">Is there a person in this image?</p>
                    </div>
                </div>","0","main_experiment_trial","4","flight_scheme","schematic_sequence","","","","",""
"","","","","","html-keyboard-response","109","341533","0.0-109.0","F0E86DE3F75D4187B8B5A154AEF7C6EB","019cf4d7-6063-77f1-9050-a8ad94358d67","019cf4c8-1de8-79ec-b3bd-d98520647593","","null","
                <div class=""stimulus-container"">
                    <img src=""images/schematic_sequence/flight_scheme/flight_scheme_5.png"" class=""exp-image"">
                    <div class=""question-area""></div> 
                </div>","null","","","","","","","","",""
"","","","","","html-button-response","110","342323","0.0-110.0","F0E86DE3F75D4187B8B5A154AEF7C6EB","019cf4d7-6063-77f1-9050-a8ad94358d67","019cf4c8-1de8-79ec-b3bd-d98520647593","","789","
                <div class=""stimulus-container"">
                    <img src=""images/schematic_sequence/flight_scheme/flight_scheme_5.png"" class=""exp-image"">
                    <div class=""question-area"">
                        <p style=""font-size: 20px; font-weight: bold; margin: 0;"">Is there a person in this image?</p>
                    </div>
                </div>","0","main_experiment_trial","5","flight_scheme","schematic_sequence","","","","",""
"","","","","","html-keyboard-response","111","347325","0.0-111.0","F0E86DE3F75D4187B8B5A154AEF7C6EB","019cf4d7-6063-77f1-9050-a8ad94358d67","019cf4c8-1de8-79ec-b3bd-d98520647593","","null","
                <div class=""stimulus-container"">
                    <img src=""images/schematic_sequence/flight_scheme/flight_scheme_6.png"" class=""exp-image"">
                    <div class=""question-area""></div> 
                </div>","null","","","","","","","","",""
"","","","","","html-button-response","112","348439","0.0-112.0","F0E86DE3F75D4187B8B5A154AEF7C6EB","019cf4d7-6063-77f1-9050-a8ad94358d67","019cf4c8-1de8-79ec-b3bd-d98520647593","","1113","
                <div class=""stimulus-container"">
                    <img src=""images/schematic_sequence/flight_scheme/flight_scheme_6.png"" class=""exp-image"">
                    <div class=""question-area"">
                        <p style=""font-size: 20px; font-weight: bold; margin: 0;"">Is there a person in this image?</p>
                    </div>
                </div>","1","main_experiment_trial","6","flight_scheme","schematic_sequence","","","","",""
"","","","","","html-keyboard-response","113","353442","0.0-113.0","F0E86DE3F75D4187B8B5A154AEF7C6EB","019cf4d7-6063-77f1-9050-a8ad94358d67","019cf4c8-1de8-79ec-b3bd-d98520647593","","null","
                <div class=""stimulus-container"">
                    <img src=""images/schematic_sequence/flight_scheme/flight_scheme_7.png"" class=""exp-image"">
                    <div class=""question-area""></div> 
                </div>","null","","","","","","","","",""
"","","","","","html-button-response","114","354202","0.0-114.0","F0E86DE3F75D4187B8B5A154AEF7C6EB","019cf4d7-6063-77f1-9050-a8ad94358d67","019cf4c8-1de8-79ec-b3bd-d98520647593","","758","
                <div class=""stimulus-container"">
                    <img src=""images/schematic_sequence/flight_scheme/flight_scheme_7.png"" class=""exp-image"">
                    <div class=""question-area"">
                        <p style=""font-size: 20px; font-weight: bold; margin: 0;"">Is there a person in this image?</p>
                    </div>
                </div>","0","main_experiment_trial","7","flight_scheme","schematic_sequence","","","","",""
"","","","","","html-keyboard-response","115","359219","0.0-115.0","F0E86DE3F75D4187B8B5A154AEF7C6EB","019cf4d7-6063-77f1-9050-a8ad94358d67","019cf4c8-1de8-79ec-b3bd-d98520647593","","null","
                <div class=""stimulus-container"">
                    <img src=""images/schematic_sequence/flight_scheme/flight_scheme_8.png"" class=""exp-image"">
                    <div class=""question-area""></div> 
                </div>","null","","","","","","","","",""
"","","","","","html-button-response","116","359965","0.0-116.0","F0E86DE3F75D4187B8B5A154AEF7C6EB","019cf4d7-6063-77f1-9050-a8ad94358d67","019cf4c8-1de8-79ec-b3bd-d98520647593","","744","
                <div class=""stimulus-container"">
                    <img src=""images/schematic_sequence/flight_scheme/flight_scheme_8.png"" class=""exp-image"">
                    <div class=""question-area"">
                        <p style=""font-size: 20px; font-weight: bold; margin: 0;"">Is there a person in this image?</p>
                    </div>
                </div>","1","main_experiment_trial","8","flight_scheme","schematic_sequence","","","","",""
"","","","","","html-keyboard-response","117","364967","0.0-117.0","F0E86DE3F75D4187B8B5A154AEF7C6EB","019cf4d7-6063-77f1-9050-a8ad94358d67","019cf4c8-1de8-79ec-b3bd-d98520647593","","null","
                <div class=""stimulus-container"">
                    <img src=""images/schematic_sequence/flight_scheme/flight_scheme_9.png"" class=""exp-image"">
                    <div class=""question-area""></div> 
                </div>","null","","","","","","","","",""
"","","","","","html-button-response","118","366054","0.0-118.0","F0E86DE3F75D4187B8B5A154AEF7C6EB","019cf4d7-6063-77f1-9050-a8ad94358d67","019cf4c8-1de8-79ec-b3bd-d98520647593","","1085","
                <div class=""stimulus-container"">
                    <img src=""images/schematic_sequence/flight_scheme/flight_scheme_9.png"" class=""exp-image"">
                    <div class=""question-area"">
                        <p style=""font-size: 20px; font-weight: bold; margin: 0;"">Is there a person in this image?</p>
                    </div>
                </div>","0","main_experiment_trial","9","flight_scheme","schematic_sequence","","","","",""
"","","","","","html-keyboard-response","119","371062","0.0-119.0","F0E86DE3F75D4187B8B5A154AEF7C6EB","019cf4d7-6063-77f1-9050-a8ad94358d67","019cf4c8-1de8-79ec-b3bd-d98520647593","","null","
                <div class=""stimulus-container"">
                    <img src=""images/schematic_sequence/flight_scheme/flight_scheme_ten.png"" class=""exp-image"">
                    <div class=""question-area""></div> 
                </div>","null","","","","","","","","",""
"","","","","","html-button-response","120","372561","0.0-120.0","F0E86DE3F75D4187B8B5A154AEF7C6EB","019cf4d7-6063-77f1-9050-a8ad94358d67","019cf4c8-1de8-79ec-b3bd-d98520647593","","1498","
                <div class=""stimulus-container"">
                    <img src=""images/schematic_sequence/flight_scheme/flight_scheme_ten.png"" class=""exp-image"">
                    <div class=""question-area"">
                        <p style=""font-size: 20px; font-weight: bold; margin: 0;"">Is there a person in this image?</p>
                    </div>
                </div>","0","main_experiment_trial","ten","flight_scheme","schematic_sequence","","","","",""
"","","","","","html-keyboard-response","121","373572","0.0-121.0","F0E86DE3F75D4187B8B5A154AEF7C6EB","019cf4d7-6063-77f1-9050-a8ad94358d67","019cf4c8-1de8-79ec-b3bd-d98520647593","","null","<div style=""background-color: white; width: 100vw; height: 100vh;""></div>","null","","","","","","","","",""
"","","","","","html-keyboard-response","122","378584","0.0-122.0","F0E86DE3F75D4187B8B5A154AEF7C6EB","019cf4d7-6063-77f1-9050-a8ad94358d67","019cf4c8-1de8-79ec-b3bd-d98520647593","","null","
                <div class=""stimulus-container"">
                    <img src=""images/schematic_sequence/restaurant_scheme/restaurant_scheme_1.png"" class=""exp-image"">
                    <div class=""question-area""></div> 
                </div>","null","","","","","","","","",""
"","","","","","html-button-response","123","379604","0.0-123.0","F0E86DE3F75D4187B8B5A154AEF7C6EB","019cf4d7-6063-77f1-9050-a8ad94358d67","019cf4c8-1de8-79ec-b3bd-d98520647593","","1018","
                <div class=""stimulus-container"">
                    <img src=""images/schematic_sequence/restaurant_scheme/restaurant_scheme_1.png"" class=""exp-image"">
                    <div class=""question-area"">
                        <p style=""font-size: 20px; font-weight: bold; margin: 0;"">Is there a person in this image?</p>
                    </div>
                </div>","0","main_experiment_trial","1","restaurant_scheme","schematic_sequence","","","","",""
"","","","","","html-keyboard-response","124","384611","0.0-124.0","F0E86DE3F75D4187B8B5A154AEF7C6EB","019cf4d7-6063-77f1-9050-a8ad94358d67","019cf4c8-1de8-79ec-b3bd-d98520647593","","null","
                <div class=""stimulus-container"">
                    <img src=""images/schematic_sequence/restaurant_scheme/restaurant_scheme_2.png"" class=""exp-image"">
                    <div class=""question-area""></div> 
                </div>","null","","","","","","","","",""
"","","","","","html-button-response","125","385708","0.0-125.0","F0E86DE3F75D4187B8B5A154AEF7C6EB","019cf4d7-6063-77f1-9050-a8ad94358d67","019cf4c8-1de8-79ec-b3bd-d98520647593","","1096","
                <div class=""stimulus-container"">
                    <img src=""images/schematic_sequence/restaurant_scheme/restaurant_scheme_2.png"" class=""exp-image"">
                    <div class=""question-area"">
                        <p style=""font-size: 20px; font-weight: bold; margin: 0;"">Is there a person in this image?</p>
                    </div>
                </div>","1","main_experiment_trial","2","restaurant_scheme","schematic_sequence","","","","",""
"","","","","","html-keyboard-response","126","390713","0.0-126.0","F0E86DE3F75D4187B8B5A154AEF7C6EB","019cf4d7-6063-77f1-9050-a8ad94358d67","019cf4c8-1de8-79ec-b3bd-d98520647593","","null","
                <div class=""stimulus-container"">
                    <img src=""images/schematic_sequence/restaurant_scheme/restaurant_scheme_3.png"" class=""exp-image"">
                    <div class=""question-area""></div> 
                </div>","null","","","","","","","","",""
"","","","","","html-button-response","127","391660","0.0-127.0","F0E86DE3F75D4187B8B5A154AEF7C6EB","019cf4d7-6063-77f1-9050-a8ad94358d67","019cf4c8-1de8-79ec-b3bd-d98520647593","","945","
                <div class=""stimulus-container"">
                    <img src=""images/schematic_sequence/restaurant_scheme/restaurant_scheme_3.png"" class=""exp-image"">
                    <div class=""question-area"">
                        <p style=""font-size: 20px; font-weight: bold; margin: 0;"">Is there a person in this image?</p>
                    </div>
                </div>","1","main_experiment_trial","3","restaurant_scheme","schematic_sequence","","","","",""
"","","","","","html-keyboard-response","128","396662","0.0-128.0","F0E86DE3F75D4187B8B5A154AEF7C6EB","019cf4d7-6063-77f1-9050-a8ad94358d67","019cf4c8-1de8-79ec-b3bd-d98520647593","","null","
                <div class=""stimulus-container"">
                    <img src=""images/schematic_sequence/restaurant_scheme/restaurant_scheme_4.png"" class=""exp-image"">
                    <div class=""question-area""></div> 
                </div>","null","","","","","","","","",""
"","","","","","html-button-response","129","397410","0.0-129.0","F0E86DE3F75D4187B8B5A154AEF7C6EB","019cf4d7-6063-77f1-9050-a8ad94358d67","019cf4c8-1de8-79ec-b3bd-d98520647593","","746","
                <div class=""stimulus-container"">
                    <img src=""images/schematic_sequence/restaurant_scheme/restaurant_scheme_4.png"" class=""exp-image"">
                    <div class=""question-area"">
                        <p style=""font-size: 20px; font-weight: bold; margin: 0;"">Is there a person in this image?</p>
                    </div>
                </div>","0","main_experiment_trial","4","restaurant_scheme","schematic_sequence","","","","",""
"","","","","","html-keyboard-response","130","402415","0.0-130.0","F0E86DE3F75D4187B8B5A154AEF7C6EB","019cf4d7-6063-77f1-9050-a8ad94358d67","019cf4c8-1de8-79ec-b3bd-d98520647593","","null","
                <div class=""stimulus-container"">
                    <img src=""images/schematic_sequence/restaurant_scheme/restaurant_scheme_5.png"" class=""exp-image"">
                    <div class=""question-area""></div> 
                </div>","null","","","","","","","","",""
"","","","","","html-button-response","131","403114","0.0-131.0","F0E86DE3F75D4187B8B5A154AEF7C6EB","019cf4d7-6063-77f1-9050-a8ad94358d67","019cf4c8-1de8-79ec-b3bd-d98520647593","","698","
                <div class=""stimulus-container"">
                    <img src=""images/schematic_sequence/restaurant_scheme/restaurant_scheme_5.png"" class=""exp-image"">
                    <div class=""question-area"">
                        <p style=""font-size: 20px; font-weight: bold; margin: 0;"">Is there a person in this image?</p>
                    </div>
                </div>","0","main_experiment_trial","5","restaurant_scheme","schematic_sequence","","","","",""
"","","","","","html-keyboard-response","132","408118","0.0-132.0","F0E86DE3F75D4187B8B5A154AEF7C6EB","019cf4d7-6063-77f1-9050-a8ad94358d67","019cf4c8-1de8-79ec-b3bd-d98520647593","","null","
                <div class=""stimulus-container"">
                    <img src=""images/schematic_sequence/restaurant_scheme/restaurant_scheme_6.png"" class=""exp-image"">
                    <div class=""question-area""></div> 
                </div>","null","","","","","","","","",""
"","","","","","html-button-response","133","409139","0.0-133.0","F0E86DE3F75D4187B8B5A154AEF7C6EB","019cf4d7-6063-77f1-9050-a8ad94358d67","019cf4c8-1de8-79ec-b3bd-d98520647593","","1020","
                <div class=""stimulus-container"">
                    <img src=""images/schematic_sequence/restaurant_scheme/restaurant_scheme_6.png"" class=""exp-image"">
                    <div class=""question-area"">
                        <p style=""font-size: 20px; font-weight: bold; margin: 0;"">Is there a person in this image?</p>
                    </div>
                </div>","1","main_experiment_trial","6","restaurant_scheme","schematic_sequence","","","","",""
"","","","","","html-keyboard-response","134","414141","0.0-134.0","F0E86DE3F75D4187B8B5A154AEF7C6EB","019cf4d7-6063-77f1-9050-a8ad94358d67","019cf4c8-1de8-79ec-b3bd-d98520647593","","null","
                <div class=""stimulus-container"">
                    <img src=""images/schematic_sequence/restaurant_scheme/restaurant_scheme_7.png"" class=""exp-image"">
                    <div class=""question-area""></div> 
                </div>","null","","","","","","","","",""
"","","","","","html-button-response","135","415148","0.0-135.0","F0E86DE3F75D4187B8B5A154AEF7C6EB","019cf4d7-6063-77f1-9050-a8ad94358d67","019cf4c8-1de8-79ec-b3bd-d98520647593","","1006","
                <div class=""stimulus-container"">
                    <img src=""images/schematic_sequence/restaurant_scheme/restaurant_scheme_7.png"" class=""exp-image"">
                    <div class=""question-area"">
                        <p style=""font-size: 20px; font-weight: bold; margin: 0;"">Is there a person in this image?</p>
                    </div>
                </div>","1","main_experiment_trial","7","restaurant_scheme","schematic_sequence","","","","",""
"","","","","","html-keyboard-response","136","420150","0.0-136.0","F0E86DE3F75D4187B8B5A154AEF7C6EB","019cf4d7-6063-77f1-9050-a8ad94358d67","019cf4c8-1de8-79ec-b3bd-d98520647593","","null","
                <div class=""stimulus-container"">
                    <img src=""images/schematic_sequence/restaurant_scheme/restaurant_scheme_8.png"" class=""exp-image"">
                    <div class=""question-area""></div> 
                </div>","null","","","","","","","","",""
"","","","","","html-button-response","137","420886","0.0-137.0","F0E86DE3F75D4187B8B5A154AEF7C6EB","019cf4d7-6063-77f1-9050-a8ad94358d67","019cf4c8-1de8-79ec-b3bd-d98520647593","","735","
                <div class=""stimulus-container"">
                    <img src=""images/schematic_sequence/restaurant_scheme/restaurant_scheme_8.png"" class=""exp-image"">
                    <div class=""question-area"">
                        <p style=""font-size: 20px; font-weight: bold; margin: 0;"">Is there a person in this image?</p>
                    </div>
                </div>","0","main_experiment_trial","8","restaurant_scheme","schematic_sequence","","","","",""
"","","","","","html-keyboard-response","138","425889","0.0-138.0","F0E86DE3F75D4187B8B5A154AEF7C6EB","019cf4d7-6063-77f1-9050-a8ad94358d67","019cf4c8-1de8-79ec-b3bd-d98520647593","","null","
                <div class=""stimulus-container"">
                    <img src=""images/schematic_sequence/restaurant_scheme/restaurant_scheme_9.png"" class=""exp-image"">
                    <div class=""question-area""></div> 
                </div>","null","","","","","","","","",""
"","","","","","html-button-response","139","426698","0.0-139.0","F0E86DE3F75D4187B8B5A154AEF7C6EB","019cf4d7-6063-77f1-9050-a8ad94358d67","019cf4c8-1de8-79ec-b3bd-d98520647593","","808","
                <div class=""stimulus-container"">
                    <img src=""images/schematic_sequence/restaurant_scheme/restaurant_scheme_9.png"" class=""exp-image"">
                    <div class=""question-area"">
                        <p style=""font-size: 20px; font-weight: bold; margin: 0;"">Is there a person in this image?</p>
                    </div>
                </div>","0","main_experiment_trial","9","restaurant_scheme","schematic_sequence","","","","",""
"","","","","","html-keyboard-response","140","431709","0.0-140.0","F0E86DE3F75D4187B8B5A154AEF7C6EB","019cf4d7-6063-77f1-9050-a8ad94358d67","019cf4c8-1de8-79ec-b3bd-d98520647593","","null","
                <div class=""stimulus-container"">
                    <img src=""images/schematic_sequence/restaurant_scheme/restaurant_scheme_ten.png"" class=""exp-image"">
                    <div class=""question-area""></div> 
                </div>","null","","","","","","","","",""
"","","","","","html-button-response","141","432335","0.0-141.0","F0E86DE3F75D4187B8B5A154AEF7C6EB","019cf4d7-6063-77f1-9050-a8ad94358d67","019cf4c8-1de8-79ec-b3bd-d98520647593","","624","
                <div class=""stimulus-container"">
                    <img src=""images/schematic_sequence/restaurant_scheme/restaurant_scheme_ten.png"" class=""exp-image"">
                    <div class=""question-area"">
                        <p style=""font-size: 20px; font-weight: bold; margin: 0;"">Is there a person in this image?</p>
                    </div>
                </div>","0","main_experiment_trial","ten","restaurant_scheme","schematic_sequence","","","","",""
"","","","","","html-keyboard-response","142","433338","0.0-142.0","F0E86DE3F75D4187B8B5A154AEF7C6EB","019cf4d7-6063-77f1-9050-a8ad94358d67","019cf4c8-1de8-79ec-b3bd-d98520647593","","null","<div style=""background-color: white; width: 100vw; height: 100vh;""></div>","null","","","","","","","","",""
"","","","","","html-keyboard-response","143","438346","0.0-143.0","F0E86DE3F75D4187B8B5A154AEF7C6EB","019cf4d7-6063-77f1-9050-a8ad94358d67","019cf4c8-1de8-79ec-b3bd-d98520647593","","null","
                <div class=""stimulus-container"">
                    <img src=""images/causal_sequence/package_causal/package_causal_1.png"" class=""exp-image"">
                    <div class=""question-area""></div> 
                </div>","null","","","","","","","","",""
"","","","","","html-button-response","144","439054","0.0-144.0","F0E86DE3F75D4187B8B5A154AEF7C6EB","019cf4d7-6063-77f1-9050-a8ad94358d67","019cf4c8-1de8-79ec-b3bd-d98520647593","","706","
                <div class=""stimulus-container"">
                    <img src=""images/causal_sequence/package_causal/package_causal_1.png"" class=""exp-image"">
                    <div class=""question-area"">
                        <p style=""font-size: 20px; font-weight: bold; margin: 0;"">Is there a person in this image?</p>
                    </div>
                </div>","0","main_experiment_trial","1","package_causal","causal_sequence","","","","",""
"","","","","","html-keyboard-response","145","444060","0.0-145.0","F0E86DE3F75D4187B8B5A154AEF7C6EB","019cf4d7-6063-77f1-9050-a8ad94358d67","019cf4c8-1de8-79ec-b3bd-d98520647593","","null","
                <div class=""stimulus-container"">
                    <img src=""images/causal_sequence/package_causal/package_causal_2.png"" class=""exp-image"">
                    <div class=""question-area""></div> 
                </div>","null","","","","","","","","",""
"","","","","","html-button-response","146","444693","0.0-146.0","F0E86DE3F75D4187B8B5A154AEF7C6EB","019cf4d7-6063-77f1-9050-a8ad94358d67","019cf4c8-1de8-79ec-b3bd-d98520647593","","632","
                <div class=""stimulus-container"">
                    <img src=""images/causal_sequence/package_causal/package_causal_2.png"" class=""exp-image"">
                    <div class=""question-area"">
                        <p style=""font-size: 20px; font-weight: bold; margin: 0;"">Is there a person in this image?</p>
                    </div>
                </div>","0","main_experiment_trial","2","package_causal","causal_sequence","","","","",""
"","","","","","html-keyboard-response","147","449698","0.0-147.0","F0E86DE3F75D4187B8B5A154AEF7C6EB","019cf4d7-6063-77f1-9050-a8ad94358d67","019cf4c8-1de8-79ec-b3bd-d98520647593","","null","
                <div class=""stimulus-container"">
                    <img src=""images/causal_sequence/package_causal/package_causal_3.png"" class=""exp-image"">
                    <div class=""question-area""></div> 
                </div>","null","","","","","","","","",""
"","","","","","html-button-response","148","450251","0.0-148.0","F0E86DE3F75D4187B8B5A154AEF7C6EB","019cf4d7-6063-77f1-9050-a8ad94358d67","019cf4c8-1de8-79ec-b3bd-d98520647593","","551","
                <div class=""stimulus-container"">
                    <img src=""images/causal_sequence/package_causal/package_causal_3.png"" class=""exp-image"">
                    <div class=""question-area"">
                        <p style=""font-size: 20px; font-weight: bold; margin: 0;"">Is there a person in this image?</p>
                    </div>
                </div>","0","main_experiment_trial","3","package_causal","causal_sequence","","","","",""
"","","","","","html-keyboard-response","149","455256","0.0-149.0","F0E86DE3F75D4187B8B5A154AEF7C6EB","019cf4d7-6063-77f1-9050-a8ad94358d67","019cf4c8-1de8-79ec-b3bd-d98520647593","","null","
                <div class=""stimulus-container"">
                    <img src=""images/causal_sequence/package_causal/package_causal_4.png"" class=""exp-image"">
                    <div class=""question-area""></div> 
                </div>","null","","","","","","","","",""
"","","","","","html-button-response","150","456184","0.0-150.0","F0E86DE3F75D4187B8B5A154AEF7C6EB","019cf4d7-6063-77f1-9050-a8ad94358d67","019cf4c8-1de8-79ec-b3bd-d98520647593","","927","
                <div class=""stimulus-container"">
                    <img src=""images/causal_sequence/package_causal/package_causal_4.png"" class=""exp-image"">
                    <div class=""question-area"">
                        <p style=""font-size: 20px; font-weight: bold; margin: 0;"">Is there a person in this image?</p>
                    </div>
                </div>","1","main_experiment_trial","4","package_causal","causal_sequence","","","","",""
"","","","","","html-keyboard-response","151","461193","0.0-151.0","F0E86DE3F75D4187B8B5A154AEF7C6EB","019cf4d7-6063-77f1-9050-a8ad94358d67","019cf4c8-1de8-79ec-b3bd-d98520647593","","null","
                <div class=""stimulus-container"">
                    <img src=""images/causal_sequence/package_causal/package_causal_5.png"" class=""exp-image"">
                    <div class=""question-area""></div> 
                </div>","null","","","","","","","","",""
"","","","","","html-button-response","152","462115","0.0-152.0","F0E86DE3F75D4187B8B5A154AEF7C6EB","019cf4d7-6063-77f1-9050-a8ad94358d67","019cf4c8-1de8-79ec-b3bd-d98520647593","","920","
                <div class=""stimulus-container"">
                    <img src=""images/causal_sequence/package_causal/package_causal_5.png"" class=""exp-image"">
                    <div class=""question-area"">
                        <p style=""font-size: 20px; font-weight: bold; margin: 0;"">Is there a person in this image?</p>
                    </div>
                </div>","0","main_experiment_trial","5","package_causal","causal_sequence","","","","",""
"","","","","","html-keyboard-response","153","467126","0.0-153.0","F0E86DE3F75D4187B8B5A154AEF7C6EB","019cf4d7-6063-77f1-9050-a8ad94358d67","019cf4c8-1de8-79ec-b3bd-d98520647593","","null","
                <div class=""stimulus-container"">
                    <img src=""images/causal_sequence/package_causal/package_causal_6.png"" class=""exp-image"">
                    <div class=""question-area""></div> 
                </div>","null","","","","","","","","",""
"","","","","","html-button-response","154","468149","0.0-154.0","F0E86DE3F75D4187B8B5A154AEF7C6EB","019cf4d7-6063-77f1-9050-a8ad94358d67","019cf4c8-1de8-79ec-b3bd-d98520647593","","1022","
                <div class=""stimulus-container"">
                    <img src=""images/causal_sequence/package_causal/package_causal_6.png"" class=""exp-image"">
                    <div class=""question-area"">
                        <p style=""font-size: 20px; font-weight: bold; margin: 0;"">Is there a person in this image?</p>
                    </div>
                </div>","0","main_experiment_trial","6","package_causal","causal_sequence","","","","",""
"","","","","","html-keyboard-response","155","473167","0.0-155.0","F0E86DE3F75D4187B8B5A154AEF7C6EB","019cf4d7-6063-77f1-9050-a8ad94358d67","019cf4c8-1de8-79ec-b3bd-d98520647593","","null","
                <div class=""stimulus-container"">
                    <img src=""images/causal_sequence/package_causal/package_causal_7.png"" class=""exp-image"">
                    <div class=""question-area""></div> 
                </div>","null","","","","","","","","",""
"","","","","","html-button-response","156","474138","0.0-156.0","F0E86DE3F75D4187B8B5A154AEF7C6EB","019cf4d7-6063-77f1-9050-a8ad94358d67","019cf4c8-1de8-79ec-b3bd-d98520647593","","970","
                <div class=""stimulus-container"">
                    <img src=""images/causal_sequence/package_causal/package_causal_7.png"" class=""exp-image"">
                    <div class=""question-area"">
                        <p style=""font-size: 20px; font-weight: bold; margin: 0;"">Is there a person in this image?</p>
                    </div>
                </div>","0","main_experiment_trial","7","package_causal","causal_sequence","","","","",""
"","","","","","html-keyboard-response","157","479146","0.0-157.0","F0E86DE3F75D4187B8B5A154AEF7C6EB","019cf4d7-6063-77f1-9050-a8ad94358d67","019cf4c8-1de8-79ec-b3bd-d98520647593","","null","
                <div class=""stimulus-container"">
                    <img src=""images/causal_sequence/package_causal/package_causal_8.png"" class=""exp-image"">
                    <div class=""question-area""></div> 
                </div>","null","","","","","","","","",""
"","","","","","html-button-response","158","480048","0.0-158.0","F0E86DE3F75D4187B8B5A154AEF7C6EB","019cf4d7-6063-77f1-9050-a8ad94358d67","019cf4c8-1de8-79ec-b3bd-d98520647593","","900","
                <div class=""stimulus-container"">
                    <img src=""images/causal_sequence/package_causal/package_causal_8.png"" class=""exp-image"">
                    <div class=""question-area"">
                        <p style=""font-size: 20px; font-weight: bold; margin: 0;"">Is there a person in this image?</p>
                    </div>
                </div>","0","main_experiment_trial","8","package_causal","causal_sequence","","","","",""
"","","","","","html-keyboard-response","159","485050","0.0-159.0","F0E86DE3F75D4187B8B5A154AEF7C6EB","019cf4d7-6063-77f1-9050-a8ad94358d67","019cf4c8-1de8-79ec-b3bd-d98520647593","","null","
                <div class=""stimulus-container"">
                    <img src=""images/causal_sequence/package_causal/package_causal_9.png"" class=""exp-image"">
                    <div class=""question-area""></div> 
                </div>","null","","","","","","","","",""
"","","","","","html-button-response","160","485926","0.0-160.0","F0E86DE3F75D4187B8B5A154AEF7C6EB","019cf4d7-6063-77f1-9050-a8ad94358d67","019cf4c8-1de8-79ec-b3bd-d98520647593","","875","
                <div class=""stimulus-container"">
                    <img src=""images/causal_sequence/package_causal/package_causal_9.png"" class=""exp-image"">
                    <div class=""question-area"">
                        <p style=""font-size: 20px; font-weight: bold; margin: 0;"">Is there a person in this image?</p>
                    </div>
                </div>","0","main_experiment_trial","9","package_causal","causal_sequence","","","","",""
"","","","","","html-keyboard-response","161","490939","0.0-161.0","F0E86DE3F75D4187B8B5A154AEF7C6EB","019cf4d7-6063-77f1-9050-a8ad94358d67","019cf4c8-1de8-79ec-b3bd-d98520647593","","null","
                <div class=""stimulus-container"">
                    <img src=""images/causal_sequence/package_causal/package_causal_ten.png"" class=""exp-image"">
                    <div class=""question-area""></div> 
                </div>","null","","","","","","","","",""
"","","","","","html-button-response","162","491982","0.0-162.0","F0E86DE3F75D4187B8B5A154AEF7C6EB","019cf4d7-6063-77f1-9050-a8ad94358d67","019cf4c8-1de8-79ec-b3bd-d98520647593","","1042","
                <div class=""stimulus-container"">
                    <img src=""images/causal_sequence/package_causal/package_causal_ten.png"" class=""exp-image"">
                    <div class=""question-area"">
                        <p style=""font-size: 20px; font-weight: bold; margin: 0;"">Is there a person in this image?</p>
                    </div>
                </div>","0","main_experiment_trial","ten","package_causal","causal_sequence","","","","",""
"","","","","","html-keyboard-response","163","492996","0.0-163.0","F0E86DE3F75D4187B8B5A154AEF7C6EB","019cf4d7-6063-77f1-9050-a8ad94358d67","019cf4c8-1de8-79ec-b3bd-d98520647593","","null","<div style=""background-color: white; width: 100vw; height: 100vh;""></div>","null","","","","","","","","",""
"","","","","","html-keyboard-response","164","497998","0.0-164.0","F0E86DE3F75D4187B8B5A154AEF7C6EB","019cf4d7-6063-77f1-9050-a8ad94358d67","019cf4c8-1de8-79ec-b3bd-d98520647593","","null","
                <div class=""stimulus-container"">
                    <img src=""images/schematic_sequence/interview_scheme/interview_scheme_1.png"" class=""exp-image"">
                    <div class=""question-area""></div> 
                </div>","null","","","","","","","","",""
"","","","","","html-button-response","165","498683","0.0-165.0","F0E86DE3F75D4187B8B5A154AEF7C6EB","019cf4d7-6063-77f1-9050-a8ad94358d67","019cf4c8-1de8-79ec-b3bd-d98520647593","","684","
                <div class=""stimulus-container"">
                    <img src=""images/schematic_sequence/interview_scheme/interview_scheme_1.png"" class=""exp-image"">
                    <div class=""question-area"">
                        <p style=""font-size: 20px; font-weight: bold; margin: 0;"">Is there a person in this image?</p>
                    </div>
                </div>","1","main_experiment_trial","1","interview_scheme","schematic_sequence","","","","",""
"","","","","","html-keyboard-response","166","503685","0.0-166.0","F0E86DE3F75D4187B8B5A154AEF7C6EB","019cf4d7-6063-77f1-9050-a8ad94358d67","019cf4c8-1de8-79ec-b3bd-d98520647593","","null","
                <div class=""stimulus-container"">
                    <img src=""images/schematic_sequence/interview_scheme/interview_scheme_2.png"" class=""exp-image"">
                    <div class=""question-area""></div> 
                </div>","null","","","","","","","","",""
"","","","","","html-button-response","167","504705","0.0-167.0","F0E86DE3F75D4187B8B5A154AEF7C6EB","019cf4d7-6063-77f1-9050-a8ad94358d67","019cf4c8-1de8-79ec-b3bd-d98520647593","","1019","
                <div class=""stimulus-container"">
                    <img src=""images/schematic_sequence/interview_scheme/interview_scheme_2.png"" class=""exp-image"">
                    <div class=""question-area"">
                        <p style=""font-size: 20px; font-weight: bold; margin: 0;"">Is there a person in this image?</p>
                    </div>
                </div>","0","main_experiment_trial","2","interview_scheme","schematic_sequence","","","","",""
"","","","","","html-keyboard-response","168","509710","0.0-168.0","F0E86DE3F75D4187B8B5A154AEF7C6EB","019cf4d7-6063-77f1-9050-a8ad94358d67","019cf4c8-1de8-79ec-b3bd-d98520647593","","null","
                <div class=""stimulus-container"">
                    <img src=""images/schematic_sequence/interview_scheme/interview_scheme_3.png"" class=""exp-image"">
                    <div class=""question-area""></div> 
                </div>","null","","","","","","","","",""
"","","","","","html-button-response","169","510827","0.0-169.0","F0E86DE3F75D4187B8B5A154AEF7C6EB","019cf4d7-6063-77f1-9050-a8ad94358d67","019cf4c8-1de8-79ec-b3bd-d98520647593","","1115","
                <div class=""stimulus-container"">
                    <img src=""images/schematic_sequence/interview_scheme/interview_scheme_3.png"" class=""exp-image"">
                    <div class=""question-area"">
                        <p style=""font-size: 20px; font-weight: bold; margin: 0;"">Is there a person in this image?</p>
                    </div>
                </div>","1","main_experiment_trial","3","interview_scheme","schematic_sequence","","","","",""
"","","","","","html-keyboard-response","170","515833","0.0-170.0","F0E86DE3F75D4187B8B5A154AEF7C6EB","019cf4d7-6063-77f1-9050-a8ad94358d67","019cf4c8-1de8-79ec-b3bd-d98520647593","","null","
                <div class=""stimulus-container"">
                    <img src=""images/schematic_sequence/interview_scheme/interview_scheme_4.png"" class=""exp-image"">
                    <div class=""question-area""></div> 
                </div>","null","","","","","","","","",""
"","","","","","html-button-response","171","516536","0.0-171.0","F0E86DE3F75D4187B8B5A154AEF7C6EB","019cf4d7-6063-77f1-9050-a8ad94358d67","019cf4c8-1de8-79ec-b3bd-d98520647593","","702","
                <div class=""stimulus-container"">
                    <img src=""images/schematic_sequence/interview_scheme/interview_scheme_4.png"" class=""exp-image"">
                    <div class=""question-area"">
                        <p style=""font-size: 20px; font-weight: bold; margin: 0;"">Is there a person in this image?</p>
                    </div>
                </div>","1","main_experiment_trial","4","interview_scheme","schematic_sequence","","","","",""
"","","","","","html-keyboard-response","172","521538","0.0-172.0","F0E86DE3F75D4187B8B5A154AEF7C6EB","019cf4d7-6063-77f1-9050-a8ad94358d67","019cf4c8-1de8-79ec-b3bd-d98520647593","","null","
                <div class=""stimulus-container"">
                    <img src=""images/schematic_sequence/interview_scheme/interview_scheme_5.png"" class=""exp-image"">
                    <div class=""question-area""></div> 
                </div>","null","","","","","","","","",""
"","","","","","html-button-response","173","522393","0.0-173.0","F0E86DE3F75D4187B8B5A154AEF7C6EB","019cf4d7-6063-77f1-9050-a8ad94358d67","019cf4c8-1de8-79ec-b3bd-d98520647593","","853","
                <div class=""stimulus-container"">
                    <img src=""images/schematic_sequence/interview_scheme/interview_scheme_5.png"" class=""exp-image"">
                    <div class=""question-area"">
                        <p style=""font-size: 20px; font-weight: bold; margin: 0;"">Is there a person in this image?</p>
                    </div>
                </div>","0","main_experiment_trial","5","interview_scheme","schematic_sequence","","","","",""
"","","","","","html-keyboard-response","174","527399","0.0-174.0","F0E86DE3F75D4187B8B5A154AEF7C6EB","019cf4d7-6063-77f1-9050-a8ad94358d67","019cf4c8-1de8-79ec-b3bd-d98520647593","","null","
                <div class=""stimulus-container"">
                    <img src=""images/schematic_sequence/interview_scheme/interview_scheme_6.png"" class=""exp-image"">
                    <div class=""question-area""></div> 
                </div>","null","","","","","","","","",""
"","","","","","html-button-response","175","528162","0.0-175.0","F0E86DE3F75D4187B8B5A154AEF7C6EB","019cf4d7-6063-77f1-9050-a8ad94358d67","019cf4c8-1de8-79ec-b3bd-d98520647593","","761","
                <div class=""stimulus-container"">
                    <img src=""images/schematic_sequence/interview_scheme/interview_scheme_6.png"" class=""exp-image"">
                    <div class=""question-area"">
                        <p style=""font-size: 20px; font-weight: bold; margin: 0;"">Is there a person in this image?</p>
                    </div>
                </div>","0","main_experiment_trial","6","interview_scheme","schematic_sequence","","","","",""
"","","","","","html-keyboard-response","176","533176","0.0-176.0","F0E86DE3F75D4187B8B5A154AEF7C6EB","019cf4d7-6063-77f1-9050-a8ad94358d67","019cf4c8-1de8-79ec-b3bd-d98520647593","","null","
                <div class=""stimulus-container"">
                    <img src=""images/schematic_sequence/interview_scheme/interview_scheme_7.png"" class=""exp-image"">
                    <div class=""question-area""></div> 
                </div>","null","","","","","","","","",""
"","","","","","html-button-response","177","534210","0.0-177.0","F0E86DE3F75D4187B8B5A154AEF7C6EB","019cf4d7-6063-77f1-9050-a8ad94358d67","019cf4c8-1de8-79ec-b3bd-d98520647593","","1032","
                <div class=""stimulus-container"">
                    <img src=""images/schematic_sequence/interview_scheme/interview_scheme_7.png"" class=""exp-image"">
                    <div class=""question-area"">
                        <p style=""font-size: 20px; font-weight: bold; margin: 0;"">Is there a person in this image?</p>
                    </div>
                </div>","0","main_experiment_trial","7","interview_scheme","schematic_sequence","","","","",""
"","","","","","html-keyboard-response","178","539219","0.0-178.0","F0E86DE3F75D4187B8B5A154AEF7C6EB","019cf4d7-6063-77f1-9050-a8ad94358d67","019cf4c8-1de8-79ec-b3bd-d98520647593","","null","
                <div class=""stimulus-container"">
                    <img src=""images/schematic_sequence/interview_scheme/interview_scheme_8.png"" class=""exp-image"">
                    <div class=""question-area""></div> 
                </div>","null","","","","","","","","",""
"","","","","","html-button-response","179","540003","0.0-179.0","F0E86DE3F75D4187B8B5A154AEF7C6EB","019cf4d7-6063-77f1-9050-a8ad94358d67","019cf4c8-1de8-79ec-b3bd-d98520647593","","783","
                <div class=""stimulus-container"">
                    <img src=""images/schematic_sequence/interview_scheme/interview_scheme_8.png"" class=""exp-image"">
                    <div class=""question-area"">
                        <p style=""font-size: 20px; font-weight: bold; margin: 0;"">Is there a person in this image?</p>
                    </div>
                </div>","0","main_experiment_trial","8","interview_scheme","schematic_sequence","","","","",""
"","","","","","html-keyboard-response","180","545017","0.0-180.0","F0E86DE3F75D4187B8B5A154AEF7C6EB","019cf4d7-6063-77f1-9050-a8ad94358d67","019cf4c8-1de8-79ec-b3bd-d98520647593","","null","
                <div class=""stimulus-container"">
                    <img src=""images/schematic_sequence/interview_scheme/interview_scheme_9.png"" class=""exp-image"">
                    <div class=""question-area""></div> 
                </div>","null","","","","","","","","",""
"","","","","","html-button-response","181","545764","0.0-181.0","F0E86DE3F75D4187B8B5A154AEF7C6EB","019cf4d7-6063-77f1-9050-a8ad94358d67","019cf4c8-1de8-79ec-b3bd-d98520647593","","745","
                <div class=""stimulus-container"">
                    <img src=""images/schematic_sequence/interview_scheme/interview_scheme_9.png"" class=""exp-image"">
                    <div class=""question-area"">
                        <p style=""font-size: 20px; font-weight: bold; margin: 0;"">Is there a person in this image?</p>
                    </div>
                </div>","0","main_experiment_trial","9","interview_scheme","schematic_sequence","","","","",""
"","","","","","html-keyboard-response","182","550766","0.0-182.0","F0E86DE3F75D4187B8B5A154AEF7C6EB","019cf4d7-6063-77f1-9050-a8ad94358d67","019cf4c8-1de8-79ec-b3bd-d98520647593","","null","
                <div class=""stimulus-container"">
                    <img src=""images/schematic_sequence/interview_scheme/interview_scheme_ten.png"" class=""exp-image"">
                    <div class=""question-area""></div> 
                </div>","null","","","","","","","","",""
