"success","timeout","failed_images","failed_audio","failed_video","trial_type","trial_index","time_elapsed","internal_node_id","subject_id","study_id","session_id","view_history","rt","stimulus","response","task","image_index","folder","valuable_image_index","valuable_X","chosen_image_index","distance_from_X"
"false","false","[]","[]","[]","preload","0","6091","0.0-0.0","D4DBA0000B9C4D8980E02F5238FBAC77","019ce666-b411-7d86-bd44-c1be351605eb","019ce643-47c6-74a0-b3d2-7bf5651ded46","","","","","","","","","","",""
"","","","","","instructions","1","9002","0.0-1.0","D4DBA0000B9C4D8980E02F5238FBAC77","019ce666-b411-7d86-bd44-c1be351605eb","019ce643-47c6-74a0-b3d2-7bf5651ded46","[{""page_index"":0,""viewing_time"":2907}]","2908","","","","","","","","",""
"","","","","","instructions","2","21428","0.0-2.0","D4DBA0000B9C4D8980E02F5238FBAC77","019ce666-b411-7d86-bd44-c1be351605eb","019ce643-47c6-74a0-b3d2-7bf5651ded46","[{""page_index"":0,""viewing_time"":12423}]","12424","","","","","","","","",""
"true","","","","","fullscreen","3","26488","0.0-3.0","D4DBA0000B9C4D8980E02F5238FBAC77","019ce666-b411-7d86-bd44-c1be351605eb","019ce643-47c6-74a0-b3d2-7bf5651ded46","","4057","","","","","","","","",""
"","","","","","instructions","4","33689","0.0-4.0","D4DBA0000B9C4D8980E02F5238FBAC77","019ce666-b411-7d86-bd44-c1be351605eb","019ce643-47c6-74a0-b3d2-7bf5651ded46","[{""page_index"":0,""viewing_time"":7197}]","7198","","","","","","","","",""
"","","","","","instructions","5","48652","0.0-5.0","D4DBA0000B9C4D8980E02F5238FBAC77","019ce666-b411-7d86-bd44-c1be351605eb","019ce643-47c6-74a0-b3d2-7bf5651ded46","[{""page_index"":0,""viewing_time"":14959}]","14960","","","","","","","","",""
"","","","","","html-keyboard-response","6","52658","0.0-6.0","D4DBA0000B9C4D8980E02F5238FBAC77","019ce666-b411-7d86-bd44-c1be351605eb","019ce643-47c6-74a0-b3d2-7bf5651ded46","","null","
                <div class=""stimulus-container"">
                    <img src=""images/instructions/movie_1.png"" class=""exp-image"">
                    <div class=""question-area""></div> 
                </div>","null","","","","","","",""
"","","","","","html-button-response","7","55662","0.0-7.0","D4DBA0000B9C4D8980E02F5238FBAC77","019ce666-b411-7d86-bd44-c1be351605eb","019ce643-47c6-74a0-b3d2-7bf5651ded46","","null","
                <div class=""stimulus-container"">
                    <img src=""images/instructions/movie_1.png"" class=""exp-image"">
                    <div class=""question-area"">
                        <p style=""font-size: 20px; font-weight: bold; margin: 0;"">Was there a person in this image?</p>
                    </div>
                </div>","null","example_question","1","","","","",""
"","","","","","html-keyboard-response","8","59665","0.0-8.0","D4DBA0000B9C4D8980E02F5238FBAC77","019ce666-b411-7d86-bd44-c1be351605eb","019ce643-47c6-74a0-b3d2-7bf5651ded46","","null","
                <div class=""stimulus-container"">
                    <img src=""images/instructions/movie_2.png"" class=""exp-image"">
                    <div class=""question-area""></div> 
                </div>","null","","","","","","",""
"","","","","","html-button-response","9","61470","0.0-9.0","D4DBA0000B9C4D8980E02F5238FBAC77","019ce666-b411-7d86-bd44-c1be351605eb","019ce643-47c6-74a0-b3d2-7bf5651ded46","","1801","
                <div class=""stimulus-container"">
                    <img src=""images/instructions/movie_2.png"" class=""exp-image"">
                    <div class=""question-area"">
                        <p style=""font-size: 20px; font-weight: bold; margin: 0;"">Was there a person in this image?</p>
                    </div>
                </div>","1","example_question","2","","","","",""
"","","","","","html-keyboard-response","10","65472","0.0-10.0","D4DBA0000B9C4D8980E02F5238FBAC77","019ce666-b411-7d86-bd44-c1be351605eb","019ce643-47c6-74a0-b3d2-7bf5651ded46","","null","
                <div class=""stimulus-container"">
                    <img src=""images/instructions/movie_3.png"" class=""exp-image"">
                    <div class=""question-area""></div> 
                </div>","null","","","","","","",""
"","","","","","html-button-response","11","66381","0.0-11.0","D4DBA0000B9C4D8980E02F5238FBAC77","019ce666-b411-7d86-bd44-c1be351605eb","019ce643-47c6-74a0-b3d2-7bf5651ded46","","907","
                <div class=""stimulus-container"">
                    <img src=""images/instructions/movie_3.png"" class=""exp-image"">
                    <div class=""question-area"">
                        <p style=""font-size: 20px; font-weight: bold; margin: 0;"">Was there a person in this image?</p>
                    </div>
                </div>","0","example_question","3","","","","",""
"","","","","","html-keyboard-response","12","70383","0.0-12.0","D4DBA0000B9C4D8980E02F5238FBAC77","019ce666-b411-7d86-bd44-c1be351605eb","019ce643-47c6-74a0-b3d2-7bf5651ded46","","null","
                <div class=""stimulus-container"">
                    <img src=""images/instructions/movie_4.png"" class=""exp-image"">
                    <div class=""question-area""></div> 
                </div>","null","","","","","","",""
"","","","","","html-button-response","13","70953","0.0-13.0","D4DBA0000B9C4D8980E02F5238FBAC77","019ce666-b411-7d86-bd44-c1be351605eb","019ce643-47c6-74a0-b3d2-7bf5651ded46","","567","
                <div class=""stimulus-container"">
                    <img src=""images/instructions/movie_4.png"" class=""exp-image"">
                    <div class=""question-area"">
                        <p style=""font-size: 20px; font-weight: bold; margin: 0;"">Was there a person in this image?</p>
                    </div>
                </div>","0","example_question","4","","","","",""
"","","","","","instructions","14","73629","0.0-14.0","D4DBA0000B9C4D8980E02F5238FBAC77","019ce666-b411-7d86-bd44-c1be351605eb","019ce643-47c6-74a0-b3d2-7bf5651ded46","[{""page_index"":0,""viewing_time"":2674}]","2675","","","","","","","","",""
"","","","","","html-keyboard-response","15","74631","0.0-15.0","D4DBA0000B9C4D8980E02F5238FBAC77","019ce666-b411-7d86-bd44-c1be351605eb","019ce643-47c6-74a0-b3d2-7bf5651ded46","","null","<div style=""background-color: gray; width: 100vw; height: 100vh;""></div>","null","","","","","","",""
"","","","","","html-keyboard-response","16","79634","0.0-16.0","D4DBA0000B9C4D8980E02F5238FBAC77","019ce666-b411-7d86-bd44-c1be351605eb","019ce643-47c6-74a0-b3d2-7bf5651ded46","","null","
                    <div class=""stimulus-container"">
                        <img src=""images/causal_sequence/coin_causal/coin_causal_1.png"" class=""exp-image"">
                        <div class=""question-area""></div> 
                    </div>","null","","","","","","",""
"","","","","","html-button-response","17","81052","0.0-17.0","D4DBA0000B9C4D8980E02F5238FBAC77","019ce666-b411-7d86-bd44-c1be351605eb","019ce643-47c6-74a0-b3d2-7bf5651ded46","","1415","
                    <div class=""stimulus-container"">
                        <img src=""images/causal_sequence/coin_causal/coin_causal_1.png"" class=""exp-image"">
                        <div class=""question-area"">
                            <p style=""font-size: 20px; font-weight: bold; margin: 0;"">Is there a person in this image?</p>
                        </div>
                    </div>","0","main_causal_task","1","coin_causal","","","",""
"","","","","","html-keyboard-response","18","86055","0.0-18.0","D4DBA0000B9C4D8980E02F5238FBAC77","019ce666-b411-7d86-bd44-c1be351605eb","019ce643-47c6-74a0-b3d2-7bf5651ded46","","null","
                    <div class=""stimulus-container"">
                        <img src=""images/causal_sequence/coin_causal/coin_causal_2.png"" class=""exp-image"">
                        <div class=""question-area""></div> 
                    </div>","null","","","","","","",""
"","","","","","html-button-response","19","87129","0.0-19.0","D4DBA0000B9C4D8980E02F5238FBAC77","019ce666-b411-7d86-bd44-c1be351605eb","019ce643-47c6-74a0-b3d2-7bf5651ded46","","1070","
                    <div class=""stimulus-container"">
                        <img src=""images/causal_sequence/coin_causal/coin_causal_2.png"" class=""exp-image"">
                        <div class=""question-area"">
                            <p style=""font-size: 20px; font-weight: bold; margin: 0;"">Is there a person in this image?</p>
                        </div>
                    </div>","0","main_causal_task","2","coin_causal","","","",""
"","","","","","html-keyboard-response","20","92132","0.0-20.0","D4DBA0000B9C4D8980E02F5238FBAC77","019ce666-b411-7d86-bd44-c1be351605eb","019ce643-47c6-74a0-b3d2-7bf5651ded46","","null","
                    <div class=""stimulus-container"">
                        <img src=""images/causal_sequence/coin_causal/coin_causal_3.png"" class=""exp-image"">
                        <div class=""question-area""></div> 
                    </div>","null","","","","","","",""
"","","","","","html-button-response","21","93010","0.0-21.0","D4DBA0000B9C4D8980E02F5238FBAC77","019ce666-b411-7d86-bd44-c1be351605eb","019ce643-47c6-74a0-b3d2-7bf5651ded46","","875","
                    <div class=""stimulus-container"">
                        <img src=""images/causal_sequence/coin_causal/coin_causal_3.png"" class=""exp-image"">
                        <div class=""question-area"">
                            <p style=""font-size: 20px; font-weight: bold; margin: 0;"">Is there a person in this image?</p>
                        </div>
                    </div>","0","main_causal_task","3","coin_causal","","","",""
"","","","","","html-keyboard-response","22","98013","0.0-22.0","D4DBA0000B9C4D8980E02F5238FBAC77","019ce666-b411-7d86-bd44-c1be351605eb","019ce643-47c6-74a0-b3d2-7bf5651ded46","","null","
                    <div class=""stimulus-container"">
                        <img src=""images/causal_sequence/coin_causal/coin_causal_4.png"" class=""exp-image"">
                        <div class=""question-area""></div> 
                    </div>","null","","","","","","",""
"","","","","","html-button-response","23","98927","0.0-23.0","D4DBA0000B9C4D8980E02F5238FBAC77","019ce666-b411-7d86-bd44-c1be351605eb","019ce643-47c6-74a0-b3d2-7bf5651ded46","","911","
                    <div class=""stimulus-container"">
                        <img src=""images/causal_sequence/coin_causal/coin_causal_4.png"" class=""exp-image"">
                        <div class=""question-area"">
                            <p style=""font-size: 20px; font-weight: bold; margin: 0;"">Is there a person in this image?</p>
                        </div>
                    </div>","0","main_causal_task","4","coin_causal","","","",""
"","","","","","html-keyboard-response","24","103930","0.0-24.0","D4DBA0000B9C4D8980E02F5238FBAC77","019ce666-b411-7d86-bd44-c1be351605eb","019ce643-47c6-74a0-b3d2-7bf5651ded46","","null","
                    <div class=""stimulus-container"">
                        <img src=""images/causal_sequence/coin_causal/coin_causal_5.png"" class=""exp-image"">
                        <div class=""question-area""></div> 
                    </div>","null","","","","","","",""
"","","","","","html-button-response","25","104616","0.0-25.0","D4DBA0000B9C4D8980E02F5238FBAC77","019ce666-b411-7d86-bd44-c1be351605eb","019ce643-47c6-74a0-b3d2-7bf5651ded46","","683","
                    <div class=""stimulus-container"">
                        <img src=""images/causal_sequence/coin_causal/coin_causal_5.png"" class=""exp-image"">
                        <div class=""question-area"">
                            <p style=""font-size: 20px; font-weight: bold; margin: 0;"">Is there a person in this image?</p>
                        </div>
                    </div>","0","main_causal_task","5","coin_causal","","","",""
"","","","","","html-keyboard-response","26","109619","0.0-26.0","D4DBA0000B9C4D8980E02F5238FBAC77","019ce666-b411-7d86-bd44-c1be351605eb","019ce643-47c6-74a0-b3d2-7bf5651ded46","","null","
                    <div class=""stimulus-container"">
                        <img src=""images/causal_sequence/coin_causal/coin_causal_6.png"" class=""exp-image"">
                        <div class=""question-area""></div> 
                    </div>","null","","","","","","",""
"","","","","","html-button-response","27","110178","0.0-27.0","D4DBA0000B9C4D8980E02F5238FBAC77","019ce666-b411-7d86-bd44-c1be351605eb","019ce643-47c6-74a0-b3d2-7bf5651ded46","","557","
                    <div class=""stimulus-container"">
                        <img src=""images/causal_sequence/coin_causal/coin_causal_6.png"" class=""exp-image"">
                        <div class=""question-area"">
                            <p style=""font-size: 20px; font-weight: bold; margin: 0;"">Is there a person in this image?</p>
                        </div>
                    </div>","0","main_causal_task","6","coin_causal","","","",""
"","","","","","html-keyboard-response","28","115181","0.0-28.0","D4DBA0000B9C4D8980E02F5238FBAC77","019ce666-b411-7d86-bd44-c1be351605eb","019ce643-47c6-74a0-b3d2-7bf5651ded46","","null","
                    <div class=""stimulus-container"">
                        <img src=""images/causal_sequence/coin_causal/coin_causal_7.png"" class=""exp-image"">
                        <div class=""question-area""></div> 
                    </div>","null","","","","","","",""
"","","","","","html-button-response","29","116104","0.0-29.0","D4DBA0000B9C4D8980E02F5238FBAC77","019ce666-b411-7d86-bd44-c1be351605eb","019ce643-47c6-74a0-b3d2-7bf5651ded46","","921","
                    <div class=""stimulus-container"">
                        <img src=""images/causal_sequence/coin_causal/coin_causal_7.png"" class=""exp-image"">
                        <div class=""question-area"">
                            <p style=""font-size: 20px; font-weight: bold; margin: 0;"">Is there a person in this image?</p>
                        </div>
                    </div>","1","main_causal_task","7","coin_causal","","","",""
"","","","","","html-keyboard-response","30","121106","0.0-30.0","D4DBA0000B9C4D8980E02F5238FBAC77","019ce666-b411-7d86-bd44-c1be351605eb","019ce643-47c6-74a0-b3d2-7bf5651ded46","","null","
                    <div class=""stimulus-container"">
                        <img src=""images/causal_sequence/coin_causal/coin_causal_8.png"" class=""exp-image"">
                        <div class=""question-area""></div> 
                    </div>","null","","","","","","",""
"","","","","","html-button-response","31","124109","0.0-31.0","D4DBA0000B9C4D8980E02F5238FBAC77","019ce666-b411-7d86-bd44-c1be351605eb","019ce643-47c6-74a0-b3d2-7bf5651ded46","","null","
                    <div class=""stimulus-container"">
                        <img src=""images/causal_sequence/coin_causal/coin_causal_8.png"" class=""exp-image"">
                        <div class=""question-area"">
                            <p style=""font-size: 20px; font-weight: bold; margin: 0;"">Is there a person in this image?</p>
                        </div>
                    </div>","null","main_causal_task","8","coin_causal","","","",""
"","","","","","html-keyboard-response","32","129111","0.0-32.0","D4DBA0000B9C4D8980E02F5238FBAC77","019ce666-b411-7d86-bd44-c1be351605eb","019ce643-47c6-74a0-b3d2-7bf5651ded46","","null","
                    <div class=""stimulus-container"">
                        <img src=""images/causal_sequence/coin_causal/coin_causal_9.png"" class=""exp-image"">
                        <div class=""question-area""></div> 
                    </div>","null","","","","","","",""
"","","","","","html-button-response","33","131067","0.0-33.0","D4DBA0000B9C4D8980E02F5238FBAC77","019ce666-b411-7d86-bd44-c1be351605eb","019ce643-47c6-74a0-b3d2-7bf5651ded46","","1953","
                    <div class=""stimulus-container"">
                        <img src=""images/causal_sequence/coin_causal/coin_causal_9.png"" class=""exp-image"">
                        <div class=""question-area"">
                            <p style=""font-size: 20px; font-weight: bold; margin: 0;"">Is there a person in this image?</p>
                        </div>
                    </div>","0","main_causal_task","9","coin_causal","","","",""
"","","","","","html-keyboard-response","34","132069","0.0-34.0","D4DBA0000B9C4D8980E02F5238FBAC77","019ce666-b411-7d86-bd44-c1be351605eb","019ce643-47c6-74a0-b3d2-7bf5651ded46","","null","<div style=""background-color: gray; width: 100vw; height: 100vh;""></div>","null","","","","","","",""
"","","","","","html-keyboard-response","35","137071","0.0-35.0","D4DBA0000B9C4D8980E02F5238FBAC77","019ce666-b411-7d86-bd44-c1be351605eb","019ce643-47c6-74a0-b3d2-7bf5651ded46","","null","
                    <div class=""stimulus-container"">
                        <img src=""images/causal_sequence/museum_causal/museum_causal_1.png"" class=""exp-image"">
                        <div class=""question-area""></div> 
                    </div>","null","","","","","","",""
"","","","","","html-button-response","36","138692","0.0-36.0","D4DBA0000B9C4D8980E02F5238FBAC77","019ce666-b411-7d86-bd44-c1be351605eb","019ce643-47c6-74a0-b3d2-7bf5651ded46","","1618","
                    <div class=""stimulus-container"">
                        <img src=""images/causal_sequence/museum_causal/museum_causal_1.png"" class=""exp-image"">
                        <div class=""question-area"">
                            <p style=""font-size: 20px; font-weight: bold; margin: 0;"">Is there a person in this image?</p>
                        </div>
                    </div>","0","main_causal_task","1","museum_causal","","","",""
"","","","","","html-keyboard-response","37","143695","0.0-37.0","D4DBA0000B9C4D8980E02F5238FBAC77","019ce666-b411-7d86-bd44-c1be351605eb","019ce643-47c6-74a0-b3d2-7bf5651ded46","","null","
                    <div class=""stimulus-container"">
                        <img src=""images/causal_sequence/museum_causal/museum_causal_2.png"" class=""exp-image"">
                        <div class=""question-area""></div> 
                    </div>","null","","","","","","",""
"","","","","","html-button-response","38","144679","0.0-38.0","D4DBA0000B9C4D8980E02F5238FBAC77","019ce666-b411-7d86-bd44-c1be351605eb","019ce643-47c6-74a0-b3d2-7bf5651ded46","","980","
                    <div class=""stimulus-container"">
                        <img src=""images/causal_sequence/museum_causal/museum_causal_2.png"" class=""exp-image"">
                        <div class=""question-area"">
                            <p style=""font-size: 20px; font-weight: bold; margin: 0;"">Is there a person in this image?</p>
                        </div>
                    </div>","0","main_causal_task","2","museum_causal","","","",""
"","","","","","html-keyboard-response","39","149682","0.0-39.0","D4DBA0000B9C4D8980E02F5238FBAC77","019ce666-b411-7d86-bd44-c1be351605eb","019ce643-47c6-74a0-b3d2-7bf5651ded46","","null","
                    <div class=""stimulus-container"">
                        <img src=""images/causal_sequence/museum_causal/museum_causal_3.png"" class=""exp-image"">
                        <div class=""question-area""></div> 
                    </div>","null","","","","","","",""
"","","","","","html-button-response","40","150826","0.0-40.0","D4DBA0000B9C4D8980E02F5238FBAC77","019ce666-b411-7d86-bd44-c1be351605eb","019ce643-47c6-74a0-b3d2-7bf5651ded46","","1142","
                    <div class=""stimulus-container"">
                        <img src=""images/causal_sequence/museum_causal/museum_causal_3.png"" class=""exp-image"">
                        <div class=""question-area"">
                            <p style=""font-size: 20px; font-weight: bold; margin: 0;"">Is there a person in this image?</p>
                        </div>
                    </div>","0","main_causal_task","3","museum_causal","","","",""
"","","","","","html-keyboard-response","41","155829","0.0-41.0","D4DBA0000B9C4D8980E02F5238FBAC77","019ce666-b411-7d86-bd44-c1be351605eb","019ce643-47c6-74a0-b3d2-7bf5651ded46","","null","
                    <div class=""stimulus-container"">
                        <img src=""images/causal_sequence/museum_causal/museum_causal_4.png"" class=""exp-image"">
                        <div class=""question-area""></div> 
                    </div>","null","","","","","","",""
"","","","","","html-button-response","42","157010","0.0-42.0","D4DBA0000B9C4D8980E02F5238FBAC77","019ce666-b411-7d86-bd44-c1be351605eb","019ce643-47c6-74a0-b3d2-7bf5651ded46","","1177","
                    <div class=""stimulus-container"">
                        <img src=""images/causal_sequence/museum_causal/museum_causal_4.png"" class=""exp-image"">
                        <div class=""question-area"">
                            <p style=""font-size: 20px; font-weight: bold; margin: 0;"">Is there a person in this image?</p>
                        </div>
                    </div>","0","main_causal_task","4","museum_causal","","","",""
"","","","","","html-keyboard-response","43","162013","0.0-43.0","D4DBA0000B9C4D8980E02F5238FBAC77","019ce666-b411-7d86-bd44-c1be351605eb","019ce643-47c6-74a0-b3d2-7bf5651ded46","","null","
                    <div class=""stimulus-container"">
                        <img src=""images/causal_sequence/museum_causal/museum_causal_5.png"" class=""exp-image"">
                        <div class=""question-area""></div> 
                    </div>","null","","","","","","",""
"","","","","","html-button-response","44","163003","0.0-44.0","D4DBA0000B9C4D8980E02F5238FBAC77","019ce666-b411-7d86-bd44-c1be351605eb","019ce643-47c6-74a0-b3d2-7bf5651ded46","","987","
                    <div class=""stimulus-container"">
                        <img src=""images/causal_sequence/museum_causal/museum_causal_5.png"" class=""exp-image"">
                        <div class=""question-area"">
                            <p style=""font-size: 20px; font-weight: bold; margin: 0;"">Is there a person in this image?</p>
                        </div>
                    </div>","0","main_causal_task","5","museum_causal","","","",""
"","","","","","html-keyboard-response","45","168006","0.0-45.0","D4DBA0000B9C4D8980E02F5238FBAC77","019ce666-b411-7d86-bd44-c1be351605eb","019ce643-47c6-74a0-b3d2-7bf5651ded46","","null","
                    <div class=""stimulus-container"">
                        <img src=""images/causal_sequence/museum_causal/museum_causal_6.png"" class=""exp-image"">
                        <div class=""question-area""></div> 
                    </div>","null","","","","","","",""
"","","","","","html-button-response","46","168643","0.0-46.0","D4DBA0000B9C4D8980E02F5238FBAC77","019ce666-b411-7d86-bd44-c1be351605eb","019ce643-47c6-74a0-b3d2-7bf5651ded46","","634","
                    <div class=""stimulus-container"">
                        <img src=""images/causal_sequence/museum_causal/museum_causal_6.png"" class=""exp-image"">
                        <div class=""question-area"">
                            <p style=""font-size: 20px; font-weight: bold; margin: 0;"">Is there a person in this image?</p>
                        </div>
                    </div>","0","main_causal_task","6","museum_causal","","","",""
"","","","","","html-keyboard-response","47","173645","0.0-47.0","D4DBA0000B9C4D8980E02F5238FBAC77","019ce666-b411-7d86-bd44-c1be351605eb","019ce643-47c6-74a0-b3d2-7bf5651ded46","","null","
                    <div class=""stimulus-container"">
                        <img src=""images/causal_sequence/museum_causal/museum_causal_7.png"" class=""exp-image"">
                        <div class=""question-area""></div> 
                    </div>","null","","","","","","",""
"","","","","","html-button-response","48","174407","0.0-48.0","D4DBA0000B9C4D8980E02F5238FBAC77","019ce666-b411-7d86-bd44-c1be351605eb","019ce643-47c6-74a0-b3d2-7bf5651ded46","","758","
                    <div class=""stimulus-container"">
                        <img src=""images/causal_sequence/museum_causal/museum_causal_7.png"" class=""exp-image"">
                        <div class=""question-area"">
                            <p style=""font-size: 20px; font-weight: bold; margin: 0;"">Is there a person in this image?</p>
                        </div>
                    </div>","0","main_causal_task","7","museum_causal","","","",""
"","","","","","html-keyboard-response","49","179410","0.0-49.0","D4DBA0000B9C4D8980E02F5238FBAC77","019ce666-b411-7d86-bd44-c1be351605eb","019ce643-47c6-74a0-b3d2-7bf5651ded46","","null","
                    <div class=""stimulus-container"">
                        <img src=""images/causal_sequence/museum_causal/museum_causal_8.png"" class=""exp-image"">
                        <div class=""question-area""></div> 
                    </div>","null","","","","","","",""
"","","","","","html-button-response","50","180571","0.0-50.0","D4DBA0000B9C4D8980E02F5238FBAC77","019ce666-b411-7d86-bd44-c1be351605eb","019ce643-47c6-74a0-b3d2-7bf5651ded46","","1158","
                    <div class=""stimulus-container"">
                        <img src=""images/causal_sequence/museum_causal/museum_causal_8.png"" class=""exp-image"">
                        <div class=""question-area"">
                            <p style=""font-size: 20px; font-weight: bold; margin: 0;"">Is there a person in this image?</p>
                        </div>
                    </div>","0","main_causal_task","8","museum_causal","","","",""
"","","","","","html-keyboard-response","51","185574","0.0-51.0","D4DBA0000B9C4D8980E02F5238FBAC77","019ce666-b411-7d86-bd44-c1be351605eb","019ce643-47c6-74a0-b3d2-7bf5651ded46","","null","
                    <div class=""stimulus-container"">
                        <img src=""images/causal_sequence/museum_causal/museum_causal_9.png"" class=""exp-image"">
                        <div class=""question-area""></div> 
                    </div>","null","","","","","","",""
"","","","","","html-button-response","52","186923","0.0-52.0","D4DBA0000B9C4D8980E02F5238FBAC77","019ce666-b411-7d86-bd44-c1be351605eb","019ce643-47c6-74a0-b3d2-7bf5651ded46","","1346","
                    <div class=""stimulus-container"">
                        <img src=""images/causal_sequence/museum_causal/museum_causal_9.png"" class=""exp-image"">
                        <div class=""question-area"">
                            <p style=""font-size: 20px; font-weight: bold; margin: 0;"">Is there a person in this image?</p>
                        </div>
                    </div>","0","main_causal_task","9","museum_causal","","","",""
"","","","","","html-keyboard-response","53","187925","0.0-53.0","D4DBA0000B9C4D8980E02F5238FBAC77","019ce666-b411-7d86-bd44-c1be351605eb","019ce643-47c6-74a0-b3d2-7bf5651ded46","","null","<div style=""background-color: gray; width: 100vw; height: 100vh;""></div>","null","","","","","","",""
"","","","","","html-keyboard-response","54","192927","0.0-54.0","D4DBA0000B9C4D8980E02F5238FBAC77","019ce666-b411-7d86-bd44-c1be351605eb","019ce643-47c6-74a0-b3d2-7bf5651ded46","","null","
                    <div class=""stimulus-container"">
                        <img src=""images/causal_sequence/saving_a_cat_causal/saving_a_cat_causal_1.png"" class=""exp-image"">
                        <div class=""question-area""></div> 
                    </div>","null","","","","","","",""
"","","","","","html-button-response","55","193685","0.0-55.0","D4DBA0000B9C4D8980E02F5238FBAC77","019ce666-b411-7d86-bd44-c1be351605eb","019ce643-47c6-74a0-b3d2-7bf5651ded46","","755","
                    <div class=""stimulus-container"">
                        <img src=""images/causal_sequence/saving_a_cat_causal/saving_a_cat_causal_1.png"" class=""exp-image"">
                        <div class=""question-area"">
                            <p style=""font-size: 20px; font-weight: bold; margin: 0;"">Is there a person in this image?</p>
                        </div>
                    </div>","0","main_causal_task","1","saving_a_cat_causal","","","",""
"","","","","","html-keyboard-response","56","198687","0.0-56.0","D4DBA0000B9C4D8980E02F5238FBAC77","019ce666-b411-7d86-bd44-c1be351605eb","019ce643-47c6-74a0-b3d2-7bf5651ded46","","null","
                    <div class=""stimulus-container"">
                        <img src=""images/causal_sequence/saving_a_cat_causal/saving_a_cat_causal_2.png"" class=""exp-image"">
                        <div class=""question-area""></div> 
                    </div>","null","","","","","","",""
"","","","","","html-button-response","57","199530","0.0-57.0","D4DBA0000B9C4D8980E02F5238FBAC77","019ce666-b411-7d86-bd44-c1be351605eb","019ce643-47c6-74a0-b3d2-7bf5651ded46","","838","
                    <div class=""stimulus-container"">
                        <img src=""images/causal_sequence/saving_a_cat_causal/saving_a_cat_causal_2.png"" class=""exp-image"">
                        <div class=""question-area"">
                            <p style=""font-size: 20px; font-weight: bold; margin: 0;"">Is there a person in this image?</p>
                        </div>
                    </div>","1","main_causal_task","2","saving_a_cat_causal","","","",""
"","","","","","html-keyboard-response","58","204534","0.0-58.0","D4DBA0000B9C4D8980E02F5238FBAC77","019ce666-b411-7d86-bd44-c1be351605eb","019ce643-47c6-74a0-b3d2-7bf5651ded46","","null","
                    <div class=""stimulus-container"">
                        <img src=""images/causal_sequence/saving_a_cat_causal/saving_a_cat_causal_3.png"" class=""exp-image"">
                        <div class=""question-area""></div> 
                    </div>","null","","","","","","",""
"","","","","","html-button-response","59","205147","0.0-59.0","D4DBA0000B9C4D8980E02F5238FBAC77","019ce666-b411-7d86-bd44-c1be351605eb","019ce643-47c6-74a0-b3d2-7bf5651ded46","","609","
                    <div class=""stimulus-container"">
                        <img src=""images/causal_sequence/saving_a_cat_causal/saving_a_cat_causal_3.png"" class=""exp-image"">
                        <div class=""question-area"">
                            <p style=""font-size: 20px; font-weight: bold; margin: 0;"">Is there a person in this image?</p>
                        </div>
                    </div>","1","main_causal_task","3","saving_a_cat_causal","","","",""
"","","","","","html-keyboard-response","60","210150","0.0-60.0","D4DBA0000B9C4D8980E02F5238FBAC77","019ce666-b411-7d86-bd44-c1be351605eb","019ce643-47c6-74a0-b3d2-7bf5651ded46","","null","
                    <div class=""stimulus-container"">
                        <img src=""images/causal_sequence/saving_a_cat_causal/saving_a_cat_causal_4.png"" class=""exp-image"">
                        <div class=""question-area""></div> 
                    </div>","null","","","","","","",""
"","","","","","html-button-response","61","213103","0.0-61.0","D4DBA0000B9C4D8980E02F5238FBAC77","019ce666-b411-7d86-bd44-c1be351605eb","019ce643-47c6-74a0-b3d2-7bf5651ded46","","2951","
                    <div class=""stimulus-container"">
                        <img src=""images/causal_sequence/saving_a_cat_causal/saving_a_cat_causal_4.png"" class=""exp-image"">
                        <div class=""question-area"">
                            <p style=""font-size: 20px; font-weight: bold; margin: 0;"">Is there a person in this image?</p>
                        </div>
                    </div>","0","main_causal_task","4","saving_a_cat_causal","","","",""
"","","","","","html-keyboard-response","62","218105","0.0-62.0","D4DBA0000B9C4D8980E02F5238FBAC77","019ce666-b411-7d86-bd44-c1be351605eb","019ce643-47c6-74a0-b3d2-7bf5651ded46","","null","
                    <div class=""stimulus-container"">
                        <img src=""images/causal_sequence/saving_a_cat_causal/saving_a_cat_causal_5.png"" class=""exp-image"">
                        <div class=""question-area""></div> 
                    </div>","null","","","","","","",""
"","","","","","html-button-response","63","219626","0.0-63.0","D4DBA0000B9C4D8980E02F5238FBAC77","019ce666-b411-7d86-bd44-c1be351605eb","019ce643-47c6-74a0-b3d2-7bf5651ded46","","1518","
                    <div class=""stimulus-container"">
                        <img src=""images/causal_sequence/saving_a_cat_causal/saving_a_cat_causal_5.png"" class=""exp-image"">
                        <div class=""question-area"">
                            <p style=""font-size: 20px; font-weight: bold; margin: 0;"">Is there a person in this image?</p>
                        </div>
                    </div>","0","main_causal_task","5","saving_a_cat_causal","","","",""
"","","","","","html-keyboard-response","64","224630","0.0-64.0","D4DBA0000B9C4D8980E02F5238FBAC77","019ce666-b411-7d86-bd44-c1be351605eb","019ce643-47c6-74a0-b3d2-7bf5651ded46","","null","
                    <div class=""stimulus-container"">
                        <img src=""images/causal_sequence/saving_a_cat_causal/saving_a_cat_causal_6.png"" class=""exp-image"">
                        <div class=""question-area""></div> 
                    </div>","null","","","","","","",""
"","","","","","html-button-response","65","225398","0.0-65.0","D4DBA0000B9C4D8980E02F5238FBAC77","019ce666-b411-7d86-bd44-c1be351605eb","019ce643-47c6-74a0-b3d2-7bf5651ded46","","765","
                    <div class=""stimulus-container"">
                        <img src=""images/causal_sequence/saving_a_cat_causal/saving_a_cat_causal_6.png"" class=""exp-image"">
                        <div class=""question-area"">
                            <p style=""font-size: 20px; font-weight: bold; margin: 0;"">Is there a person in this image?</p>
                        </div>
                    </div>","0","main_causal_task","6","saving_a_cat_causal","","","",""
"","","","","","html-keyboard-response","66","230401","0.0-66.0","D4DBA0000B9C4D8980E02F5238FBAC77","019ce666-b411-7d86-bd44-c1be351605eb","019ce643-47c6-74a0-b3d2-7bf5651ded46","","null","
                    <div class=""stimulus-container"">
                        <img src=""images/causal_sequence/saving_a_cat_causal/saving_a_cat_causal_7.png"" class=""exp-image"">
                        <div class=""question-area""></div> 
                    </div>","null","","","","","","",""
"","","","","","html-button-response","67","230984","0.0-67.0","D4DBA0000B9C4D8980E02F5238FBAC77","019ce666-b411-7d86-bd44-c1be351605eb","019ce643-47c6-74a0-b3d2-7bf5651ded46","","580","
                    <div class=""stimulus-container"">
                        <img src=""images/causal_sequence/saving_a_cat_causal/saving_a_cat_causal_7.png"" class=""exp-image"">
                        <div class=""question-area"">
                            <p style=""font-size: 20px; font-weight: bold; margin: 0;"">Is there a person in this image?</p>
                        </div>
                    </div>","0","main_causal_task","7","saving_a_cat_causal","","","",""
"","","","","","html-keyboard-response","68","235986","0.0-68.0","D4DBA0000B9C4D8980E02F5238FBAC77","019ce666-b411-7d86-bd44-c1be351605eb","019ce643-47c6-74a0-b3d2-7bf5651ded46","","null","
                    <div class=""stimulus-container"">
                        <img src=""images/causal_sequence/saving_a_cat_causal/saving_a_cat_causal_8.png"" class=""exp-image"">
                        <div class=""question-area""></div> 
                    </div>","null","","","","","","",""
"","","","","","html-button-response","69","236527","0.0-69.0","D4DBA0000B9C4D8980E02F5238FBAC77","019ce666-b411-7d86-bd44-c1be351605eb","019ce643-47c6-74a0-b3d2-7bf5651ded46","","538","
                    <div class=""stimulus-container"">
                        <img src=""images/causal_sequence/saving_a_cat_causal/saving_a_cat_causal_8.png"" class=""exp-image"">
                        <div class=""question-area"">
                            <p style=""font-size: 20px; font-weight: bold; margin: 0;"">Is there a person in this image?</p>
                        </div>
                    </div>","0","main_causal_task","8","saving_a_cat_causal","","","",""
"","","","","","html-keyboard-response","70","241530","0.0-70.0","D4DBA0000B9C4D8980E02F5238FBAC77","019ce666-b411-7d86-bd44-c1be351605eb","019ce643-47c6-74a0-b3d2-7bf5651ded46","","null","
                    <div class=""stimulus-container"">
                        <img src=""images/causal_sequence/saving_a_cat_causal/saving_a_cat_causal_9.png"" class=""exp-image"">
                        <div class=""question-area""></div> 
                    </div>","null","","","","","","",""
"","","","","","html-button-response","71","242248","0.0-71.0","D4DBA0000B9C4D8980E02F5238FBAC77","019ce666-b411-7d86-bd44-c1be351605eb","019ce643-47c6-74a0-b3d2-7bf5651ded46","","715","
                    <div class=""stimulus-container"">
                        <img src=""images/causal_sequence/saving_a_cat_causal/saving_a_cat_causal_9.png"" class=""exp-image"">
                        <div class=""question-area"">
                            <p style=""font-size: 20px; font-weight: bold; margin: 0;"">Is there a person in this image?</p>
                        </div>
                    </div>","0","main_causal_task","9","saving_a_cat_causal","","","",""
"","","","","","html-keyboard-response","72","243250","0.0-72.0","D4DBA0000B9C4D8980E02F5238FBAC77","019ce666-b411-7d86-bd44-c1be351605eb","019ce643-47c6-74a0-b3d2-7bf5651ded46","","null","<div style=""background-color: gray; width: 100vw; height: 100vh;""></div>","null","","","","","","",""
"","","","","","html-keyboard-response","73","248253","0.0-73.0","D4DBA0000B9C4D8980E02F5238FBAC77","019ce666-b411-7d86-bd44-c1be351605eb","019ce643-47c6-74a0-b3d2-7bf5651ded46","","null","
                    <div class=""stimulus-container"">
                        <img src=""images/causal_sequence/dog_causal/dog_causal_1.png"" class=""exp-image"">
                        <div class=""question-area""></div> 
                    </div>","null","","","","","","",""
"","","","","","html-button-response","74","248969","0.0-74.0","D4DBA0000B9C4D8980E02F5238FBAC77","019ce666-b411-7d86-bd44-c1be351605eb","019ce643-47c6-74a0-b3d2-7bf5651ded46","","712","
                    <div class=""stimulus-container"">
                        <img src=""images/causal_sequence/dog_causal/dog_causal_1.png"" class=""exp-image"">
                        <div class=""question-area"">
                            <p style=""font-size: 20px; font-weight: bold; margin: 0;"">Is there a person in this image?</p>
                        </div>
                    </div>","0","main_causal_task","1","dog_causal","","","",""
"","","","","","html-keyboard-response","75","253972","0.0-75.0","D4DBA0000B9C4D8980E02F5238FBAC77","019ce666-b411-7d86-bd44-c1be351605eb","019ce643-47c6-74a0-b3d2-7bf5651ded46","","null","
                    <div class=""stimulus-container"">
                        <img src=""images/causal_sequence/dog_causal/dog_causal_2.png"" class=""exp-image"">
                        <div class=""question-area""></div> 
                    </div>","null","","","","","","",""
"","","","","","html-button-response","76","254584","0.0-76.0","D4DBA0000B9C4D8980E02F5238FBAC77","019ce666-b411-7d86-bd44-c1be351605eb","019ce643-47c6-74a0-b3d2-7bf5651ded46","","610","
                    <div class=""stimulus-container"">
                        <img src=""images/causal_sequence/dog_causal/dog_causal_2.png"" class=""exp-image"">
                        <div class=""question-area"">
                            <p style=""font-size: 20px; font-weight: bold; margin: 0;"">Is there a person in this image?</p>
                        </div>
                    </div>","0","main_causal_task","2","dog_causal","","","",""
"","","","","","html-keyboard-response","77","259587","0.0-77.0","D4DBA0000B9C4D8980E02F5238FBAC77","019ce666-b411-7d86-bd44-c1be351605eb","019ce643-47c6-74a0-b3d2-7bf5651ded46","","null","
                    <div class=""stimulus-container"">
                        <img src=""images/causal_sequence/dog_causal/dog_causal_3.png"" class=""exp-image"">
                        <div class=""question-area""></div> 
                    </div>","null","","","","","","",""
"","","","","","html-button-response","78","260555","0.0-78.0","D4DBA0000B9C4D8980E02F5238FBAC77","019ce666-b411-7d86-bd44-c1be351605eb","019ce643-47c6-74a0-b3d2-7bf5651ded46","","965","
                    <div class=""stimulus-container"">
                        <img src=""images/causal_sequence/dog_causal/dog_causal_3.png"" class=""exp-image"">
                        <div class=""question-area"">
                            <p style=""font-size: 20px; font-weight: bold; margin: 0;"">Is there a person in this image?</p>
                        </div>
                    </div>","0","main_causal_task","3","dog_causal","","","",""
"","","","","","html-keyboard-response","79","265558","0.0-79.0","D4DBA0000B9C4D8980E02F5238FBAC77","019ce666-b411-7d86-bd44-c1be351605eb","019ce643-47c6-74a0-b3d2-7bf5651ded46","","null","
                    <div class=""stimulus-container"">
                        <img src=""images/causal_sequence/dog_causal/dog_causal_4.png"" class=""exp-image"">
                        <div class=""question-area""></div> 
                    </div>","null","","","","","","",""
"","","","","","html-button-response","80","266144","0.0-80.0","D4DBA0000B9C4D8980E02F5238FBAC77","019ce666-b411-7d86-bd44-c1be351605eb","019ce643-47c6-74a0-b3d2-7bf5651ded46","","583","
                    <div class=""stimulus-container"">
                        <img src=""images/causal_sequence/dog_causal/dog_causal_4.png"" class=""exp-image"">
                        <div class=""question-area"">
                            <p style=""font-size: 20px; font-weight: bold; margin: 0;"">Is there a person in this image?</p>
                        </div>
                    </div>","0","main_causal_task","4","dog_causal","","","",""
"","","","","","html-keyboard-response","81","271147","0.0-81.0","D4DBA0000B9C4D8980E02F5238FBAC77","019ce666-b411-7d86-bd44-c1be351605eb","019ce643-47c6-74a0-b3d2-7bf5651ded46","","null","
                    <div class=""stimulus-container"">
                        <img src=""images/causal_sequence/dog_causal/dog_causal_5.png"" class=""exp-image"">
                        <div class=""question-area""></div> 
                    </div>","null","","","","","","",""
"","","","","","html-button-response","82","271775","0.0-82.0","D4DBA0000B9C4D8980E02F5238FBAC77","019ce666-b411-7d86-bd44-c1be351605eb","019ce643-47c6-74a0-b3d2-7bf5651ded46","","624","
                    <div class=""stimulus-container"">
                        <img src=""images/causal_sequence/dog_causal/dog_causal_5.png"" class=""exp-image"">
                        <div class=""question-area"">
                            <p style=""font-size: 20px; font-weight: bold; margin: 0;"">Is there a person in this image?</p>
                        </div>
                    </div>","0","main_causal_task","5","dog_causal","","","",""
"","","","","","html-keyboard-response","83","276778","0.0-83.0","D4DBA0000B9C4D8980E02F5238FBAC77","019ce666-b411-7d86-bd44-c1be351605eb","019ce643-47c6-74a0-b3d2-7bf5651ded46","","null","
                    <div class=""stimulus-container"">
                        <img src=""images/causal_sequence/dog_causal/dog_causal_6.png"" class=""exp-image"">
                        <div class=""question-area""></div> 
                    </div>","null","","","","","","",""
"","","","","","html-button-response","84","279781","0.0-84.0","D4DBA0000B9C4D8980E02F5238FBAC77","019ce666-b411-7d86-bd44-c1be351605eb","019ce643-47c6-74a0-b3d2-7bf5651ded46","","null","
                    <div class=""stimulus-container"">
                        <img src=""images/causal_sequence/dog_causal/dog_causal_6.png"" class=""exp-image"">
                        <div class=""question-area"">
                            <p style=""font-size: 20px; font-weight: bold; margin: 0;"">Is there a person in this image?</p>
                        </div>
                    </div>","null","main_causal_task","6","dog_causal","","","",""
"","","","","","html-keyboard-response","85","284784","0.0-85.0","D4DBA0000B9C4D8980E02F5238FBAC77","019ce666-b411-7d86-bd44-c1be351605eb","019ce643-47c6-74a0-b3d2-7bf5651ded46","","null","
                    <div class=""stimulus-container"">
                        <img src=""images/causal_sequence/dog_causal/dog_causal_7.png"" class=""exp-image"">
                        <div class=""question-area""></div> 
                    </div>","null","","","","","","",""
"","","","","","html-button-response","86","287787","0.0-86.0","D4DBA0000B9C4D8980E02F5238FBAC77","019ce666-b411-7d86-bd44-c1be351605eb","019ce643-47c6-74a0-b3d2-7bf5651ded46","","null","
                    <div class=""stimulus-container"">
                        <img src=""images/causal_sequence/dog_causal/dog_causal_7.png"" class=""exp-image"">
                        <div class=""question-area"">
                            <p style=""font-size: 20px; font-weight: bold; margin: 0;"">Is there a person in this image?</p>
                        </div>
                    </div>","null","main_causal_task","7","dog_causal","","","",""
"","","","","","html-keyboard-response","87","292789","0.0-87.0","D4DBA0000B9C4D8980E02F5238FBAC77","019ce666-b411-7d86-bd44-c1be351605eb","019ce643-47c6-74a0-b3d2-7bf5651ded46","","null","
                    <div class=""stimulus-container"">
                        <img src=""images/causal_sequence/dog_causal/dog_causal_8.png"" class=""exp-image"">
                        <div class=""question-area""></div> 
                    </div>","null","","","","","","",""
"","","","","","html-button-response","88","294988","0.0-88.0","D4DBA0000B9C4D8980E02F5238FBAC77","019ce666-b411-7d86-bd44-c1be351605eb","019ce643-47c6-74a0-b3d2-7bf5651ded46","","2197","
                    <div class=""stimulus-container"">
                        <img src=""images/causal_sequence/dog_causal/dog_causal_8.png"" class=""exp-image"">
                        <div class=""question-area"">
                            <p style=""font-size: 20px; font-weight: bold; margin: 0;"">Is there a person in this image?</p>
                        </div>
                    </div>","0","main_causal_task","8","dog_causal","","","",""
"","","","","","html-keyboard-response","89","299991","0.0-89.0","D4DBA0000B9C4D8980E02F5238FBAC77","019ce666-b411-7d86-bd44-c1be351605eb","019ce643-47c6-74a0-b3d2-7bf5651ded46","","null","
                    <div class=""stimulus-container"">
                        <img src=""images/causal_sequence/dog_causal/dog_causal_9.png"" class=""exp-image"">
                        <div class=""question-area""></div> 
                    </div>","null","","","","","","",""
"","","","","","html-button-response","90","300987","0.0-90.0","D4DBA0000B9C4D8980E02F5238FBAC77","019ce666-b411-7d86-bd44-c1be351605eb","019ce643-47c6-74a0-b3d2-7bf5651ded46","","993","
                    <div class=""stimulus-container"">
                        <img src=""images/causal_sequence/dog_causal/dog_causal_9.png"" class=""exp-image"">
                        <div class=""question-area"">
                            <p style=""font-size: 20px; font-weight: bold; margin: 0;"">Is there a person in this image?</p>
                        </div>
                    </div>","0","main_causal_task","9","dog_causal","","","",""
"","","","","","html-keyboard-response","91","301989","0.0-91.0","D4DBA0000B9C4D8980E02F5238FBAC77","019ce666-b411-7d86-bd44-c1be351605eb","019ce643-47c6-74a0-b3d2-7bf5651ded46","","null","<div style=""background-color: gray; width: 100vw; height: 100vh;""></div>","null","","","","","","",""
"","","","","","html-keyboard-response","92","306992","0.0-92.0","D4DBA0000B9C4D8980E02F5238FBAC77","019ce666-b411-7d86-bd44-c1be351605eb","019ce643-47c6-74a0-b3d2-7bf5651ded46","","null","
                    <div class=""stimulus-container"">
                        <img src=""images/causal_sequence/package_causal/package_causal_1.png"" class=""exp-image"">
                        <div class=""question-area""></div> 
                    </div>","null","","","","","","",""
"","","","","","html-button-response","93","309929","0.0-93.0","D4DBA0000B9C4D8980E02F5238FBAC77","019ce666-b411-7d86-bd44-c1be351605eb","019ce643-47c6-74a0-b3d2-7bf5651ded46","","2934","
                    <div class=""stimulus-container"">
                        <img src=""images/causal_sequence/package_causal/package_causal_1.png"" class=""exp-image"">
                        <div class=""question-area"">
                            <p style=""font-size: 20px; font-weight: bold; margin: 0;"">Is there a person in this image?</p>
                        </div>
                    </div>","0","main_causal_task","1","package_causal","","","",""
"","","","","","html-keyboard-response","94","314933","0.0-94.0","D4DBA0000B9C4D8980E02F5238FBAC77","019ce666-b411-7d86-bd44-c1be351605eb","019ce643-47c6-74a0-b3d2-7bf5651ded46","","null","
                    <div class=""stimulus-container"">
                        <img src=""images/causal_sequence/package_causal/package_causal_2.png"" class=""exp-image"">
                        <div class=""question-area""></div> 
                    </div>","null","","","","","","",""
"","","","","","html-button-response","95","316026","0.0-95.0","D4DBA0000B9C4D8980E02F5238FBAC77","019ce666-b411-7d86-bd44-c1be351605eb","019ce643-47c6-74a0-b3d2-7bf5651ded46","","1091","
                    <div class=""stimulus-container"">
                        <img src=""images/causal_sequence/package_causal/package_causal_2.png"" class=""exp-image"">
                        <div class=""question-area"">
                            <p style=""font-size: 20px; font-weight: bold; margin: 0;"">Is there a person in this image?</p>
                        </div>
                    </div>","0","main_causal_task","2","package_causal","","","",""
"","","","","","html-keyboard-response","96","321029","0.0-96.0","D4DBA0000B9C4D8980E02F5238FBAC77","019ce666-b411-7d86-bd44-c1be351605eb","019ce643-47c6-74a0-b3d2-7bf5651ded46","","null","
                    <div class=""stimulus-container"">
                        <img src=""images/causal_sequence/package_causal/package_causal_3.png"" class=""exp-image"">
                        <div class=""question-area""></div> 
                    </div>","null","","","","","","",""
"","","","","","html-button-response","97","321855","0.0-97.0","D4DBA0000B9C4D8980E02F5238FBAC77","019ce666-b411-7d86-bd44-c1be351605eb","019ce643-47c6-74a0-b3d2-7bf5651ded46","","823","
                    <div class=""stimulus-container"">
                        <img src=""images/causal_sequence/package_causal/package_causal_3.png"" class=""exp-image"">
                        <div class=""question-area"">
                            <p style=""font-size: 20px; font-weight: bold; margin: 0;"">Is there a person in this image?</p>
                        </div>
                    </div>","0","main_causal_task","3","package_causal","","","",""
"","","","","","html-keyboard-response","98","326857","0.0-98.0","D4DBA0000B9C4D8980E02F5238FBAC77","019ce666-b411-7d86-bd44-c1be351605eb","019ce643-47c6-74a0-b3d2-7bf5651ded46","","null","
                    <div class=""stimulus-container"">
                        <img src=""images/causal_sequence/package_causal/package_causal_4.png"" class=""exp-image"">
                        <div class=""question-area""></div> 
                    </div>","null","","","","","","",""
"","","","","","html-button-response","99","328285","0.0-99.0","D4DBA0000B9C4D8980E02F5238FBAC77","019ce666-b411-7d86-bd44-c1be351605eb","019ce643-47c6-74a0-b3d2-7bf5651ded46","","1426","
                    <div class=""stimulus-container"">
                        <img src=""images/causal_sequence/package_causal/package_causal_4.png"" class=""exp-image"">
                        <div class=""question-area"">
                            <p style=""font-size: 20px; font-weight: bold; margin: 0;"">Is there a person in this image?</p>
                        </div>
                    </div>","1","main_causal_task","4","package_causal","","","",""
"","","","","","html-keyboard-response","100","333287","0.0-100.0","D4DBA0000B9C4D8980E02F5238FBAC77","019ce666-b411-7d86-bd44-c1be351605eb","019ce643-47c6-74a0-b3d2-7bf5651ded46","","null","
                    <div class=""stimulus-container"">
                        <img src=""images/causal_sequence/package_causal/package_causal_5.png"" class=""exp-image"">
                        <div class=""question-area""></div> 
                    </div>","null","","","","","","",""
"","","","","","html-button-response","101","334287","0.0-101.0","D4DBA0000B9C4D8980E02F5238FBAC77","019ce666-b411-7d86-bd44-c1be351605eb","019ce643-47c6-74a0-b3d2-7bf5651ded46","","996","
                    <div class=""stimulus-container"">
                        <img src=""images/causal_sequence/package_causal/package_causal_5.png"" class=""exp-image"">
                        <div class=""question-area"">
                            <p style=""font-size: 20px; font-weight: bold; margin: 0;"">Is there a person in this image?</p>
                        </div>
                    </div>","0","main_causal_task","5","package_causal","","","",""
"","","","","","html-keyboard-response","102","339289","0.0-102.0","D4DBA0000B9C4D8980E02F5238FBAC77","019ce666-b411-7d86-bd44-c1be351605eb","019ce643-47c6-74a0-b3d2-7bf5651ded46","","null","
                    <div class=""stimulus-container"">
                        <img src=""images/causal_sequence/package_causal/package_causal_6.png"" class=""exp-image"">
                        <div class=""question-area""></div> 
                    </div>","null","","","","","","",""
"","","","","","html-button-response","103","339870","0.0-103.0","D4DBA0000B9C4D8980E02F5238FBAC77","019ce666-b411-7d86-bd44-c1be351605eb","019ce643-47c6-74a0-b3d2-7bf5651ded46","","579","
                    <div class=""stimulus-container"">
                        <img src=""images/causal_sequence/package_causal/package_causal_6.png"" class=""exp-image"">
                        <div class=""question-area"">
                            <p style=""font-size: 20px; font-weight: bold; margin: 0;"">Is there a person in this image?</p>
                        </div>
                    </div>","0","main_causal_task","6","package_causal","","","",""
"","","","","","html-keyboard-response","104","344872","0.0-104.0","D4DBA0000B9C4D8980E02F5238FBAC77","019ce666-b411-7d86-bd44-c1be351605eb","019ce643-47c6-74a0-b3d2-7bf5651ded46","","null","
                    <div class=""stimulus-container"">
                        <img src=""images/causal_sequence/package_causal/package_causal_7.png"" class=""exp-image"">
                        <div class=""question-area""></div> 
                    </div>","null","","","","","","",""
"","","","","","html-button-response","105","345495","0.0-105.0","D4DBA0000B9C4D8980E02F5238FBAC77","019ce666-b411-7d86-bd44-c1be351605eb","019ce643-47c6-74a0-b3d2-7bf5651ded46","","621","
                    <div class=""stimulus-container"">
                        <img src=""images/causal_sequence/package_causal/package_causal_7.png"" class=""exp-image"">
                        <div class=""question-area"">
                            <p style=""font-size: 20px; font-weight: bold; margin: 0;"">Is there a person in this image?</p>
                        </div>
                    </div>","0","main_causal_task","7","package_causal","","","",""
"","","","","","html-keyboard-response","106","350498","0.0-106.0","D4DBA0000B9C4D8980E02F5238FBAC77","019ce666-b411-7d86-bd44-c1be351605eb","019ce643-47c6-74a0-b3d2-7bf5651ded46","","null","
                    <div class=""stimulus-container"">
                        <img src=""images/causal_sequence/package_causal/package_causal_8.png"" class=""exp-image"">
                        <div class=""question-area""></div> 
                    </div>","null","","","","","","",""
"","","","","","html-button-response","107","351674","0.0-107.0","D4DBA0000B9C4D8980E02F5238FBAC77","019ce666-b411-7d86-bd44-c1be351605eb","019ce643-47c6-74a0-b3d2-7bf5651ded46","","1174","
                    <div class=""stimulus-container"">
                        <img src=""images/causal_sequence/package_causal/package_causal_8.png"" class=""exp-image"">
                        <div class=""question-area"">
                            <p style=""font-size: 20px; font-weight: bold; margin: 0;"">Is there a person in this image?</p>
                        </div>
                    </div>","0","main_causal_task","8","package_causal","","","",""
"","","","","","html-keyboard-response","108","356678","0.0-108.0","D4DBA0000B9C4D8980E02F5238FBAC77","019ce666-b411-7d86-bd44-c1be351605eb","019ce643-47c6-74a0-b3d2-7bf5651ded46","","null","
                    <div class=""stimulus-container"">
                        <img src=""images/causal_sequence/package_causal/package_causal_9.png"" class=""exp-image"">
                        <div class=""question-area""></div> 
                    </div>","null","","","","","","",""
"","","","","","html-button-response","109","357527","0.0-109.0","D4DBA0000B9C4D8980E02F5238FBAC77","019ce666-b411-7d86-bd44-c1be351605eb","019ce643-47c6-74a0-b3d2-7bf5651ded46","","846","
                    <div class=""stimulus-container"">
                        <img src=""images/causal_sequence/package_causal/package_causal_9.png"" class=""exp-image"">
                        <div class=""question-area"">
                            <p style=""font-size: 20px; font-weight: bold; margin: 0;"">Is there a person in this image?</p>
                        </div>
                    </div>","0","main_causal_task","9","package_causal","","","",""
"","","","","","html-keyboard-response","110","358529","0.0-110.0","D4DBA0000B9C4D8980E02F5238FBAC77","019ce666-b411-7d86-bd44-c1be351605eb","019ce643-47c6-74a0-b3d2-7bf5651ded46","","null","<div style=""background-color: gray; width: 100vw; height: 100vh;""></div>","null","","","","","","",""
"","","","","","html-keyboard-response","111","363532","0.0-111.0","D4DBA0000B9C4D8980E02F5238FBAC77","019ce666-b411-7d86-bd44-c1be351605eb","019ce643-47c6-74a0-b3d2-7bf5651ded46","","null","
                    <div class=""stimulus-container"">
                        <img src=""images/causal_sequence/the_performance_causal/the_performance_causal_1.png"" class=""exp-image"">
                        <div class=""question-area""></div> 
                    </div>","null","","","","","","",""
"","","","","","html-button-response","112","364129","0.0-112.0","D4DBA0000B9C4D8980E02F5238FBAC77","019ce666-b411-7d86-bd44-c1be351605eb","019ce643-47c6-74a0-b3d2-7bf5651ded46","","594","
                    <div class=""stimulus-container"">
                        <img src=""images/causal_sequence/the_performance_causal/the_performance_causal_1.png"" class=""exp-image"">
                        <div class=""question-area"">
                            <p style=""font-size: 20px; font-weight: bold; margin: 0;"">Is there a person in this image?</p>
                        </div>
                    </div>","0","main_causal_task","1","the_performance_causal","","","",""
"","","","","","html-keyboard-response","113","369132","0.0-113.0","D4DBA0000B9C4D8980E02F5238FBAC77","019ce666-b411-7d86-bd44-c1be351605eb","019ce643-47c6-74a0-b3d2-7bf5651ded46","","null","
                    <div class=""stimulus-container"">
                        <img src=""images/causal_sequence/the_performance_causal/the_performance_causal_2.png"" class=""exp-image"">
                        <div class=""question-area""></div> 
                    </div>","null","","","","","","",""
"","","","","","html-button-response","114","369934","0.0-114.0","D4DBA0000B9C4D8980E02F5238FBAC77","019ce666-b411-7d86-bd44-c1be351605eb","019ce643-47c6-74a0-b3d2-7bf5651ded46","","798","
                    <div class=""stimulus-container"">
                        <img src=""images/causal_sequence/the_performance_causal/the_performance_causal_2.png"" class=""exp-image"">
                        <div class=""question-area"">
                            <p style=""font-size: 20px; font-weight: bold; margin: 0;"">Is there a person in this image?</p>
                        </div>
                    </div>","0","main_causal_task","2","the_performance_causal","","","",""
"","","","","","html-keyboard-response","115","374937","0.0-115.0","D4DBA0000B9C4D8980E02F5238FBAC77","019ce666-b411-7d86-bd44-c1be351605eb","019ce643-47c6-74a0-b3d2-7bf5651ded46","","null","
                    <div class=""stimulus-container"">
                        <img src=""images/causal_sequence/the_performance_causal/the_performance_causal_3.png"" class=""exp-image"">
                        <div class=""question-area""></div> 
                    </div>","null","","","","","","",""
"","","","","","html-button-response","116","375687","0.0-116.0","D4DBA0000B9C4D8980E02F5238FBAC77","019ce666-b411-7d86-bd44-c1be351605eb","019ce643-47c6-74a0-b3d2-7bf5651ded46","","747","
                    <div class=""stimulus-container"">
                        <img src=""images/causal_sequence/the_performance_causal/the_performance_causal_3.png"" class=""exp-image"">
                        <div class=""question-area"">
                            <p style=""font-size: 20px; font-weight: bold; margin: 0;"">Is there a person in this image?</p>
                        </div>
                    </div>","0","main_causal_task","3","the_performance_causal","","","",""
"","","","","","html-keyboard-response","117","380690","0.0-117.0","D4DBA0000B9C4D8980E02F5238FBAC77","019ce666-b411-7d86-bd44-c1be351605eb","019ce643-47c6-74a0-b3d2-7bf5651ded46","","null","
                    <div class=""stimulus-container"">
                        <img src=""images/causal_sequence/the_performance_causal/the_performance_causal_4.png"" class=""exp-image"">
                        <div class=""question-area""></div> 
                    </div>","null","","","","","","",""
"","","","","","html-button-response","118","381614","0.0-118.0","D4DBA0000B9C4D8980E02F5238FBAC77","019ce666-b411-7d86-bd44-c1be351605eb","019ce643-47c6-74a0-b3d2-7bf5651ded46","","922","
                    <div class=""stimulus-container"">
                        <img src=""images/causal_sequence/the_performance_causal/the_performance_causal_4.png"" class=""exp-image"">
                        <div class=""question-area"">
                            <p style=""font-size: 20px; font-weight: bold; margin: 0;"">Is there a person in this image?</p>
                        </div>
                    </div>","0","main_causal_task","4","the_performance_causal","","","",""
"","","","","","html-keyboard-response","119","386616","0.0-119.0","D4DBA0000B9C4D8980E02F5238FBAC77","019ce666-b411-7d86-bd44-c1be351605eb","019ce643-47c6-74a0-b3d2-7bf5651ded46","","null","
                    <div class=""stimulus-container"">
                        <img src=""images/causal_sequence/the_performance_causal/the_performance_causal_5.png"" class=""exp-image"">
                        <div class=""question-area""></div> 
                    </div>","null","","","","","","",""
"","","","","","html-button-response","120","387559","0.0-120.0","D4DBA0000B9C4D8980E02F5238FBAC77","019ce666-b411-7d86-bd44-c1be351605eb","019ce643-47c6-74a0-b3d2-7bf5651ded46","","939","
                    <div class=""stimulus-container"">
                        <img src=""images/causal_sequence/the_performance_causal/the_performance_causal_5.png"" class=""exp-image"">
                        <div class=""question-area"">
                            <p style=""font-size: 20px; font-weight: bold; margin: 0;"">Is there a person in this image?</p>
                        </div>
                    </div>","0","main_causal_task","5","the_performance_causal","","","",""
"","","","","","html-keyboard-response","121","392562","0.0-121.0","D4DBA0000B9C4D8980E02F5238FBAC77","019ce666-b411-7d86-bd44-c1be351605eb","019ce643-47c6-74a0-b3d2-7bf5651ded46","","null","
                    <div class=""stimulus-container"">
                        <img src=""images/causal_sequence/the_performance_causal/the_performance_causal_6.png"" class=""exp-image"">
                        <div class=""question-area""></div> 
                    </div>","null","","","","","","",""
"","","","","","html-button-response","122","393702","0.0-122.0","D4DBA0000B9C4D8980E02F5238FBAC77","019ce666-b411-7d86-bd44-c1be351605eb","019ce643-47c6-74a0-b3d2-7bf5651ded46","","1138","
                    <div class=""stimulus-container"">
                        <img src=""images/causal_sequence/the_performance_causal/the_performance_causal_6.png"" class=""exp-image"">
                        <div class=""question-area"">
                            <p style=""font-size: 20px; font-weight: bold; margin: 0;"">Is there a person in this image?</p>
                        </div>
                    </div>","0","main_causal_task","6","the_performance_causal","","","",""
"","","","","","html-keyboard-response","123","398706","0.0-123.0","D4DBA0000B9C4D8980E02F5238FBAC77","019ce666-b411-7d86-bd44-c1be351605eb","019ce643-47c6-74a0-b3d2-7bf5651ded46","","null","
                    <div class=""stimulus-container"">
                        <img src=""images/causal_sequence/the_performance_causal/the_performance_causal_7.png"" class=""exp-image"">
                        <div class=""question-area""></div> 
                    </div>","null","","","","","","",""
"","","","","","html-button-response","124","399389","0.0-124.0","D4DBA0000B9C4D8980E02F5238FBAC77","019ce666-b411-7d86-bd44-c1be351605eb","019ce643-47c6-74a0-b3d2-7bf5651ded46","","680","
                    <div class=""stimulus-container"">
                        <img src=""images/causal_sequence/the_performance_causal/the_performance_causal_7.png"" class=""exp-image"">
                        <div class=""question-area"">
                            <p style=""font-size: 20px; font-weight: bold; margin: 0;"">Is there a person in this image?</p>
                        </div>
                    </div>","0","main_causal_task","7","the_performance_causal","","","",""
"","","","","","html-keyboard-response","125","404393","0.0-125.0","D4DBA0000B9C4D8980E02F5238FBAC77","019ce666-b411-7d86-bd44-c1be351605eb","019ce643-47c6-74a0-b3d2-7bf5651ded46","","null","
                    <div class=""stimulus-container"">
                        <img src=""images/causal_sequence/the_performance_causal/the_performance_causal_8.png"" class=""exp-image"">
                        <div class=""question-area""></div> 
                    </div>","null","","","","","","",""
"","","","","","html-button-response","126","405084","0.0-126.0","D4DBA0000B9C4D8980E02F5238FBAC77","019ce666-b411-7d86-bd44-c1be351605eb","019ce643-47c6-74a0-b3d2-7bf5651ded46","","689","
                    <div class=""stimulus-container"">
                        <img src=""images/causal_sequence/the_performance_causal/the_performance_causal_8.png"" class=""exp-image"">
                        <div class=""question-area"">
                            <p style=""font-size: 20px; font-weight: bold; margin: 0;"">Is there a person in this image?</p>
                        </div>
                    </div>","0","main_causal_task","8","the_performance_causal","","","",""
"","","","","","html-keyboard-response","127","410087","0.0-127.0","D4DBA0000B9C4D8980E02F5238FBAC77","019ce666-b411-7d86-bd44-c1be351605eb","019ce643-47c6-74a0-b3d2-7bf5651ded46","","null","
                    <div class=""stimulus-container"">
                        <img src=""images/causal_sequence/the_performance_causal/the_performance_causal_9.png"" class=""exp-image"">
                        <div class=""question-area""></div> 
                    </div>","null","","","","","","",""
"","","","","","html-button-response","128","410680","0.0-128.0","D4DBA0000B9C4D8980E02F5238FBAC77","019ce666-b411-7d86-bd44-c1be351605eb","019ce643-47c6-74a0-b3d2-7bf5651ded46","","591","
                    <div class=""stimulus-container"">
                        <img src=""images/causal_sequence/the_performance_causal/the_performance_causal_9.png"" class=""exp-image"">
                        <div class=""question-area"">
                            <p style=""font-size: 20px; font-weight: bold; margin: 0;"">Is there a person in this image?</p>
                        </div>
                    </div>","0","main_causal_task","9","the_performance_causal","","","",""
"","","","","","instructions","129","413243","0.0-129.0","D4DBA0000B9C4D8980E02F5238FBAC77","019ce666-b411-7d86-bd44-c1be351605eb","019ce643-47c6-74a0-b3d2-7bf5651ded46","[{""page_index"":0,""viewing_time"":2561}]","2561","","","","","","","","",""
"","","","","","instructions","130","419211","0.0-130.0","D4DBA0000B9C4D8980E02F5238FBAC77","019ce666-b411-7d86-bd44-c1be351605eb","019ce643-47c6-74a0-b3d2-7bf5651ded46","[{""page_index"":0,""viewing_time"":5967}]","5967","","","","","","","","",""
"","","","","","html-keyboard-response","131","420214","0.0-131.0","D4DBA0000B9C4D8980E02F5238FBAC77","019ce666-b411-7d86-bd44-c1be351605eb","019ce643-47c6-74a0-b3d2-7bf5651ded46","","null","
        <div class=""stimulus-container"" style=""display: flex; align-items: center; justify-content: center; gap: 30px;"">
            <img src=""images/instructions/movie_1.png"" class=""exp-image"">
            <div style=""font-size: 40px; font-weight: bold; color: green; border: 5px solid green; padding: 25px; border-radius: 15px; background-color: #f0fff0;"">
                WORTH<br>$1
            </div>
        </div>
        <div class=""question-area""></div>","null","","","","","","",""
"","","","","","html-button-response","132","423217","0.0-132.0","D4DBA0000B9C4D8980E02F5238FBAC77","019ce666-b411-7d86-bd44-c1be351605eb","019ce643-47c6-74a0-b3d2-7bf5651ded46","","null","
        <div class=""stimulus-container"" style=""display: flex; align-items: center; justify-content: center; gap: 30px;"">
            <img src=""images/instructions/movie_1.png"" class=""exp-image"">
            <div style=""font-size: 40px; font-weight: bold; color: green; border: 5px solid green; padding: 25px; border-radius: 15px; background-color: #f0fff0;"">
                WORTH<br>$1
            </div>
        </div>
        <div class=""question-area"">
            <p style=""font-size: 20px; font-weight: bold; margin: 0;"">Was there a person in this image?</p>
        </div>","null","","","","","","",""
"","","","","","instructions","133","428464","0.0-133.0","D4DBA0000B9C4D8980E02F5238FBAC77","019ce666-b411-7d86-bd44-c1be351605eb","019ce643-47c6-74a0-b3d2-7bf5651ded46","[{""page_index"":0,""viewing_time"":5246}]","5246","","","","","","","","",""
"","","","","","html-keyboard-response","134","438467","0.0-134.0","D4DBA0000B9C4D8980E02F5238FBAC77","019ce666-b411-7d86-bd44-c1be351605eb","019ce643-47c6-74a0-b3d2-7bf5651ded46","","null","
            <div class=""stimulus-container"" style=""display: flex; align-items: center; justify-content: center; gap: 30px;"">
                <img src=""images/causal_sequence/package_causal/package_causal_5.png"" class=""exp-image"">
                <div style=""font-size: 40px; font-weight: bold; color: green; border: 5px solid green; padding: 25px; border-radius: 15px; background-color: #f0fff0;"">
                    WORTH<br>$1
                </div>
            </div>
            <div class=""question-area""></div>","null","","","","","","",""
"","","","","","html-button-response","135","441470","0.0-135.0","D4DBA0000B9C4D8980E02F5238FBAC77","019ce666-b411-7d86-bd44-c1be351605eb","019ce643-47c6-74a0-b3d2-7bf5651ded46","","null","
            <div class=""stimulus-container"" style=""display: flex; align-items: center; justify-content: center; gap: 30px;"">
                <img src=""images/causal_sequence/package_causal/package_causal_5.png"" class=""exp-image"">
                <div style=""font-size: 40px; font-weight: bold; color: green; border: 5px solid green; padding: 25px; border-radius: 15px; background-color: #f0fff0;"">
                    WORTH<br>$1
                </div>
            </div>
            <div class=""question-area"">
                <p style=""font-size: 20px; font-weight: bold; margin: 0;"">Was there a person in this image?</p>
            </div>","null","part2_value_learning","","package_causal","5","","",""
"","","","","","html-keyboard-response","136","451472","0.0-136.0","D4DBA0000B9C4D8980E02F5238FBAC77","019ce666-b411-7d86-bd44-c1be351605eb","019ce643-47c6-74a0-b3d2-7bf5651ded46","","null","
            <div class=""stimulus-container"" style=""display: flex; align-items: center; justify-content: center; gap: 30px;"">
                <img src=""images/causal_sequence/museum_causal/museum_causal_5.png"" class=""exp-image"">
                <div style=""font-size: 40px; font-weight: bold; color: green; border: 5px solid green; padding: 25px; border-radius: 15px; background-color: #f0fff0;"">
                    WORTH<br>$1
                </div>
            </div>
            <div class=""question-area""></div>","null","","","","","","",""
"","","","","","html-button-response","137","452225","0.0-137.0","D4DBA0000B9C4D8980E02F5238FBAC77","019ce666-b411-7d86-bd44-c1be351605eb","019ce643-47c6-74a0-b3d2-7bf5651ded46","","751","
            <div class=""stimulus-container"" style=""display: flex; align-items: center; justify-content: center; gap: 30px;"">
                <img src=""images/causal_sequence/museum_causal/museum_causal_5.png"" class=""exp-image"">
                <div style=""font-size: 40px; font-weight: bold; color: green; border: 5px solid green; padding: 25px; border-radius: 15px; background-color: #f0fff0;"">
                    WORTH<br>$1
                </div>
            </div>
            <div class=""question-area"">
                <p style=""font-size: 20px; font-weight: bold; margin: 0;"">Was there a person in this image?</p>
            </div>","0","part2_value_learning","","museum_causal","5","","",""
"","","","","","html-keyboard-response","138","462227","0.0-138.0","D4DBA0000B9C4D8980E02F5238FBAC77","019ce666-b411-7d86-bd44-c1be351605eb","019ce643-47c6-74a0-b3d2-7bf5651ded46","","null","
            <div class=""stimulus-container"" style=""display: flex; align-items: center; justify-content: center; gap: 30px;"">
                <img src=""images/causal_sequence/the_performance_causal/the_performance_causal_4.png"" class=""exp-image"">
                <div style=""font-size: 40px; font-weight: bold; color: green; border: 5px solid green; padding: 25px; border-radius: 15px; background-color: #f0fff0;"">
                    WORTH<br>$1
                </div>
            </div>
            <div class=""question-area""></div>","null","","","","","","",""
"","","","","","html-button-response","139","463111","0.0-139.0","D4DBA0000B9C4D8980E02F5238FBAC77","019ce666-b411-7d86-bd44-c1be351605eb","019ce643-47c6-74a0-b3d2-7bf5651ded46","","881","
            <div class=""stimulus-container"" style=""display: flex; align-items: center; justify-content: center; gap: 30px;"">
                <img src=""images/causal_sequence/the_performance_causal/the_performance_causal_4.png"" class=""exp-image"">
                <div style=""font-size: 40px; font-weight: bold; color: green; border: 5px solid green; padding: 25px; border-radius: 15px; background-color: #f0fff0;"">
                    WORTH<br>$1
                </div>
            </div>
            <div class=""question-area"">
                <p style=""font-size: 20px; font-weight: bold; margin: 0;"">Was there a person in this image?</p>
            </div>","0","part2_value_learning","","the_performance_causal","4","","",""
"","","","","","html-keyboard-response","140","473116","0.0-140.0","D4DBA0000B9C4D8980E02F5238FBAC77","019ce666-b411-7d86-bd44-c1be351605eb","019ce643-47c6-74a0-b3d2-7bf5651ded46","","null","
            <div class=""stimulus-container"" style=""display: flex; align-items: center; justify-content: center; gap: 30px;"">
                <img src=""images/causal_sequence/coin_causal/coin_causal_3.png"" class=""exp-image"">
                <div style=""font-size: 40px; font-weight: bold; color: green; border: 5px solid green; padding: 25px; border-radius: 15px; background-color: #f0fff0;"">
                    WORTH<br>$1
                </div>
            </div>
            <div class=""question-area""></div>","null","","","","","","",""
"","","","","","html-button-response","141","473976","0.0-141.0","D4DBA0000B9C4D8980E02F5238FBAC77","019ce666-b411-7d86-bd44-c1be351605eb","019ce643-47c6-74a0-b3d2-7bf5651ded46","","857","
            <div class=""stimulus-container"" style=""display: flex; align-items: center; justify-content: center; gap: 30px;"">
                <img src=""images/causal_sequence/coin_causal/coin_causal_3.png"" class=""exp-image"">
                <div style=""font-size: 40px; font-weight: bold; color: green; border: 5px solid green; padding: 25px; border-radius: 15px; background-color: #f0fff0;"">
                    WORTH<br>$1
                </div>
            </div>
            <div class=""question-area"">
                <p style=""font-size: 20px; font-weight: bold; margin: 0;"">Was there a person in this image?</p>
            </div>","0","part2_value_learning","","coin_causal","3","","",""
"","","","","","html-keyboard-response","142","483979","0.0-142.0","D4DBA0000B9C4D8980E02F5238FBAC77","019ce666-b411-7d86-bd44-c1be351605eb","019ce643-47c6-74a0-b3d2-7bf5651ded46","","null","
            <div class=""stimulus-container"" style=""display: flex; align-items: center; justify-content: center; gap: 30px;"">
                <img src=""images/causal_sequence/saving_a_cat_causal/saving_a_cat_causal_4.png"" class=""exp-image"">
                <div style=""font-size: 40px; font-weight: bold; color: green; border: 5px solid green; padding: 25px; border-radius: 15px; background-color: #f0fff0;"">
                    WORTH<br>$1
                </div>
            </div>
            <div class=""question-area""></div>","null","","","","","","",""
"","","","","","html-button-response","143","486983","0.0-143.0","D4DBA0000B9C4D8980E02F5238FBAC77","019ce666-b411-7d86-bd44-c1be351605eb","019ce643-47c6-74a0-b3d2-7bf5651ded46","","null","
            <div class=""stimulus-container"" style=""display: flex; align-items: center; justify-content: center; gap: 30px;"">
                <img src=""images/causal_sequence/saving_a_cat_causal/saving_a_cat_causal_4.png"" class=""exp-image"">
                <div style=""font-size: 40px; font-weight: bold; color: green; border: 5px solid green; padding: 25px; border-radius: 15px; background-color: #f0fff0;"">
                    WORTH<br>$1
                </div>
            </div>
            <div class=""question-area"">
                <p style=""font-size: 20px; font-weight: bold; margin: 0;"">Was there a person in this image?</p>
            </div>","null","part2_value_learning","","saving_a_cat_causal","4","","",""
"","","","","","html-keyboard-response","144","496986","0.0-144.0","D4DBA0000B9C4D8980E02F5238FBAC77","019ce666-b411-7d86-bd44-c1be351605eb","019ce643-47c6-74a0-b3d2-7bf5651ded46","","null","
            <div class=""stimulus-container"" style=""display: flex; align-items: center; justify-content: center; gap: 30px;"">
                <img src=""images/causal_sequence/dog_causal/dog_causal_3.png"" class=""exp-image"">
                <div style=""font-size: 40px; font-weight: bold; color: green; border: 5px solid green; padding: 25px; border-radius: 15px; background-color: #f0fff0;"">
                    WORTH<br>$1
                </div>
            </div>
            <div class=""question-area""></div>","null","","","","","","",""
"","","","","","html-button-response","145","497687","0.0-145.0","D4DBA0000B9C4D8980E02F5238FBAC77","019ce666-b411-7d86-bd44-c1be351605eb","019ce643-47c6-74a0-b3d2-7bf5651ded46","","699","
            <div class=""stimulus-container"" style=""display: flex; align-items: center; justify-content: center; gap: 30px;"">
                <img src=""images/causal_sequence/dog_causal/dog_causal_3.png"" class=""exp-image"">
                <div style=""font-size: 40px; font-weight: bold; color: green; border: 5px solid green; padding: 25px; border-radius: 15px; background-color: #f0fff0;"">
                    WORTH<br>$1
                </div>
            </div>
            <div class=""question-area"">
                <p style=""font-size: 20px; font-weight: bold; margin: 0;"">Was there a person in this image?</p>
            </div>","0","part2_value_learning","","dog_causal","3","","",""
"","","","","","instructions","146","500495","0.0-146.0","D4DBA0000B9C4D8980E02F5238FBAC77","019ce666-b411-7d86-bd44-c1be351605eb","019ce643-47c6-74a0-b3d2-7bf5651ded46","[{""page_index"":0,""viewing_time"":2805}]","2806","","","","","","","","",""
"","","","","","instructions","147","501911","0.0-147.0","D4DBA0000B9C4D8980E02F5238FBAC77","019ce666-b411-7d86-bd44-c1be351605eb","019ce643-47c6-74a0-b3d2-7bf5651ded46","[{""page_index"":0,""viewing_time"":1414}]","1415","","","","","","","","",""
"","","","","","html-keyboard-response","148","511915","0.0-148.0-0.0","D4DBA0000B9C4D8980E02F5238FBAC77","019ce666-b411-7d86-bd44-c1be351605eb","019ce643-47c6-74a0-b3d2-7bf5651ded46","","null","
                        <div style=""font-family: Arial; margin-bottom: 20px;""><h3>Which image is more valuable?</h3></div>
                        <div class=""stimulus-container"" style=""display: flex; width: 1100px; justify-content: center; gap: 50px;"">
                            <img src=""images/causal_sequence/the_performance_causal/the_performance_causal_3.png"" class=""exp-image"">
                            <img src=""images/causal_sequence/the_performance_causal/the_performance_causal_5.png"" class=""exp-image"">
                        </div>","null","","","","","","",""
"","","","","","html-button-response","149","513635","0.0-148.0-1.0","D4DBA0000B9C4D8980E02F5238FBAC77","019ce666-b411-7d86-bd44-c1be351605eb","019ce643-47c6-74a0-b3d2-7bf5651ded46","","1717","
                        <div style=""font-family: Arial; margin-bottom: 20px;""><h3>Which image is more valuable?</h3></div>
                        <div class=""stimulus-container"" style=""display: flex; width: 1100px; justify-content: center; gap: 50px;"">
                            <img src=""images/causal_sequence/the_performance_causal/the_performance_causal_3.png"" class=""exp-image"">
                            <img src=""images/causal_sequence/the_performance_causal/the_performance_causal_5.png"" class=""exp-image"">
                        </div>","1","part3_final_choice","","the_performance_causal","","4","5","1"
"","","","","","html-keyboard-response","150","523639","0.0-149.0-0.0","D4DBA0000B9C4D8980E02F5238FBAC77","019ce666-b411-7d86-bd44-c1be351605eb","019ce643-47c6-74a0-b3d2-7bf5651ded46","","null","
                        <div style=""font-family: Arial; margin-bottom: 20px;""><h3>Which image is more valuable?</h3></div>
                        <div class=""stimulus-container"" style=""display: flex; width: 1100px; justify-content: center; gap: 50px;"">
                            <img src=""images/causal_sequence/dog_causal/dog_causal_2.png"" class=""exp-image"">
                            <img src=""images/causal_sequence/dog_causal/dog_causal_4.png"" class=""exp-image"">
                        </div>","null","","","","","","",""
"","","","","","html-button-response","151","525006","0.0-149.0-1.0","D4DBA0000B9C4D8980E02F5238FBAC77","019ce666-b411-7d86-bd44-c1be351605eb","019ce643-47c6-74a0-b3d2-7bf5651ded46","","1361","
                        <div style=""font-family: Arial; margin-bottom: 20px;""><h3>Which image is more valuable?</h3></div>
                        <div class=""stimulus-container"" style=""display: flex; width: 1100px; justify-content: center; gap: 50px;"">
                            <img src=""images/causal_sequence/dog_causal/dog_causal_2.png"" class=""exp-image"">
                            <img src=""images/causal_sequence/dog_causal/dog_causal_4.png"" class=""exp-image"">
                        </div>","0","part3_final_choice","","dog_causal","","3","2","-1"
"","","","","","html-keyboard-response","152","535012","0.0-150.0-0.0","D4DBA0000B9C4D8980E02F5238FBAC77","019ce666-b411-7d86-bd44-c1be351605eb","019ce643-47c6-74a0-b3d2-7bf5651ded46","","null","
                        <div style=""font-family: Arial; margin-bottom: 20px;""><h3>Which image is more valuable?</h3></div>
                        <div class=""stimulus-container"" style=""display: flex; width: 1100px; justify-content: center; gap: 50px;"">
                            <img src=""images/causal_sequence/museum_causal/museum_causal_6.png"" class=""exp-image"">
                            <img src=""images/causal_sequence/museum_causal/museum_causal_4.png"" class=""exp-image"">
                        </div>","null","","","","","","",""
"","","","","","html-button-response","153","536611","0.0-150.0-1.0","D4DBA0000B9C4D8980E02F5238FBAC77","019ce666-b411-7d86-bd44-c1be351605eb","019ce643-47c6-74a0-b3d2-7bf5651ded46","","1595","
                        <div style=""font-family: Arial; margin-bottom: 20px;""><h3>Which image is more valuable?</h3></div>
                        <div class=""stimulus-container"" style=""display: flex; width: 1100px; justify-content: center; gap: 50px;"">
                            <img src=""images/causal_sequence/museum_causal/museum_causal_6.png"" class=""exp-image"">
                            <img src=""images/causal_sequence/museum_causal/museum_causal_4.png"" class=""exp-image"">
                        </div>","0","part3_final_choice","","museum_causal","","5","6","1"
"","","","","","html-keyboard-response","154","546614","0.0-151.0-0.0","D4DBA0000B9C4D8980E02F5238FBAC77","019ce666-b411-7d86-bd44-c1be351605eb","019ce643-47c6-74a0-b3d2-7bf5651ded46","","null","
                        <div style=""font-family: Arial; margin-bottom: 20px;""><h3>Which image is more valuable?</h3></div>
                        <div class=""stimulus-container"" style=""display: flex; width: 1100px; justify-content: center; gap: 50px;"">
                            <img src=""images/causal_sequence/coin_causal/coin_causal_4.png"" class=""exp-image"">
                            <img src=""images/causal_sequence/coin_causal/coin_causal_2.png"" class=""exp-image"">
                        </div>","null","","","","","","",""
"","","","","","html-button-response","155","547926","0.0-151.0-1.0","D4DBA0000B9C4D8980E02F5238FBAC77","019ce666-b411-7d86-bd44-c1be351605eb","019ce643-47c6-74a0-b3d2-7bf5651ded46","","1309","
                        <div style=""font-family: Arial; margin-bottom: 20px;""><h3>Which image is more valuable?</h3></div>
                        <div class=""stimulus-container"" style=""display: flex; width: 1100px; justify-content: center; gap: 50px;"">
                            <img src=""images/causal_sequence/coin_causal/coin_causal_4.png"" class=""exp-image"">
                            <img src=""images/causal_sequence/coin_causal/coin_causal_2.png"" class=""exp-image"">
                        </div>","1","part3_final_choice","","coin_causal","","3","2","-1"
"","","","","","html-keyboard-response","156","557929","0.0-152.0-0.0","D4DBA0000B9C4D8980E02F5238FBAC77","019ce666-b411-7d86-bd44-c1be351605eb","019ce643-47c6-74a0-b3d2-7bf5651ded46","","null","
                        <div style=""font-family: Arial; margin-bottom: 20px;""><h3>Which image is more valuable?</h3></div>
                        <div class=""stimulus-container"" style=""display: flex; width: 1100px; justify-content: center; gap: 50px;"">
                            <img src=""images/causal_sequence/saving_a_cat_causal/saving_a_cat_causal_5.png"" class=""exp-image"">
                            <img src=""images/causal_sequence/saving_a_cat_causal/saving_a_cat_causal_3.png"" class=""exp-image"">
                        </div>","null","","","","","","",""
"","","","","","html-button-response","157","558710","0.0-152.0-1.0","D4DBA0000B9C4D8980E02F5238FBAC77","019ce666-b411-7d86-bd44-c1be351605eb","019ce643-47c6-74a0-b3d2-7bf5651ded46","","779","
                        <div style=""font-family: Arial; margin-bottom: 20px;""><h3>Which image is more valuable?</h3></div>
                        <div class=""stimulus-container"" style=""display: flex; width: 1100px; justify-content: center; gap: 50px;"">
                            <img src=""images/causal_sequence/saving_a_cat_causal/saving_a_cat_causal_5.png"" class=""exp-image"">
                            <img src=""images/causal_sequence/saving_a_cat_causal/saving_a_cat_causal_3.png"" class=""exp-image"">
                        </div>","1","part3_final_choice","","saving_a_cat_causal","","4","3","-1"
"","","","","","html-keyboard-response","158","568713","0.0-153.0-0.0","D4DBA0000B9C4D8980E02F5238FBAC77","019ce666-b411-7d86-bd44-c1be351605eb","019ce643-47c6-74a0-b3d2-7bf5651ded46","","null","
                        <div style=""font-family: Arial; margin-bottom: 20px;""><h3>Which image is more valuable?</h3></div>
                        <div class=""stimulus-container"" style=""display: flex; width: 1100px; justify-content: center; gap: 50px;"">
                            <img src=""images/causal_sequence/package_causal/package_causal_4.png"" class=""exp-image"">
                            <img src=""images/causal_sequence/package_causal/package_causal_6.png"" class=""exp-image"">
                        </div>","null","","","","","","",""
"","","","","","html-button-response","159","569562","0.0-153.0-1.0","D4DBA0000B9C4D8980E02F5238FBAC77","019ce666-b411-7d86-bd44-c1be351605eb","019ce643-47c6-74a0-b3d2-7bf5651ded46","","845","
                        <div style=""font-family: Arial; margin-bottom: 20px;""><h3>Which image is more valuable?</h3></div>
                        <div class=""stimulus-container"" style=""display: flex; width: 1100px; justify-content: center; gap: 50px;"">
                            <img src=""images/causal_sequence/package_causal/package_causal_4.png"" class=""exp-image"">
                            <img src=""images/causal_sequence/package_causal/package_causal_6.png"" class=""exp-image"">
                        </div>","0","part3_final_choice","","package_causal","","5","4","-1"
"","","","","","survey-text","160","619944","0.0-154.0","D4DBA0000B9C4D8980E02F5238FBAC77","019ce666-b411-7d86-bd44-c1be351605eb","019ce643-47c6-74a0-b3d2-7bf5651ded46","","50372","","{""gender"":""female"",""age"":""32"",""decision_strategy"":""Which one looks like it told a story it self"",""consistency_check"":""No""}","demographics_and_strategy","","","","","",""
"","","","","","instructions","161","632016","0.0-155.0","D4DBA0000B9C4D8980E02F5238FBAC77","019ce666-b411-7d86-bd44-c1be351605eb","019ce643-47c6-74a0-b3d2-7bf5651ded46","[{""page_index"":0,""viewing_time"":12070}]","12070","","","","","","","","",""
