"success","timeout","failed_images","failed_audio","failed_video","trial_type","trial_index","time_elapsed","internal_node_id","subject_id","study_id","session_id","view_history","rt","stimulus","response","task","image_index","folder","sequence_type","valuable_image_index","reward_type","chosen_image_index","correct_choice"
"true","false","[]","[]","[]","preload","0","170008","0.0-0.0","22574F14C36748D5AF5E4C8D80EC1784","019cefab-f236-7b56-80db-a9785844f09e","019cef87-c56d-7b55-9135-c5814367ec25","","","","","","","","","","","",""
"","","","","","instructions","1","185647","0.0-1.0","22574F14C36748D5AF5E4C8D80EC1784","019cefab-f236-7b56-80db-a9785844f09e","019cef87-c56d-7b55-9135-c5814367ec25","[{""page_index"":0,""viewing_time"":15635}]","15636","","","","","","","","","",""
"","","","","","instructions","2","187927","0.0-2.0","22574F14C36748D5AF5E4C8D80EC1784","019cefab-f236-7b56-80db-a9785844f09e","019cef87-c56d-7b55-9135-c5814367ec25","[{""page_index"":0,""viewing_time"":2278}]","2279","","","","","","","","","",""
"true","","","","","fullscreen","3","191124","0.0-3.0","22574F14C36748D5AF5E4C8D80EC1784","019cefab-f236-7b56-80db-a9785844f09e","019cef87-c56d-7b55-9135-c5814367ec25","","2188","","","","","","","","","",""
"","","","","","instructions","4","199080","0.0-4.0","22574F14C36748D5AF5E4C8D80EC1784","019cefab-f236-7b56-80db-a9785844f09e","019cef87-c56d-7b55-9135-c5814367ec25","[{""page_index"":0,""viewing_time"":7955}]","7956","","","","","","","","","",""
"","","","","","instructions","5","205435","0.0-5.0","22574F14C36748D5AF5E4C8D80EC1784","019cefab-f236-7b56-80db-a9785844f09e","019cef87-c56d-7b55-9135-c5814367ec25","[{""page_index"":0,""viewing_time"":6353}]","6354","","","","","","","","","",""
"","","","","","html-keyboard-response","6","209439","0.0-6.0","22574F14C36748D5AF5E4C8D80EC1784","019cefab-f236-7b56-80db-a9785844f09e","019cef87-c56d-7b55-9135-c5814367ec25","","null","
                <div class=""stimulus-container"">
                    <img src=""images/instructions/movie_1.png"" class=""exp-image"">
                    <div class=""question-area""></div> 
                </div>","null","","","","","","","",""
"","","","","","html-button-response","7","210523","0.0-7.0","22574F14C36748D5AF5E4C8D80EC1784","019cefab-f236-7b56-80db-a9785844f09e","019cef87-c56d-7b55-9135-c5814367ec25","","1082","
                <div class=""stimulus-container"">
                    <img src=""images/instructions/movie_1.png"" class=""exp-image"">
                    <div class=""question-area"">
                        <p style=""font-size: 20px; font-weight: bold; margin: 0;"">Was there a person in this image?</p>
                    </div>
                </div>","0","example_question","1","","","","","",""
"","","","","","html-keyboard-response","8","214527","0.0-8.0","22574F14C36748D5AF5E4C8D80EC1784","019cefab-f236-7b56-80db-a9785844f09e","019cef87-c56d-7b55-9135-c5814367ec25","","null","
                <div class=""stimulus-container"">
                    <img src=""images/instructions/movie_2.png"" class=""exp-image"">
                    <div class=""question-area""></div> 
                </div>","null","","","","","","","",""
"","","","","","html-button-response","9","215081","0.0-9.0","22574F14C36748D5AF5E4C8D80EC1784","019cefab-f236-7b56-80db-a9785844f09e","019cef87-c56d-7b55-9135-c5814367ec25","","553","
                <div class=""stimulus-container"">
                    <img src=""images/instructions/movie_2.png"" class=""exp-image"">
                    <div class=""question-area"">
                        <p style=""font-size: 20px; font-weight: bold; margin: 0;"">Was there a person in this image?</p>
                    </div>
                </div>","0","example_question","2","","","","","",""
"","","","","","html-keyboard-response","10","219091","0.0-10.0","22574F14C36748D5AF5E4C8D80EC1784","019cefab-f236-7b56-80db-a9785844f09e","019cef87-c56d-7b55-9135-c5814367ec25","","null","
                <div class=""stimulus-container"">
                    <img src=""images/instructions/movie_3.png"" class=""exp-image"">
                    <div class=""question-area""></div> 
                </div>","null","","","","","","","",""
"","","","","","html-button-response","11","220566","0.0-11.0","22574F14C36748D5AF5E4C8D80EC1784","019cefab-f236-7b56-80db-a9785844f09e","019cef87-c56d-7b55-9135-c5814367ec25","","1473","
                <div class=""stimulus-container"">
                    <img src=""images/instructions/movie_3.png"" class=""exp-image"">
                    <div class=""question-area"">
                        <p style=""font-size: 20px; font-weight: bold; margin: 0;"">Was there a person in this image?</p>
                    </div>
                </div>","0","example_question","3","","","","","",""
"","","","","","html-keyboard-response","12","224576","0.0-12.0","22574F14C36748D5AF5E4C8D80EC1784","019cefab-f236-7b56-80db-a9785844f09e","019cef87-c56d-7b55-9135-c5814367ec25","","null","
                <div class=""stimulus-container"">
                    <img src=""images/instructions/movie_4.png"" class=""exp-image"">
                    <div class=""question-area""></div> 
                </div>","null","","","","","","","",""
"","","","","","html-button-response","13","225936","0.0-13.0","22574F14C36748D5AF5E4C8D80EC1784","019cefab-f236-7b56-80db-a9785844f09e","019cef87-c56d-7b55-9135-c5814367ec25","","1358","
                <div class=""stimulus-container"">
                    <img src=""images/instructions/movie_4.png"" class=""exp-image"">
                    <div class=""question-area"">
                        <p style=""font-size: 20px; font-weight: bold; margin: 0;"">Was there a person in this image?</p>
                    </div>
                </div>","0","example_question","4","","","","","",""
"","","","","","instructions","14","227114","0.0-14.0","22574F14C36748D5AF5E4C8D80EC1784","019cefab-f236-7b56-80db-a9785844f09e","019cef87-c56d-7b55-9135-c5814367ec25","[{""page_index"":0,""viewing_time"":1177}]","1178","","","","","","","","","",""
"","","","","","instructions","15","230686","0.0-15.0","22574F14C36748D5AF5E4C8D80EC1784","019cefab-f236-7b56-80db-a9785844f09e","019cef87-c56d-7b55-9135-c5814367ec25","[{""page_index"":0,""viewing_time"":3571}]","3571","","","","","","","","","",""
"","","","","","html-keyboard-response","16","231697","0.0-16.0","22574F14C36748D5AF5E4C8D80EC1784","019cefab-f236-7b56-80db-a9785844f09e","019cef87-c56d-7b55-9135-c5814367ec25","","null","<div style=""background-color: white; width: 100vw; height: 100vh;""></div>","null","","","","","","","",""
"","","","","","html-keyboard-response","17","236700","0.0-17.0","22574F14C36748D5AF5E4C8D80EC1784","019cefab-f236-7b56-80db-a9785844f09e","019cef87-c56d-7b55-9135-c5814367ec25","","null","
                <div class=""stimulus-container"">
                    <img src=""images/schematic_sequence/flight_scheme/flight_scheme_1.png"" class=""exp-image"">
                    <div class=""question-area""></div> 
                </div>","null","","","","","","","",""
"","","","","","html-button-response","18","238333","0.0-18.0","22574F14C36748D5AF5E4C8D80EC1784","019cefab-f236-7b56-80db-a9785844f09e","019cef87-c56d-7b55-9135-c5814367ec25","","1631","
                <div class=""stimulus-container"">
                    <img src=""images/schematic_sequence/flight_scheme/flight_scheme_1.png"" class=""exp-image"">
                    <div class=""question-area"">
                        <p style=""font-size: 20px; font-weight: bold; margin: 0;"">Is there a person in this image?</p>
                    </div>
                </div>","0","main_experiment_trial","1","flight_scheme","schematic_sequence","","","",""
"","","","","","html-keyboard-response","19","243342","0.0-19.0","22574F14C36748D5AF5E4C8D80EC1784","019cefab-f236-7b56-80db-a9785844f09e","019cef87-c56d-7b55-9135-c5814367ec25","","null","
                <div class=""stimulus-container"">
                    <img src=""images/schematic_sequence/flight_scheme/flight_scheme_2.png"" class=""exp-image"">
                    <div class=""question-area""></div> 
                </div>","null","","","","","","","",""
"","","","","","html-button-response","20","243895","0.0-20.0","22574F14C36748D5AF5E4C8D80EC1784","019cefab-f236-7b56-80db-a9785844f09e","019cef87-c56d-7b55-9135-c5814367ec25","","551","
                <div class=""stimulus-container"">
                    <img src=""images/schematic_sequence/flight_scheme/flight_scheme_2.png"" class=""exp-image"">
                    <div class=""question-area"">
                        <p style=""font-size: 20px; font-weight: bold; margin: 0;"">Is there a person in this image?</p>
                    </div>
                </div>","1","main_experiment_trial","2","flight_scheme","schematic_sequence","","","",""
"","","","","","html-keyboard-response","21","248897","0.0-21.0","22574F14C36748D5AF5E4C8D80EC1784","019cefab-f236-7b56-80db-a9785844f09e","019cef87-c56d-7b55-9135-c5814367ec25","","null","
                <div class=""stimulus-container"">
                    <img src=""images/schematic_sequence/flight_scheme/flight_scheme_3.png"" class=""exp-image"">
                    <div class=""question-area""></div> 
                </div>","null","","","","","","","",""
"","","","","","html-button-response","22","249317","0.0-22.0","22574F14C36748D5AF5E4C8D80EC1784","019cefab-f236-7b56-80db-a9785844f09e","019cef87-c56d-7b55-9135-c5814367ec25","","419","
                <div class=""stimulus-container"">
                    <img src=""images/schematic_sequence/flight_scheme/flight_scheme_3.png"" class=""exp-image"">
                    <div class=""question-area"">
                        <p style=""font-size: 20px; font-weight: bold; margin: 0;"">Is there a person in this image?</p>
                    </div>
                </div>","0","main_experiment_trial","3","flight_scheme","schematic_sequence","","","",""
"","","","","","html-keyboard-response","23","254328","0.0-23.0","22574F14C36748D5AF5E4C8D80EC1784","019cefab-f236-7b56-80db-a9785844f09e","019cef87-c56d-7b55-9135-c5814367ec25","","null","
                <div class=""stimulus-container"">
                    <img src=""images/schematic_sequence/flight_scheme/flight_scheme_4.png"" class=""exp-image"">
                    <div class=""question-area""></div> 
                </div>","null","","","","","","","",""
"","","","","","html-button-response","24","255180","0.0-24.0","22574F14C36748D5AF5E4C8D80EC1784","019cefab-f236-7b56-80db-a9785844f09e","019cef87-c56d-7b55-9135-c5814367ec25","","851","
                <div class=""stimulus-container"">
                    <img src=""images/schematic_sequence/flight_scheme/flight_scheme_4.png"" class=""exp-image"">
                    <div class=""question-area"">
                        <p style=""font-size: 20px; font-weight: bold; margin: 0;"">Is there a person in this image?</p>
                    </div>
                </div>","0","main_experiment_trial","4","flight_scheme","schematic_sequence","","","",""
"","","","","","html-keyboard-response","25","260191","0.0-25.0","22574F14C36748D5AF5E4C8D80EC1784","019cefab-f236-7b56-80db-a9785844f09e","019cef87-c56d-7b55-9135-c5814367ec25","","null","
                <div class=""stimulus-container"">
                    <img src=""images/schematic_sequence/flight_scheme/flight_scheme_5.png"" class=""exp-image"">
                    <div class=""question-area""></div> 
                </div>","null","","","","","","","",""
"","","","","","html-button-response","26","260670","0.0-26.0","22574F14C36748D5AF5E4C8D80EC1784","019cefab-f236-7b56-80db-a9785844f09e","019cef87-c56d-7b55-9135-c5814367ec25","","478","
                <div class=""stimulus-container"">
                    <img src=""images/schematic_sequence/flight_scheme/flight_scheme_5.png"" class=""exp-image"">
                    <div class=""question-area"">
                        <p style=""font-size: 20px; font-weight: bold; margin: 0;"">Is there a person in this image?</p>
                    </div>
                </div>","0","main_experiment_trial","5","flight_scheme","schematic_sequence","","","",""
"","","","","","html-keyboard-response","27","265679","0.0-27.0","22574F14C36748D5AF5E4C8D80EC1784","019cefab-f236-7b56-80db-a9785844f09e","019cef87-c56d-7b55-9135-c5814367ec25","","null","
                <div class=""stimulus-container"">
                    <img src=""images/schematic_sequence/flight_scheme/flight_scheme_6.png"" class=""exp-image"">
                    <div class=""question-area""></div> 
                </div>","null","","","","","","","",""
"","","","","","html-button-response","28","266136","0.0-28.0","22574F14C36748D5AF5E4C8D80EC1784","019cefab-f236-7b56-80db-a9785844f09e","019cef87-c56d-7b55-9135-c5814367ec25","","455","
                <div class=""stimulus-container"">
                    <img src=""images/schematic_sequence/flight_scheme/flight_scheme_6.png"" class=""exp-image"">
                    <div class=""question-area"">
                        <p style=""font-size: 20px; font-weight: bold; margin: 0;"">Is there a person in this image?</p>
                    </div>
                </div>","1","main_experiment_trial","6","flight_scheme","schematic_sequence","","","",""
"","","","","","html-keyboard-response","29","271142","0.0-29.0","22574F14C36748D5AF5E4C8D80EC1784","019cefab-f236-7b56-80db-a9785844f09e","019cef87-c56d-7b55-9135-c5814367ec25","","null","
                <div class=""stimulus-container"">
                    <img src=""images/schematic_sequence/flight_scheme/flight_scheme_7.png"" class=""exp-image"">
                    <div class=""question-area""></div> 
                </div>","null","","","","","","","",""
"","","","","","html-button-response","30","271672","0.0-30.0","22574F14C36748D5AF5E4C8D80EC1784","019cefab-f236-7b56-80db-a9785844f09e","019cef87-c56d-7b55-9135-c5814367ec25","","528","
                <div class=""stimulus-container"">
                    <img src=""images/schematic_sequence/flight_scheme/flight_scheme_7.png"" class=""exp-image"">
                    <div class=""question-area"">
                        <p style=""font-size: 20px; font-weight: bold; margin: 0;"">Is there a person in this image?</p>
                    </div>
                </div>","1","main_experiment_trial","7","flight_scheme","schematic_sequence","","","",""
"","","","","","html-keyboard-response","31","276679","0.0-31.0","22574F14C36748D5AF5E4C8D80EC1784","019cefab-f236-7b56-80db-a9785844f09e","019cef87-c56d-7b55-9135-c5814367ec25","","null","
                <div class=""stimulus-container"">
                    <img src=""images/schematic_sequence/flight_scheme/flight_scheme_8.png"" class=""exp-image"">
                    <div class=""question-area""></div> 
                </div>","null","","","","","","","",""
"","","","","","html-button-response","32","278721","0.0-32.0","22574F14C36748D5AF5E4C8D80EC1784","019cefab-f236-7b56-80db-a9785844f09e","019cef87-c56d-7b55-9135-c5814367ec25","","2040","
                <div class=""stimulus-container"">
                    <img src=""images/schematic_sequence/flight_scheme/flight_scheme_8.png"" class=""exp-image"">
                    <div class=""question-area"">
                        <p style=""font-size: 20px; font-weight: bold; margin: 0;"">Is there a person in this image?</p>
                    </div>
                </div>","1","main_experiment_trial","8","flight_scheme","schematic_sequence","","","",""
"","","","","","html-keyboard-response","33","283729","0.0-33.0","22574F14C36748D5AF5E4C8D80EC1784","019cefab-f236-7b56-80db-a9785844f09e","019cef87-c56d-7b55-9135-c5814367ec25","","null","
                <div class=""stimulus-container"">
                    <img src=""images/schematic_sequence/flight_scheme/flight_scheme_9.png"" class=""exp-image"">
                    <div class=""question-area""></div> 
                </div>","null","","","","","","","",""
"","","","","","html-button-response","34","284175","0.0-34.0","22574F14C36748D5AF5E4C8D80EC1784","019cefab-f236-7b56-80db-a9785844f09e","019cef87-c56d-7b55-9135-c5814367ec25","","445","
                <div class=""stimulus-container"">
                    <img src=""images/schematic_sequence/flight_scheme/flight_scheme_9.png"" class=""exp-image"">
                    <div class=""question-area"">
                        <p style=""font-size: 20px; font-weight: bold; margin: 0;"">Is there a person in this image?</p>
                    </div>
                </div>","0","main_experiment_trial","9","flight_scheme","schematic_sequence","","","",""
"","","","","","html-keyboard-response","35","289179","0.0-35.0","22574F14C36748D5AF5E4C8D80EC1784","019cefab-f236-7b56-80db-a9785844f09e","019cef87-c56d-7b55-9135-c5814367ec25","","null","
                <div class=""stimulus-container"">
                    <img src=""images/schematic_sequence/flight_scheme/flight_scheme_ten.png"" class=""exp-image"">
                    <div class=""question-area""></div> 
                </div>","null","","","","","","","",""
"","","","","","html-button-response","36","289666","0.0-36.0","22574F14C36748D5AF5E4C8D80EC1784","019cefab-f236-7b56-80db-a9785844f09e","019cef87-c56d-7b55-9135-c5814367ec25","","486","
                <div class=""stimulus-container"">
                    <img src=""images/schematic_sequence/flight_scheme/flight_scheme_ten.png"" class=""exp-image"">
                    <div class=""question-area"">
                        <p style=""font-size: 20px; font-weight: bold; margin: 0;"">Is there a person in this image?</p>
                    </div>
                </div>","0","main_experiment_trial","ten","flight_scheme","schematic_sequence","","","",""
"","","","","","html-keyboard-response","37","290671","0.0-37.0","22574F14C36748D5AF5E4C8D80EC1784","019cefab-f236-7b56-80db-a9785844f09e","019cef87-c56d-7b55-9135-c5814367ec25","","null","<div style=""background-color: white; width: 100vw; height: 100vh;""></div>","null","","","","","","","",""
"","","","","","html-keyboard-response","38","295678","0.0-38.0","22574F14C36748D5AF5E4C8D80EC1784","019cefab-f236-7b56-80db-a9785844f09e","019cef87-c56d-7b55-9135-c5814367ec25","","null","
                <div class=""stimulus-container"">
                    <img src=""images/causal_sequence/museum_causal/museum_causal_1.png"" class=""exp-image"">
                    <div class=""question-area""></div> 
                </div>","null","","","","","","","",""
"","","","","","html-button-response","39","296200","0.0-39.0","22574F14C36748D5AF5E4C8D80EC1784","019cefab-f236-7b56-80db-a9785844f09e","019cef87-c56d-7b55-9135-c5814367ec25","","521","
                <div class=""stimulus-container"">
                    <img src=""images/causal_sequence/museum_causal/museum_causal_1.png"" class=""exp-image"">
                    <div class=""question-area"">
                        <p style=""font-size: 20px; font-weight: bold; margin: 0;"">Is there a person in this image?</p>
                    </div>
                </div>","0","main_experiment_trial","1","museum_causal","causal_sequence","","","",""
"","","","","","html-keyboard-response","40","301204","0.0-40.0","22574F14C36748D5AF5E4C8D80EC1784","019cefab-f236-7b56-80db-a9785844f09e","019cef87-c56d-7b55-9135-c5814367ec25","","null","
                <div class=""stimulus-container"">
                    <img src=""images/causal_sequence/museum_causal/museum_causal_2.png"" class=""exp-image"">
                    <div class=""question-area""></div> 
                </div>","null","","","","","","","",""
"","","","","","html-button-response","41","302560","0.0-41.0","22574F14C36748D5AF5E4C8D80EC1784","019cefab-f236-7b56-80db-a9785844f09e","019cef87-c56d-7b55-9135-c5814367ec25","","1355","
                <div class=""stimulus-container"">
                    <img src=""images/causal_sequence/museum_causal/museum_causal_2.png"" class=""exp-image"">
                    <div class=""question-area"">
                        <p style=""font-size: 20px; font-weight: bold; margin: 0;"">Is there a person in this image?</p>
                    </div>
                </div>","1","main_experiment_trial","2","museum_causal","causal_sequence","","","",""
"","","","","","html-keyboard-response","42","307570","0.0-42.0","22574F14C36748D5AF5E4C8D80EC1784","019cefab-f236-7b56-80db-a9785844f09e","019cef87-c56d-7b55-9135-c5814367ec25","","null","
                <div class=""stimulus-container"">
                    <img src=""images/causal_sequence/museum_causal/museum_causal_3.png"" class=""exp-image"">
                    <div class=""question-area""></div> 
                </div>","null","","","","","","","",""
"","","","","","html-button-response","43","308484","0.0-43.0","22574F14C36748D5AF5E4C8D80EC1784","019cefab-f236-7b56-80db-a9785844f09e","019cef87-c56d-7b55-9135-c5814367ec25","","914","
                <div class=""stimulus-container"">
                    <img src=""images/causal_sequence/museum_causal/museum_causal_3.png"" class=""exp-image"">
                    <div class=""question-area"">
                        <p style=""font-size: 20px; font-weight: bold; margin: 0;"">Is there a person in this image?</p>
                    </div>
                </div>","0","main_experiment_trial","3","museum_causal","causal_sequence","","","",""
"","","","","","html-keyboard-response","44","313486","0.0-44.0","22574F14C36748D5AF5E4C8D80EC1784","019cefab-f236-7b56-80db-a9785844f09e","019cef87-c56d-7b55-9135-c5814367ec25","","null","
                <div class=""stimulus-container"">
                    <img src=""images/causal_sequence/museum_causal/museum_causal_4.png"" class=""exp-image"">
                    <div class=""question-area""></div> 
                </div>","null","","","","","","","",""
"","","","","","html-button-response","45","313953","0.0-45.0","22574F14C36748D5AF5E4C8D80EC1784","019cefab-f236-7b56-80db-a9785844f09e","019cef87-c56d-7b55-9135-c5814367ec25","","465","
                <div class=""stimulus-container"">
                    <img src=""images/causal_sequence/museum_causal/museum_causal_4.png"" class=""exp-image"">
                    <div class=""question-area"">
                        <p style=""font-size: 20px; font-weight: bold; margin: 0;"">Is there a person in this image?</p>
                    </div>
                </div>","1","main_experiment_trial","4","museum_causal","causal_sequence","","","",""
"","","","","","html-keyboard-response","46","318963","0.0-46.0","22574F14C36748D5AF5E4C8D80EC1784","019cefab-f236-7b56-80db-a9785844f09e","019cef87-c56d-7b55-9135-c5814367ec25","","null","
                <div class=""stimulus-container"">
                    <img src=""images/causal_sequence/museum_causal/museum_causal_5.png"" class=""exp-image"">
                    <div class=""question-area""></div> 
                </div>","null","","","","","","","",""
"","","","","","html-button-response","47","319823","0.0-47.0","22574F14C36748D5AF5E4C8D80EC1784","019cefab-f236-7b56-80db-a9785844f09e","019cef87-c56d-7b55-9135-c5814367ec25","","859","
                <div class=""stimulus-container"">
                    <img src=""images/causal_sequence/museum_causal/museum_causal_5.png"" class=""exp-image"">
                    <div class=""question-area"">
                        <p style=""font-size: 20px; font-weight: bold; margin: 0;"">Is there a person in this image?</p>
                    </div>
                </div>","0","main_experiment_trial","5","museum_causal","causal_sequence","","","",""
"","","","","","html-keyboard-response","48","324827","0.0-48.0","22574F14C36748D5AF5E4C8D80EC1784","019cefab-f236-7b56-80db-a9785844f09e","019cef87-c56d-7b55-9135-c5814367ec25","","null","
                <div class=""stimulus-container"">
                    <img src=""images/causal_sequence/museum_causal/museum_causal_6.png"" class=""exp-image"">
                    <div class=""question-area""></div> 
                </div>","null","","","","","","","",""
"","","","","","html-button-response","49","325253","0.0-49.0","22574F14C36748D5AF5E4C8D80EC1784","019cefab-f236-7b56-80db-a9785844f09e","019cef87-c56d-7b55-9135-c5814367ec25","","424","
                <div class=""stimulus-container"">
                    <img src=""images/causal_sequence/museum_causal/museum_causal_6.png"" class=""exp-image"">
                    <div class=""question-area"">
                        <p style=""font-size: 20px; font-weight: bold; margin: 0;"">Is there a person in this image?</p>
                    </div>
                </div>","0","main_experiment_trial","6","museum_causal","causal_sequence","","","",""
"","","","","","html-keyboard-response","50","330263","0.0-50.0","22574F14C36748D5AF5E4C8D80EC1784","019cefab-f236-7b56-80db-a9785844f09e","019cef87-c56d-7b55-9135-c5814367ec25","","null","
                <div class=""stimulus-container"">
                    <img src=""images/causal_sequence/museum_causal/museum_causal_7.png"" class=""exp-image"">
                    <div class=""question-area""></div> 
                </div>","null","","","","","","","",""
"","","","","","html-button-response","51","331754","0.0-51.0","22574F14C36748D5AF5E4C8D80EC1784","019cefab-f236-7b56-80db-a9785844f09e","019cef87-c56d-7b55-9135-c5814367ec25","","1490","
                <div class=""stimulus-container"">
                    <img src=""images/causal_sequence/museum_causal/museum_causal_7.png"" class=""exp-image"">
                    <div class=""question-area"">
                        <p style=""font-size: 20px; font-weight: bold; margin: 0;"">Is there a person in this image?</p>
                    </div>
                </div>","1","main_experiment_trial","7","museum_causal","causal_sequence","","","",""
"","","","","","html-keyboard-response","52","336764","0.0-52.0","22574F14C36748D5AF5E4C8D80EC1784","019cefab-f236-7b56-80db-a9785844f09e","019cef87-c56d-7b55-9135-c5814367ec25","","null","
                <div class=""stimulus-container"">
                    <img src=""images/causal_sequence/museum_causal/museum_causal_8.png"" class=""exp-image"">
                    <div class=""question-area""></div> 
                </div>","null","","","","","","","",""
"","","","","","html-button-response","53","337193","0.0-53.0","22574F14C36748D5AF5E4C8D80EC1784","019cefab-f236-7b56-80db-a9785844f09e","019cef87-c56d-7b55-9135-c5814367ec25","","428","
                <div class=""stimulus-container"">
                    <img src=""images/causal_sequence/museum_causal/museum_causal_8.png"" class=""exp-image"">
                    <div class=""question-area"">
                        <p style=""font-size: 20px; font-weight: bold; margin: 0;"">Is there a person in this image?</p>
                    </div>
                </div>","0","main_experiment_trial","8","museum_causal","causal_sequence","","","",""
"","","","","","html-keyboard-response","54","342200","0.0-54.0","22574F14C36748D5AF5E4C8D80EC1784","019cefab-f236-7b56-80db-a9785844f09e","019cef87-c56d-7b55-9135-c5814367ec25","","null","
                <div class=""stimulus-container"">
                    <img src=""images/causal_sequence/museum_causal/museum_causal_9.png"" class=""exp-image"">
                    <div class=""question-area""></div> 
                </div>","null","","","","","","","",""
"","","","","","html-button-response","55","343845","0.0-55.0","22574F14C36748D5AF5E4C8D80EC1784","019cefab-f236-7b56-80db-a9785844f09e","019cef87-c56d-7b55-9135-c5814367ec25","","1644","
                <div class=""stimulus-container"">
                    <img src=""images/causal_sequence/museum_causal/museum_causal_9.png"" class=""exp-image"">
                    <div class=""question-area"">
                        <p style=""font-size: 20px; font-weight: bold; margin: 0;"">Is there a person in this image?</p>
                    </div>
                </div>","1","main_experiment_trial","9","museum_causal","causal_sequence","","","",""
"","","","","","html-keyboard-response","56","348848","0.0-56.0","22574F14C36748D5AF5E4C8D80EC1784","019cefab-f236-7b56-80db-a9785844f09e","019cef87-c56d-7b55-9135-c5814367ec25","","null","
                <div class=""stimulus-container"">
                    <img src=""images/causal_sequence/museum_causal/museum_causal_ten.png"" class=""exp-image"">
                    <div class=""question-area""></div> 
                </div>","null","","","","","","","",""
"","","","","","html-button-response","57","349649","0.0-57.0","22574F14C36748D5AF5E4C8D80EC1784","019cefab-f236-7b56-80db-a9785844f09e","019cef87-c56d-7b55-9135-c5814367ec25","","799","
                <div class=""stimulus-container"">
                    <img src=""images/causal_sequence/museum_causal/museum_causal_ten.png"" class=""exp-image"">
                    <div class=""question-area"">
                        <p style=""font-size: 20px; font-weight: bold; margin: 0;"">Is there a person in this image?</p>
                    </div>
                </div>","0","main_experiment_trial","ten","museum_causal","causal_sequence","","","",""
"","","","","","html-keyboard-response","58","350660","0.0-58.0","22574F14C36748D5AF5E4C8D80EC1784","019cefab-f236-7b56-80db-a9785844f09e","019cef87-c56d-7b55-9135-c5814367ec25","","null","<div style=""background-color: white; width: 100vw; height: 100vh;""></div>","null","","","","","","","",""
"","","","","","html-keyboard-response","59","355663","0.0-59.0","22574F14C36748D5AF5E4C8D80EC1784","019cefab-f236-7b56-80db-a9785844f09e","019cef87-c56d-7b55-9135-c5814367ec25","","null","
                <div class=""stimulus-container"">
                    <img src=""images/schematic_sequence/restaurant_scheme/restaurant_scheme_1.png"" class=""exp-image"">
                    <div class=""question-area""></div> 
                </div>","null","","","","","","","",""
"","","","","","html-button-response","60","356365","0.0-60.0","22574F14C36748D5AF5E4C8D80EC1784","019cefab-f236-7b56-80db-a9785844f09e","019cef87-c56d-7b55-9135-c5814367ec25","","701","
                <div class=""stimulus-container"">
                    <img src=""images/schematic_sequence/restaurant_scheme/restaurant_scheme_1.png"" class=""exp-image"">
                    <div class=""question-area"">
                        <p style=""font-size: 20px; font-weight: bold; margin: 0;"">Is there a person in this image?</p>
                    </div>
                </div>","0","main_experiment_trial","1","restaurant_scheme","schematic_sequence","","","",""
"","","","","","html-keyboard-response","61","361370","0.0-61.0","22574F14C36748D5AF5E4C8D80EC1784","019cefab-f236-7b56-80db-a9785844f09e","019cef87-c56d-7b55-9135-c5814367ec25","","null","
                <div class=""stimulus-container"">
                    <img src=""images/schematic_sequence/restaurant_scheme/restaurant_scheme_2.png"" class=""exp-image"">
                    <div class=""question-area""></div> 
                </div>","null","","","","","","","",""
"","","","","","html-button-response","62","361862","0.0-62.0","22574F14C36748D5AF5E4C8D80EC1784","019cefab-f236-7b56-80db-a9785844f09e","019cef87-c56d-7b55-9135-c5814367ec25","","490","
                <div class=""stimulus-container"">
                    <img src=""images/schematic_sequence/restaurant_scheme/restaurant_scheme_2.png"" class=""exp-image"">
                    <div class=""question-area"">
                        <p style=""font-size: 20px; font-weight: bold; margin: 0;"">Is there a person in this image?</p>
                    </div>
                </div>","1","main_experiment_trial","2","restaurant_scheme","schematic_sequence","","","",""
"","","","","","html-keyboard-response","63","366877","0.0-63.0","22574F14C36748D5AF5E4C8D80EC1784","019cefab-f236-7b56-80db-a9785844f09e","019cef87-c56d-7b55-9135-c5814367ec25","","null","
                <div class=""stimulus-container"">
                    <img src=""images/schematic_sequence/restaurant_scheme/restaurant_scheme_3.png"" class=""exp-image"">
                    <div class=""question-area""></div> 
                </div>","null","","","","","","","",""
"","","","","","html-button-response","64","367442","0.0-64.0","22574F14C36748D5AF5E4C8D80EC1784","019cefab-f236-7b56-80db-a9785844f09e","019cef87-c56d-7b55-9135-c5814367ec25","","563","
                <div class=""stimulus-container"">
                    <img src=""images/schematic_sequence/restaurant_scheme/restaurant_scheme_3.png"" class=""exp-image"">
                    <div class=""question-area"">
                        <p style=""font-size: 20px; font-weight: bold; margin: 0;"">Is there a person in this image?</p>
                    </div>
                </div>","1","main_experiment_trial","3","restaurant_scheme","schematic_sequence","","","",""
"","","","","","html-keyboard-response","65","372448","0.0-65.0","22574F14C36748D5AF5E4C8D80EC1784","019cefab-f236-7b56-80db-a9785844f09e","019cef87-c56d-7b55-9135-c5814367ec25","","null","
                <div class=""stimulus-container"">
                    <img src=""images/schematic_sequence/restaurant_scheme/restaurant_scheme_4.png"" class=""exp-image"">
                    <div class=""question-area""></div> 
                </div>","null","","","","","","","",""
"","","","","","html-button-response","66","372956","0.0-66.0","22574F14C36748D5AF5E4C8D80EC1784","019cefab-f236-7b56-80db-a9785844f09e","019cef87-c56d-7b55-9135-c5814367ec25","","506","
                <div class=""stimulus-container"">
                    <img src=""images/schematic_sequence/restaurant_scheme/restaurant_scheme_4.png"" class=""exp-image"">
                    <div class=""question-area"">
                        <p style=""font-size: 20px; font-weight: bold; margin: 0;"">Is there a person in this image?</p>
                    </div>
                </div>","0","main_experiment_trial","4","restaurant_scheme","schematic_sequence","","","",""
"","","","","","html-keyboard-response","67","377965","0.0-67.0","22574F14C36748D5AF5E4C8D80EC1784","019cefab-f236-7b56-80db-a9785844f09e","019cef87-c56d-7b55-9135-c5814367ec25","","null","
                <div class=""stimulus-container"">
                    <img src=""images/schematic_sequence/restaurant_scheme/restaurant_scheme_5.png"" class=""exp-image"">
                    <div class=""question-area""></div> 
                </div>","null","","","","","","","",""
"","","","","","html-button-response","68","378988","0.0-68.0","22574F14C36748D5AF5E4C8D80EC1784","019cefab-f236-7b56-80db-a9785844f09e","019cef87-c56d-7b55-9135-c5814367ec25","","1022","
                <div class=""stimulus-container"">
                    <img src=""images/schematic_sequence/restaurant_scheme/restaurant_scheme_5.png"" class=""exp-image"">
                    <div class=""question-area"">
                        <p style=""font-size: 20px; font-weight: bold; margin: 0;"">Is there a person in this image?</p>
                    </div>
                </div>","0","main_experiment_trial","5","restaurant_scheme","schematic_sequence","","","",""
"","","","","","html-keyboard-response","69","383994","0.0-69.0","22574F14C36748D5AF5E4C8D80EC1784","019cefab-f236-7b56-80db-a9785844f09e","019cef87-c56d-7b55-9135-c5814367ec25","","null","
                <div class=""stimulus-container"">
                    <img src=""images/schematic_sequence/restaurant_scheme/restaurant_scheme_6.png"" class=""exp-image"">
                    <div class=""question-area""></div> 
                </div>","null","","","","","","","",""
"","","","","","html-button-response","70","384790","0.0-70.0","22574F14C36748D5AF5E4C8D80EC1784","019cefab-f236-7b56-80db-a9785844f09e","019cef87-c56d-7b55-9135-c5814367ec25","","794","
                <div class=""stimulus-container"">
                    <img src=""images/schematic_sequence/restaurant_scheme/restaurant_scheme_6.png"" class=""exp-image"">
                    <div class=""question-area"">
                        <p style=""font-size: 20px; font-weight: bold; margin: 0;"">Is there a person in this image?</p>
                    </div>
                </div>","1","main_experiment_trial","6","restaurant_scheme","schematic_sequence","","","",""
"","","","","","html-keyboard-response","71","389797","0.0-71.0","22574F14C36748D5AF5E4C8D80EC1784","019cefab-f236-7b56-80db-a9785844f09e","019cef87-c56d-7b55-9135-c5814367ec25","","null","
                <div class=""stimulus-container"">
                    <img src=""images/schematic_sequence/restaurant_scheme/restaurant_scheme_7.png"" class=""exp-image"">
                    <div class=""question-area""></div> 
                </div>","null","","","","","","","",""
"","","","","","html-button-response","72","390582","0.0-72.0","22574F14C36748D5AF5E4C8D80EC1784","019cefab-f236-7b56-80db-a9785844f09e","019cef87-c56d-7b55-9135-c5814367ec25","","784","
                <div class=""stimulus-container"">
                    <img src=""images/schematic_sequence/restaurant_scheme/restaurant_scheme_7.png"" class=""exp-image"">
                    <div class=""question-area"">
                        <p style=""font-size: 20px; font-weight: bold; margin: 0;"">Is there a person in this image?</p>
                    </div>
                </div>","1","main_experiment_trial","7","restaurant_scheme","schematic_sequence","","","",""
"","","","","","html-keyboard-response","73","395584","0.0-73.0","22574F14C36748D5AF5E4C8D80EC1784","019cefab-f236-7b56-80db-a9785844f09e","019cef87-c56d-7b55-9135-c5814367ec25","","null","
                <div class=""stimulus-container"">
                    <img src=""images/schematic_sequence/restaurant_scheme/restaurant_scheme_8.png"" class=""exp-image"">
                    <div class=""question-area""></div> 
                </div>","null","","","","","","","",""
"","","","","","html-button-response","74","396443","0.0-74.0","22574F14C36748D5AF5E4C8D80EC1784","019cefab-f236-7b56-80db-a9785844f09e","019cef87-c56d-7b55-9135-c5814367ec25","","857","
                <div class=""stimulus-container"">
                    <img src=""images/schematic_sequence/restaurant_scheme/restaurant_scheme_8.png"" class=""exp-image"">
                    <div class=""question-area"">
                        <p style=""font-size: 20px; font-weight: bold; margin: 0;"">Is there a person in this image?</p>
                    </div>
                </div>","1","main_experiment_trial","8","restaurant_scheme","schematic_sequence","","","",""
"","","","","","html-keyboard-response","75","363798","0.0-75.0","22574F14C36748D5AF5E4C8D80EC1784","019cefab-f236-7b56-80db-a9785844f09e","019cef87-c56d-7b55-9135-c5814367ec25","","null","
                <div class=""stimulus-container"">
                    <img src=""images/schematic_sequence/restaurant_scheme/restaurant_scheme_9.png"" class=""exp-image"">
                    <div class=""question-area""></div> 
                </div>","null","","","","","","","",""
"","","","","","html-button-response","76","365374","0.0-76.0","22574F14C36748D5AF5E4C8D80EC1784","019cefab-f236-7b56-80db-a9785844f09e","019cef87-c56d-7b55-9135-c5814367ec25","","1574","
                <div class=""stimulus-container"">
                    <img src=""images/schematic_sequence/restaurant_scheme/restaurant_scheme_9.png"" class=""exp-image"">
                    <div class=""question-area"">
                        <p style=""font-size: 20px; font-weight: bold; margin: 0;"">Is there a person in this image?</p>
                    </div>
                </div>","0","main_experiment_trial","9","restaurant_scheme","schematic_sequence","","","",""
"","","","","","html-keyboard-response","77","370378","0.0-77.0","22574F14C36748D5AF5E4C8D80EC1784","019cefab-f236-7b56-80db-a9785844f09e","019cef87-c56d-7b55-9135-c5814367ec25","","null","
                <div class=""stimulus-container"">
                    <img src=""images/schematic_sequence/restaurant_scheme/restaurant_scheme_ten.png"" class=""exp-image"">
                    <div class=""question-area""></div> 
                </div>","null","","","","","","","",""
"","","","","","html-button-response","78","371259","0.0-78.0","22574F14C36748D5AF5E4C8D80EC1784","019cefab-f236-7b56-80db-a9785844f09e","019cef87-c56d-7b55-9135-c5814367ec25","","879","
                <div class=""stimulus-container"">
                    <img src=""images/schematic_sequence/restaurant_scheme/restaurant_scheme_ten.png"" class=""exp-image"">
                    <div class=""question-area"">
                        <p style=""font-size: 20px; font-weight: bold; margin: 0;"">Is there a person in this image?</p>
                    </div>
                </div>","0","main_experiment_trial","ten","restaurant_scheme","schematic_sequence","","","",""
"","","","","","html-keyboard-response","79","372266","0.0-79.0","22574F14C36748D5AF5E4C8D80EC1784","019cefab-f236-7b56-80db-a9785844f09e","019cef87-c56d-7b55-9135-c5814367ec25","","null","<div style=""background-color: white; width: 100vw; height: 100vh;""></div>","null","","","","","","","",""
"","","","","","html-keyboard-response","80","377274","0.0-80.0","22574F14C36748D5AF5E4C8D80EC1784","019cefab-f236-7b56-80db-a9785844f09e","019cef87-c56d-7b55-9135-c5814367ec25","","null","
                <div class=""stimulus-container"">
                    <img src=""images/causal_sequence/coin_causal/coin_causal_1.png"" class=""exp-image"">
                    <div class=""question-area""></div> 
                </div>","null","","","","","","","",""
"","","","","","html-button-response","81","377830","0.0-81.0","22574F14C36748D5AF5E4C8D80EC1784","019cefab-f236-7b56-80db-a9785844f09e","019cef87-c56d-7b55-9135-c5814367ec25","","555","
                <div class=""stimulus-container"">
                    <img src=""images/causal_sequence/coin_causal/coin_causal_1.png"" class=""exp-image"">
                    <div class=""question-area"">
                        <p style=""font-size: 20px; font-weight: bold; margin: 0;"">Is there a person in this image?</p>
                    </div>
                </div>","0","main_experiment_trial","1","coin_causal","causal_sequence","","","",""
"","","","","","html-keyboard-response","82","382839","0.0-82.0","22574F14C36748D5AF5E4C8D80EC1784","019cefab-f236-7b56-80db-a9785844f09e","019cef87-c56d-7b55-9135-c5814367ec25","","null","
                <div class=""stimulus-container"">
                    <img src=""images/causal_sequence/coin_causal/coin_causal_2.png"" class=""exp-image"">
                    <div class=""question-area""></div> 
                </div>","null","","","","","","","",""
"","","","","","html-button-response","83","383571","0.0-83.0","22574F14C36748D5AF5E4C8D80EC1784","019cefab-f236-7b56-80db-a9785844f09e","019cef87-c56d-7b55-9135-c5814367ec25","","731","
                <div class=""stimulus-container"">
                    <img src=""images/causal_sequence/coin_causal/coin_causal_2.png"" class=""exp-image"">
                    <div class=""question-area"">
                        <p style=""font-size: 20px; font-weight: bold; margin: 0;"">Is there a person in this image?</p>
                    </div>
                </div>","0","main_experiment_trial","2","coin_causal","causal_sequence","","","",""
"","","","","","html-keyboard-response","84","388579","0.0-84.0","22574F14C36748D5AF5E4C8D80EC1784","019cefab-f236-7b56-80db-a9785844f09e","019cef87-c56d-7b55-9135-c5814367ec25","","null","
                <div class=""stimulus-container"">
                    <img src=""images/causal_sequence/coin_causal/coin_causal_3.png"" class=""exp-image"">
                    <div class=""question-area""></div> 
                </div>","null","","","","","","","",""
"","","","","","html-button-response","85","389076","0.0-85.0","22574F14C36748D5AF5E4C8D80EC1784","019cefab-f236-7b56-80db-a9785844f09e","019cef87-c56d-7b55-9135-c5814367ec25","","496","
                <div class=""stimulus-container"">
                    <img src=""images/causal_sequence/coin_causal/coin_causal_3.png"" class=""exp-image"">
                    <div class=""question-area"">
                        <p style=""font-size: 20px; font-weight: bold; margin: 0;"">Is there a person in this image?</p>
                    </div>
                </div>","0","main_experiment_trial","3","coin_causal","causal_sequence","","","",""
"","","","","","html-keyboard-response","86","394083","0.0-86.0","22574F14C36748D5AF5E4C8D80EC1784","019cefab-f236-7b56-80db-a9785844f09e","019cef87-c56d-7b55-9135-c5814367ec25","","null","
                <div class=""stimulus-container"">
                    <img src=""images/causal_sequence/coin_causal/coin_causal_4.png"" class=""exp-image"">
                    <div class=""question-area""></div> 
                </div>","null","","","","","","","",""
"","","","","","html-button-response","87","394581","0.0-87.0","22574F14C36748D5AF5E4C8D80EC1784","019cefab-f236-7b56-80db-a9785844f09e","019cef87-c56d-7b55-9135-c5814367ec25","","496","
                <div class=""stimulus-container"">
                    <img src=""images/causal_sequence/coin_causal/coin_causal_4.png"" class=""exp-image"">
                    <div class=""question-area"">
                        <p style=""font-size: 20px; font-weight: bold; margin: 0;"">Is there a person in this image?</p>
                    </div>
                </div>","0","main_experiment_trial","4","coin_causal","causal_sequence","","","",""
"","","","","","html-keyboard-response","88","399587","0.0-88.0","22574F14C36748D5AF5E4C8D80EC1784","019cefab-f236-7b56-80db-a9785844f09e","019cef87-c56d-7b55-9135-c5814367ec25","","null","
                <div class=""stimulus-container"">
                    <img src=""images/causal_sequence/coin_causal/coin_causal_5.png"" class=""exp-image"">
                    <div class=""question-area""></div> 
                </div>","null","","","","","","","",""
"","","","","","html-button-response","89","400331","0.0-89.0","22574F14C36748D5AF5E4C8D80EC1784","019cefab-f236-7b56-80db-a9785844f09e","019cef87-c56d-7b55-9135-c5814367ec25","","742","
                <div class=""stimulus-container"">
                    <img src=""images/causal_sequence/coin_causal/coin_causal_5.png"" class=""exp-image"">
                    <div class=""question-area"">
                        <p style=""font-size: 20px; font-weight: bold; margin: 0;"">Is there a person in this image?</p>
                    </div>
                </div>","0","main_experiment_trial","5","coin_causal","causal_sequence","","","",""
"","","","","","html-keyboard-response","90","405343","0.0-90.0","22574F14C36748D5AF5E4C8D80EC1784","019cefab-f236-7b56-80db-a9785844f09e","019cef87-c56d-7b55-9135-c5814367ec25","","null","
                <div class=""stimulus-container"">
                    <img src=""images/causal_sequence/coin_causal/coin_causal_6.png"" class=""exp-image"">
                    <div class=""question-area""></div> 
                </div>","null","","","","","","","",""
"","","","","","html-button-response","91","405979","0.0-91.0","22574F14C36748D5AF5E4C8D80EC1784","019cefab-f236-7b56-80db-a9785844f09e","019cef87-c56d-7b55-9135-c5814367ec25","","635","
                <div class=""stimulus-container"">
                    <img src=""images/causal_sequence/coin_causal/coin_causal_6.png"" class=""exp-image"">
                    <div class=""question-area"">
                        <p style=""font-size: 20px; font-weight: bold; margin: 0;"">Is there a person in this image?</p>
                    </div>
                </div>","0","main_experiment_trial","6","coin_causal","causal_sequence","","","",""
"","","","","","html-keyboard-response","92","410988","0.0-92.0","22574F14C36748D5AF5E4C8D80EC1784","019cefab-f236-7b56-80db-a9785844f09e","019cef87-c56d-7b55-9135-c5814367ec25","","null","
                <div class=""stimulus-container"">
                    <img src=""images/causal_sequence/coin_causal/coin_causal_7.png"" class=""exp-image"">
                    <div class=""question-area""></div> 
                </div>","null","","","","","","","",""
"","","","","","html-button-response","93","412627","0.0-93.0","22574F14C36748D5AF5E4C8D80EC1784","019cefab-f236-7b56-80db-a9785844f09e","019cef87-c56d-7b55-9135-c5814367ec25","","1637","
                <div class=""stimulus-container"">
                    <img src=""images/causal_sequence/coin_causal/coin_causal_7.png"" class=""exp-image"">
                    <div class=""question-area"">
                        <p style=""font-size: 20px; font-weight: bold; margin: 0;"">Is there a person in this image?</p>
                    </div>
                </div>","1","main_experiment_trial","7","coin_causal","causal_sequence","","","",""
"","","","","","html-keyboard-response","94","417640","0.0-94.0","22574F14C36748D5AF5E4C8D80EC1784","019cefab-f236-7b56-80db-a9785844f09e","019cef87-c56d-7b55-9135-c5814367ec25","","null","
                <div class=""stimulus-container"">
                    <img src=""images/causal_sequence/coin_causal/coin_causal_8.png"" class=""exp-image"">
                    <div class=""question-area""></div> 
                </div>","null","","","","","","","",""
"","","","","","html-button-response","95","419334","0.0-95.0","22574F14C36748D5AF5E4C8D80EC1784","019cefab-f236-7b56-80db-a9785844f09e","019cef87-c56d-7b55-9135-c5814367ec25","","1693","
                <div class=""stimulus-container"">
                    <img src=""images/causal_sequence/coin_causal/coin_causal_8.png"" class=""exp-image"">
                    <div class=""question-area"">
                        <p style=""font-size: 20px; font-weight: bold; margin: 0;"">Is there a person in this image?</p>
                    </div>
                </div>","0","main_experiment_trial","8","coin_causal","causal_sequence","","","",""
"","","","","","html-keyboard-response","96","424340","0.0-96.0","22574F14C36748D5AF5E4C8D80EC1784","019cefab-f236-7b56-80db-a9785844f09e","019cef87-c56d-7b55-9135-c5814367ec25","","null","
                <div class=""stimulus-container"">
                    <img src=""images/causal_sequence/coin_causal/coin_causal_9.png"" class=""exp-image"">
                    <div class=""question-area""></div> 
                </div>","null","","","","","","","",""
"","","","","","html-button-response","97","424755","0.0-97.0","22574F14C36748D5AF5E4C8D80EC1784","019cefab-f236-7b56-80db-a9785844f09e","019cef87-c56d-7b55-9135-c5814367ec25","","414","
                <div class=""stimulus-container"">
                    <img src=""images/causal_sequence/coin_causal/coin_causal_9.png"" class=""exp-image"">
                    <div class=""question-area"">
                        <p style=""font-size: 20px; font-weight: bold; margin: 0;"">Is there a person in this image?</p>
                    </div>
                </div>","0","main_experiment_trial","9","coin_causal","causal_sequence","","","",""
"","","","","","html-keyboard-response","98","429769","0.0-98.0","22574F14C36748D5AF5E4C8D80EC1784","019cefab-f236-7b56-80db-a9785844f09e","019cef87-c56d-7b55-9135-c5814367ec25","","null","
                <div class=""stimulus-container"">
                    <img src=""images/causal_sequence/coin_causal/coin_causal_ten.png"" class=""exp-image"">
                    <div class=""question-area""></div> 
                </div>","null","","","","","","","",""
"","","","","","html-button-response","99","430341","0.0-99.0","22574F14C36748D5AF5E4C8D80EC1784","019cefab-f236-7b56-80db-a9785844f09e","019cef87-c56d-7b55-9135-c5814367ec25","","570","
                <div class=""stimulus-container"">
                    <img src=""images/causal_sequence/coin_causal/coin_causal_ten.png"" class=""exp-image"">
                    <div class=""question-area"">
                        <p style=""font-size: 20px; font-weight: bold; margin: 0;"">Is there a person in this image?</p>
                    </div>
                </div>","0","main_experiment_trial","ten","coin_causal","causal_sequence","","","",""
"","","","","","html-keyboard-response","100","431347","0.0-100.0","22574F14C36748D5AF5E4C8D80EC1784","019cefab-f236-7b56-80db-a9785844f09e","019cef87-c56d-7b55-9135-c5814367ec25","","null","<div style=""background-color: white; width: 100vw; height: 100vh;""></div>","null","","","","","","","",""
"","","","","","html-keyboard-response","101","436356","0.0-101.0","22574F14C36748D5AF5E4C8D80EC1784","019cefab-f236-7b56-80db-a9785844f09e","019cef87-c56d-7b55-9135-c5814367ec25","","null","
                <div class=""stimulus-container"">
                    <img src=""images/causal_sequence/the_performance_causal/the_performance_causal_1.png"" class=""exp-image"">
                    <div class=""question-area""></div> 
                </div>","null","","","","","","","",""
"","","","","","html-button-response","102","436901","0.0-102.0","22574F14C36748D5AF5E4C8D80EC1784","019cefab-f236-7b56-80db-a9785844f09e","019cef87-c56d-7b55-9135-c5814367ec25","","544","
                <div class=""stimulus-container"">
                    <img src=""images/causal_sequence/the_performance_causal/the_performance_causal_1.png"" class=""exp-image"">
                    <div class=""question-area"">
                        <p style=""font-size: 20px; font-weight: bold; margin: 0;"">Is there a person in this image?</p>
                    </div>
                </div>","0","main_experiment_trial","1","the_performance_causal","causal_sequence","","","",""
"","","","","","html-keyboard-response","103","441913","0.0-103.0","22574F14C36748D5AF5E4C8D80EC1784","019cefab-f236-7b56-80db-a9785844f09e","019cef87-c56d-7b55-9135-c5814367ec25","","null","
                <div class=""stimulus-container"">
                    <img src=""images/causal_sequence/the_performance_causal/the_performance_causal_2.png"" class=""exp-image"">
                    <div class=""question-area""></div> 
                </div>","null","","","","","","","",""
"","","","","","html-button-response","104","442336","0.0-104.0","22574F14C36748D5AF5E4C8D80EC1784","019cefab-f236-7b56-80db-a9785844f09e","019cef87-c56d-7b55-9135-c5814367ec25","","422","
                <div class=""stimulus-container"">
                    <img src=""images/causal_sequence/the_performance_causal/the_performance_causal_2.png"" class=""exp-image"">
                    <div class=""question-area"">
                        <p style=""font-size: 20px; font-weight: bold; margin: 0;"">Is there a person in this image?</p>
                    </div>
                </div>","0","main_experiment_trial","2","the_performance_causal","causal_sequence","","","",""
"","","","","","html-keyboard-response","105","447343","0.0-105.0","22574F14C36748D5AF5E4C8D80EC1784","019cefab-f236-7b56-80db-a9785844f09e","019cef87-c56d-7b55-9135-c5814367ec25","","null","
                <div class=""stimulus-container"">
                    <img src=""images/causal_sequence/the_performance_causal/the_performance_causal_3.png"" class=""exp-image"">
                    <div class=""question-area""></div> 
                </div>","null","","","","","","","",""
"","","","","","html-button-response","106","448059","0.0-106.0","22574F14C36748D5AF5E4C8D80EC1784","019cefab-f236-7b56-80db-a9785844f09e","019cef87-c56d-7b55-9135-c5814367ec25","","714","
                <div class=""stimulus-container"">
                    <img src=""images/causal_sequence/the_performance_causal/the_performance_causal_3.png"" class=""exp-image"">
                    <div class=""question-area"">
                        <p style=""font-size: 20px; font-weight: bold; margin: 0;"">Is there a person in this image?</p>
                    </div>
                </div>","0","main_experiment_trial","3","the_performance_causal","causal_sequence","","","",""
"","","","","","html-keyboard-response","107","453069","0.0-107.0","22574F14C36748D5AF5E4C8D80EC1784","019cefab-f236-7b56-80db-a9785844f09e","019cef87-c56d-7b55-9135-c5814367ec25","","null","
                <div class=""stimulus-container"">
                    <img src=""images/causal_sequence/the_performance_causal/the_performance_causal_4.png"" class=""exp-image"">
                    <div class=""question-area""></div> 
                </div>","null","","","","","","","",""
"","","","","","html-button-response","108","453521","0.0-108.0","22574F14C36748D5AF5E4C8D80EC1784","019cefab-f236-7b56-80db-a9785844f09e","019cef87-c56d-7b55-9135-c5814367ec25","","451","
                <div class=""stimulus-container"">
                    <img src=""images/causal_sequence/the_performance_causal/the_performance_causal_4.png"" class=""exp-image"">
                    <div class=""question-area"">
                        <p style=""font-size: 20px; font-weight: bold; margin: 0;"">Is there a person in this image?</p>
                    </div>
                </div>","0","main_experiment_trial","4","the_performance_causal","causal_sequence","","","",""
"","","","","","html-keyboard-response","109","458526","0.0-109.0","22574F14C36748D5AF5E4C8D80EC1784","019cefab-f236-7b56-80db-a9785844f09e","019cef87-c56d-7b55-9135-c5814367ec25","","null","
                <div class=""stimulus-container"">
                    <img src=""images/causal_sequence/the_performance_causal/the_performance_causal_5.png"" class=""exp-image"">
                    <div class=""question-area""></div> 
                </div>","null","","","","","","","",""
"","","","","","html-button-response","110","458911","0.0-110.0","22574F14C36748D5AF5E4C8D80EC1784","019cefab-f236-7b56-80db-a9785844f09e","019cef87-c56d-7b55-9135-c5814367ec25","","384","
                <div class=""stimulus-container"">
                    <img src=""images/causal_sequence/the_performance_causal/the_performance_causal_5.png"" class=""exp-image"">
                    <div class=""question-area"">
                        <p style=""font-size: 20px; font-weight: bold; margin: 0;"">Is there a person in this image?</p>
                    </div>
                </div>","0","main_experiment_trial","5","the_performance_causal","causal_sequence","","","",""
"","","","","","html-keyboard-response","111","463921","0.0-111.0","22574F14C36748D5AF5E4C8D80EC1784","019cefab-f236-7b56-80db-a9785844f09e","019cef87-c56d-7b55-9135-c5814367ec25","","null","
                <div class=""stimulus-container"">
                    <img src=""images/causal_sequence/the_performance_causal/the_performance_causal_6.png"" class=""exp-image"">
                    <div class=""question-area""></div> 
                </div>","null","","","","","","","",""
"","","","","","html-button-response","112","464448","0.0-112.0","22574F14C36748D5AF5E4C8D80EC1784","019cefab-f236-7b56-80db-a9785844f09e","019cef87-c56d-7b55-9135-c5814367ec25","","525","
                <div class=""stimulus-container"">
                    <img src=""images/causal_sequence/the_performance_causal/the_performance_causal_6.png"" class=""exp-image"">
                    <div class=""question-area"">
                        <p style=""font-size: 20px; font-weight: bold; margin: 0;"">Is there a person in this image?</p>
                    </div>
                </div>","0","main_experiment_trial","6","the_performance_causal","causal_sequence","","","",""
"","","","","","html-keyboard-response","113","469457","0.0-113.0","22574F14C36748D5AF5E4C8D80EC1784","019cefab-f236-7b56-80db-a9785844f09e","019cef87-c56d-7b55-9135-c5814367ec25","","null","
                <div class=""stimulus-container"">
                    <img src=""images/causal_sequence/the_performance_causal/the_performance_causal_7.png"" class=""exp-image"">
                    <div class=""question-area""></div> 
                </div>","null","","","","","","","",""
"","","","","","html-button-response","114","471928","0.0-114.0","22574F14C36748D5AF5E4C8D80EC1784","019cefab-f236-7b56-80db-a9785844f09e","019cef87-c56d-7b55-9135-c5814367ec25","","2470","
                <div class=""stimulus-container"">
                    <img src=""images/causal_sequence/the_performance_causal/the_performance_causal_7.png"" class=""exp-image"">
                    <div class=""question-area"">
                        <p style=""font-size: 20px; font-weight: bold; margin: 0;"">Is there a person in this image?</p>
                    </div>
                </div>","0","main_experiment_trial","7","the_performance_causal","causal_sequence","","","",""
"","","","","","html-keyboard-response","115","476938","0.0-115.0","22574F14C36748D5AF5E4C8D80EC1784","019cefab-f236-7b56-80db-a9785844f09e","019cef87-c56d-7b55-9135-c5814367ec25","","null","
                <div class=""stimulus-container"">
                    <img src=""images/causal_sequence/the_performance_causal/the_performance_causal_8.png"" class=""exp-image"">
                    <div class=""question-area""></div> 
                </div>","null","","","","","","","",""
"","","","","","html-button-response","116","477636","0.0-116.0","22574F14C36748D5AF5E4C8D80EC1784","019cefab-f236-7b56-80db-a9785844f09e","019cef87-c56d-7b55-9135-c5814367ec25","","697","
                <div class=""stimulus-container"">
                    <img src=""images/causal_sequence/the_performance_causal/the_performance_causal_8.png"" class=""exp-image"">
                    <div class=""question-area"">
                        <p style=""font-size: 20px; font-weight: bold; margin: 0;"">Is there a person in this image?</p>
                    </div>
                </div>","0","main_experiment_trial","8","the_performance_causal","causal_sequence","","","",""
"","","","","","html-keyboard-response","117","482651","0.0-117.0","22574F14C36748D5AF5E4C8D80EC1784","019cefab-f236-7b56-80db-a9785844f09e","019cef87-c56d-7b55-9135-c5814367ec25","","null","
                <div class=""stimulus-container"">
                    <img src=""images/causal_sequence/the_performance_causal/the_performance_causal_9.png"" class=""exp-image"">
                    <div class=""question-area""></div> 
                </div>","null","","","","","","","",""
"","","","","","html-button-response","118","483471","0.0-118.0","22574F14C36748D5AF5E4C8D80EC1784","019cefab-f236-7b56-80db-a9785844f09e","019cef87-c56d-7b55-9135-c5814367ec25","","819","
                <div class=""stimulus-container"">
                    <img src=""images/causal_sequence/the_performance_causal/the_performance_causal_9.png"" class=""exp-image"">
                    <div class=""question-area"">
                        <p style=""font-size: 20px; font-weight: bold; margin: 0;"">Is there a person in this image?</p>
                    </div>
                </div>","0","main_experiment_trial","9","the_performance_causal","causal_sequence","","","",""
"","","","","","html-keyboard-response","119","488481","0.0-119.0","22574F14C36748D5AF5E4C8D80EC1784","019cefab-f236-7b56-80db-a9785844f09e","019cef87-c56d-7b55-9135-c5814367ec25","","null","
                <div class=""stimulus-container"">
                    <img src=""images/causal_sequence/the_performance_causal/the_performance_causal_ten.png"" class=""exp-image"">
                    <div class=""question-area""></div> 
                </div>","null","","","","","","","",""
"","","","","","html-button-response","120","489504","0.0-120.0","22574F14C36748D5AF5E4C8D80EC1784","019cefab-f236-7b56-80db-a9785844f09e","019cef87-c56d-7b55-9135-c5814367ec25","","1022","
                <div class=""stimulus-container"">
                    <img src=""images/causal_sequence/the_performance_causal/the_performance_causal_ten.png"" class=""exp-image"">
                    <div class=""question-area"">
                        <p style=""font-size: 20px; font-weight: bold; margin: 0;"">Is there a person in this image?</p>
                    </div>
                </div>","0","main_experiment_trial","ten","the_performance_causal","causal_sequence","","","",""
"","","","","","html-keyboard-response","121","490512","0.0-121.0","22574F14C36748D5AF5E4C8D80EC1784","019cefab-f236-7b56-80db-a9785844f09e","019cef87-c56d-7b55-9135-c5814367ec25","","null","<div style=""background-color: white; width: 100vw; height: 100vh;""></div>","null","","","","","","","",""
"","","","","","html-keyboard-response","122","495517","0.0-122.0","22574F14C36748D5AF5E4C8D80EC1784","019cefab-f236-7b56-80db-a9785844f09e","019cef87-c56d-7b55-9135-c5814367ec25","","null","
                <div class=""stimulus-container"">
                    <img src=""images/schematic_sequence/supermarket_scheme/supermarket_scheme_1.png"" class=""exp-image"">
                    <div class=""question-area""></div> 
                </div>","null","","","","","","","",""
"","","","","","html-button-response","123","496007","0.0-123.0","22574F14C36748D5AF5E4C8D80EC1784","019cefab-f236-7b56-80db-a9785844f09e","019cef87-c56d-7b55-9135-c5814367ec25","","488","
                <div class=""stimulus-container"">
                    <img src=""images/schematic_sequence/supermarket_scheme/supermarket_scheme_1.png"" class=""exp-image"">
                    <div class=""question-area"">
                        <p style=""font-size: 20px; font-weight: bold; margin: 0;"">Is there a person in this image?</p>
                    </div>
                </div>","1","main_experiment_trial","1","supermarket_scheme","schematic_sequence","","","",""
"","","","","","html-keyboard-response","124","501016","0.0-124.0","22574F14C36748D5AF5E4C8D80EC1784","019cefab-f236-7b56-80db-a9785844f09e","019cef87-c56d-7b55-9135-c5814367ec25","","null","
                <div class=""stimulus-container"">
                    <img src=""images/schematic_sequence/supermarket_scheme/supermarket_scheme_2.png"" class=""exp-image"">
                    <div class=""question-area""></div> 
                </div>","null","","","","","","","",""
"","","","","","html-button-response","125","501428","0.0-125.0","22574F14C36748D5AF5E4C8D80EC1784","019cefab-f236-7b56-80db-a9785844f09e","019cef87-c56d-7b55-9135-c5814367ec25","","411","
                <div class=""stimulus-container"">
                    <img src=""images/schematic_sequence/supermarket_scheme/supermarket_scheme_2.png"" class=""exp-image"">
                    <div class=""question-area"">
                        <p style=""font-size: 20px; font-weight: bold; margin: 0;"">Is there a person in this image?</p>
                    </div>
                </div>","1","main_experiment_trial","2","supermarket_scheme","schematic_sequence","","","",""
"","","","","","html-keyboard-response","126","506438","0.0-126.0","22574F14C36748D5AF5E4C8D80EC1784","019cefab-f236-7b56-80db-a9785844f09e","019cef87-c56d-7b55-9135-c5814367ec25","","null","
                <div class=""stimulus-container"">
                    <img src=""images/schematic_sequence/supermarket_scheme/supermarket_scheme_3.png"" class=""exp-image"">
                    <div class=""question-area""></div> 
                </div>","null","","","","","","","",""
"","","","","","html-button-response","127","506971","0.0-127.0","22574F14C36748D5AF5E4C8D80EC1784","019cefab-f236-7b56-80db-a9785844f09e","019cef87-c56d-7b55-9135-c5814367ec25","","531","
                <div class=""stimulus-container"">
                    <img src=""images/schematic_sequence/supermarket_scheme/supermarket_scheme_3.png"" class=""exp-image"">
                    <div class=""question-area"">
                        <p style=""font-size: 20px; font-weight: bold; margin: 0;"">Is there a person in this image?</p>
                    </div>
                </div>","1","main_experiment_trial","3","supermarket_scheme","schematic_sequence","","","",""
"","","","","","html-keyboard-response","128","511975","0.0-128.0","22574F14C36748D5AF5E4C8D80EC1784","019cefab-f236-7b56-80db-a9785844f09e","019cef87-c56d-7b55-9135-c5814367ec25","","null","
                <div class=""stimulus-container"">
                    <img src=""images/schematic_sequence/supermarket_scheme/supermarket_scheme_4.png"" class=""exp-image"">
                    <div class=""question-area""></div> 
                </div>","null","","","","","","","",""
"","","","","","html-button-response","129","512213","0.0-129.0","22574F14C36748D5AF5E4C8D80EC1784","019cefab-f236-7b56-80db-a9785844f09e","019cef87-c56d-7b55-9135-c5814367ec25","","237","
                <div class=""stimulus-container"">
                    <img src=""images/schematic_sequence/supermarket_scheme/supermarket_scheme_4.png"" class=""exp-image"">
                    <div class=""question-area"">
                        <p style=""font-size: 20px; font-weight: bold; margin: 0;"">Is there a person in this image?</p>
                    </div>
                </div>","0","main_experiment_trial","4","supermarket_scheme","schematic_sequence","","","",""
"","","","","","html-keyboard-response","130","517226","0.0-130.0","22574F14C36748D5AF5E4C8D80EC1784","019cefab-f236-7b56-80db-a9785844f09e","019cef87-c56d-7b55-9135-c5814367ec25","","null","
                <div class=""stimulus-container"">
                    <img src=""images/schematic_sequence/supermarket_scheme/supermarket_scheme_5.png"" class=""exp-image"">
                    <div class=""question-area""></div> 
                </div>","null","","","","","","","",""
"","","","","","html-button-response","131","517680","0.0-131.0","22574F14C36748D5AF5E4C8D80EC1784","019cefab-f236-7b56-80db-a9785844f09e","019cef87-c56d-7b55-9135-c5814367ec25","","453","
                <div class=""stimulus-container"">
                    <img src=""images/schematic_sequence/supermarket_scheme/supermarket_scheme_5.png"" class=""exp-image"">
                    <div class=""question-area"">
                        <p style=""font-size: 20px; font-weight: bold; margin: 0;"">Is there a person in this image?</p>
                    </div>
                </div>","1","main_experiment_trial","5","supermarket_scheme","schematic_sequence","","","",""
"","","","","","html-keyboard-response","132","522692","0.0-132.0","22574F14C36748D5AF5E4C8D80EC1784","019cefab-f236-7b56-80db-a9785844f09e","019cef87-c56d-7b55-9135-c5814367ec25","","null","
                <div class=""stimulus-container"">
                    <img src=""images/schematic_sequence/supermarket_scheme/supermarket_scheme_6.png"" class=""exp-image"">
                    <div class=""question-area""></div> 
                </div>","null","","","","","","","",""
"","","","","","html-button-response","133","523143","0.0-133.0","22574F14C36748D5AF5E4C8D80EC1784","019cefab-f236-7b56-80db-a9785844f09e","019cef87-c56d-7b55-9135-c5814367ec25","","449","
                <div class=""stimulus-container"">
                    <img src=""images/schematic_sequence/supermarket_scheme/supermarket_scheme_6.png"" class=""exp-image"">
                    <div class=""question-area"">
                        <p style=""font-size: 20px; font-weight: bold; margin: 0;"">Is there a person in this image?</p>
                    </div>
                </div>","0","main_experiment_trial","6","supermarket_scheme","schematic_sequence","","","",""
"","","","","","html-keyboard-response","134","528155","0.0-134.0","22574F14C36748D5AF5E4C8D80EC1784","019cefab-f236-7b56-80db-a9785844f09e","019cef87-c56d-7b55-9135-c5814367ec25","","null","
                <div class=""stimulus-container"">
                    <img src=""images/schematic_sequence/supermarket_scheme/supermarket_scheme_7.png"" class=""exp-image"">
                    <div class=""question-area""></div> 
                </div>","null","","","","","","","",""
"","","","","","html-button-response","135","528555","0.0-135.0","22574F14C36748D5AF5E4C8D80EC1784","019cefab-f236-7b56-80db-a9785844f09e","019cef87-c56d-7b55-9135-c5814367ec25","","398","
                <div class=""stimulus-container"">
                    <img src=""images/schematic_sequence/supermarket_scheme/supermarket_scheme_7.png"" class=""exp-image"">
                    <div class=""question-area"">
                        <p style=""font-size: 20px; font-weight: bold; margin: 0;"">Is there a person in this image?</p>
                    </div>
                </div>","0","main_experiment_trial","7","supermarket_scheme","schematic_sequence","","","",""
"","","","","","html-keyboard-response","136","533560","0.0-136.0","22574F14C36748D5AF5E4C8D80EC1784","019cefab-f236-7b56-80db-a9785844f09e","019cef87-c56d-7b55-9135-c5814367ec25","","null","
                <div class=""stimulus-container"">
                    <img src=""images/schematic_sequence/supermarket_scheme/supermarket_scheme_8.png"" class=""exp-image"">
                    <div class=""question-area""></div> 
                </div>","null","","","","","","","",""
"","","","","","html-button-response","137","534220","0.0-137.0","22574F14C36748D5AF5E4C8D80EC1784","019cefab-f236-7b56-80db-a9785844f09e","019cef87-c56d-7b55-9135-c5814367ec25","","659","
                <div class=""stimulus-container"">
                    <img src=""images/schematic_sequence/supermarket_scheme/supermarket_scheme_8.png"" class=""exp-image"">
                    <div class=""question-area"">
                        <p style=""font-size: 20px; font-weight: bold; margin: 0;"">Is there a person in this image?</p>
                    </div>
                </div>","0","main_experiment_trial","8","supermarket_scheme","schematic_sequence","","","",""
"","","","","","html-keyboard-response","138","539225","0.0-138.0","22574F14C36748D5AF5E4C8D80EC1784","019cefab-f236-7b56-80db-a9785844f09e","019cef87-c56d-7b55-9135-c5814367ec25","","null","
                <div class=""stimulus-container"">
                    <img src=""images/schematic_sequence/supermarket_scheme/supermarket_scheme_9.png"" class=""exp-image"">
                    <div class=""question-area""></div> 
                </div>","null","","","","","","","",""
"","","","","","html-button-response","139","540001","0.0-139.0","22574F14C36748D5AF5E4C8D80EC1784","019cefab-f236-7b56-80db-a9785844f09e","019cef87-c56d-7b55-9135-c5814367ec25","","774","
                <div class=""stimulus-container"">
                    <img src=""images/schematic_sequence/supermarket_scheme/supermarket_scheme_9.png"" class=""exp-image"">
                    <div class=""question-area"">
                        <p style=""font-size: 20px; font-weight: bold; margin: 0;"">Is there a person in this image?</p>
                    </div>
                </div>","0","main_experiment_trial","9","supermarket_scheme","schematic_sequence","","","",""
"","","","","","html-keyboard-response","140","545007","0.0-140.0","22574F14C36748D5AF5E4C8D80EC1784","019cefab-f236-7b56-80db-a9785844f09e","019cef87-c56d-7b55-9135-c5814367ec25","","null","
                <div class=""stimulus-container"">
                    <img src=""images/schematic_sequence/supermarket_scheme/supermarket_scheme_ten.png"" class=""exp-image"">
                    <div class=""question-area""></div> 
                </div>","null","","","","","","","",""
"","","","","","html-button-response","141","545450","0.0-141.0","22574F14C36748D5AF5E4C8D80EC1784","019cefab-f236-7b56-80db-a9785844f09e","019cef87-c56d-7b55-9135-c5814367ec25","","441","
                <div class=""stimulus-container"">
                    <img src=""images/schematic_sequence/supermarket_scheme/supermarket_scheme_ten.png"" class=""exp-image"">
                    <div class=""question-area"">
                        <p style=""font-size: 20px; font-weight: bold; margin: 0;"">Is there a person in this image?</p>
                    </div>
                </div>","1","main_experiment_trial","ten","supermarket_scheme","schematic_sequence","","","",""
"","","","","","html-keyboard-response","142","546458","0.0-142.0","22574F14C36748D5AF5E4C8D80EC1784","019cefab-f236-7b56-80db-a9785844f09e","019cef87-c56d-7b55-9135-c5814367ec25","","null","<div style=""background-color: white; width: 100vw; height: 100vh;""></div>","null","","","","","","","",""
"","","","","","html-keyboard-response","143","551463","0.0-143.0","22574F14C36748D5AF5E4C8D80EC1784","019cefab-f236-7b56-80db-a9785844f09e","019cef87-c56d-7b55-9135-c5814367ec25","","null","
                <div class=""stimulus-container"">
                    <img src=""images/causal_sequence/saving_a_cat_causal/saving_a_cat_causal_1.png"" class=""exp-image"">
                    <div class=""question-area""></div> 
                </div>","null","","","","","","","",""
"","","","","","html-button-response","144","551859","0.0-144.0","22574F14C36748D5AF5E4C8D80EC1784","019cefab-f236-7b56-80db-a9785844f09e","019cef87-c56d-7b55-9135-c5814367ec25","","394","
                <div class=""stimulus-container"">
                    <img src=""images/causal_sequence/saving_a_cat_causal/saving_a_cat_causal_1.png"" class=""exp-image"">
                    <div class=""question-area"">
                        <p style=""font-size: 20px; font-weight: bold; margin: 0;"">Is there a person in this image?</p>
                    </div>
                </div>","0","main_experiment_trial","1","saving_a_cat_causal","causal_sequence","","","",""
"","","","","","html-keyboard-response","145","556868","0.0-145.0","22574F14C36748D5AF5E4C8D80EC1784","019cefab-f236-7b56-80db-a9785844f09e","019cef87-c56d-7b55-9135-c5814367ec25","","null","
                <div class=""stimulus-container"">
                    <img src=""images/causal_sequence/saving_a_cat_causal/saving_a_cat_causal_2.png"" class=""exp-image"">
                    <div class=""question-area""></div> 
                </div>","null","","","","","","","",""
"","","","","","html-button-response","146","557694","0.0-146.0","22574F14C36748D5AF5E4C8D80EC1784","019cefab-f236-7b56-80db-a9785844f09e","019cef87-c56d-7b55-9135-c5814367ec25","","824","
                <div class=""stimulus-container"">
                    <img src=""images/causal_sequence/saving_a_cat_causal/saving_a_cat_causal_2.png"" class=""exp-image"">
                    <div class=""question-area"">
                        <p style=""font-size: 20px; font-weight: bold; margin: 0;"">Is there a person in this image?</p>
                    </div>
                </div>","1","main_experiment_trial","2","saving_a_cat_causal","causal_sequence","","","",""
"","","","","","html-keyboard-response","147","562704","0.0-147.0","22574F14C36748D5AF5E4C8D80EC1784","019cefab-f236-7b56-80db-a9785844f09e","019cef87-c56d-7b55-9135-c5814367ec25","","null","
                <div class=""stimulus-container"">
                    <img src=""images/causal_sequence/saving_a_cat_causal/saving_a_cat_causal_3.png"" class=""exp-image"">
                    <div class=""question-area""></div> 
                </div>","null","","","","","","","",""
"","","","","","html-button-response","148","564050","0.0-148.0","22574F14C36748D5AF5E4C8D80EC1784","019cefab-f236-7b56-80db-a9785844f09e","019cef87-c56d-7b55-9135-c5814367ec25","","1344","
                <div class=""stimulus-container"">
                    <img src=""images/causal_sequence/saving_a_cat_causal/saving_a_cat_causal_3.png"" class=""exp-image"">
                    <div class=""question-area"">
                        <p style=""font-size: 20px; font-weight: bold; margin: 0;"">Is there a person in this image?</p>
                    </div>
                </div>","1","main_experiment_trial","3","saving_a_cat_causal","causal_sequence","","","",""
"","","","","","html-keyboard-response","149","569056","0.0-149.0","22574F14C36748D5AF5E4C8D80EC1784","019cefab-f236-7b56-80db-a9785844f09e","019cef87-c56d-7b55-9135-c5814367ec25","","null","
                <div class=""stimulus-container"">
                    <img src=""images/causal_sequence/saving_a_cat_causal/saving_a_cat_causal_4.png"" class=""exp-image"">
                    <div class=""question-area""></div> 
                </div>","null","","","","","","","",""
"","","","","","html-button-response","150","569582","0.0-150.0","22574F14C36748D5AF5E4C8D80EC1784","019cefab-f236-7b56-80db-a9785844f09e","019cef87-c56d-7b55-9135-c5814367ec25","","524","
                <div class=""stimulus-container"">
                    <img src=""images/causal_sequence/saving_a_cat_causal/saving_a_cat_causal_4.png"" class=""exp-image"">
                    <div class=""question-area"">
                        <p style=""font-size: 20px; font-weight: bold; margin: 0;"">Is there a person in this image?</p>
                    </div>
                </div>","0","main_experiment_trial","4","saving_a_cat_causal","causal_sequence","","","",""
"","","","","","html-keyboard-response","151","574593","0.0-151.0","22574F14C36748D5AF5E4C8D80EC1784","019cefab-f236-7b56-80db-a9785844f09e","019cef87-c56d-7b55-9135-c5814367ec25","","null","
                <div class=""stimulus-container"">
                    <img src=""images/causal_sequence/saving_a_cat_causal/saving_a_cat_causal_5.png"" class=""exp-image"">
                    <div class=""question-area""></div> 
                </div>","null","","","","","","","",""
"","","","","","html-button-response","152","574940","0.0-152.0","22574F14C36748D5AF5E4C8D80EC1784","019cefab-f236-7b56-80db-a9785844f09e","019cef87-c56d-7b55-9135-c5814367ec25","","346","
                <div class=""stimulus-container"">
                    <img src=""images/causal_sequence/saving_a_cat_causal/saving_a_cat_causal_5.png"" class=""exp-image"">
                    <div class=""question-area"">
                        <p style=""font-size: 20px; font-weight: bold; margin: 0;"">Is there a person in this image?</p>
                    </div>
                </div>","0","main_experiment_trial","5","saving_a_cat_causal","causal_sequence","","","",""
"","","","","","html-keyboard-response","153","579944","0.0-153.0","22574F14C36748D5AF5E4C8D80EC1784","019cefab-f236-7b56-80db-a9785844f09e","019cef87-c56d-7b55-9135-c5814367ec25","","null","
                <div class=""stimulus-container"">
                    <img src=""images/causal_sequence/saving_a_cat_causal/saving_a_cat_causal_6.png"" class=""exp-image"">
                    <div class=""question-area""></div> 
                </div>","null","","","","","","","",""
"","","","","","html-button-response","154","580397","0.0-154.0","22574F14C36748D5AF5E4C8D80EC1784","019cefab-f236-7b56-80db-a9785844f09e","019cef87-c56d-7b55-9135-c5814367ec25","","451","
                <div class=""stimulus-container"">
                    <img src=""images/causal_sequence/saving_a_cat_causal/saving_a_cat_causal_6.png"" class=""exp-image"">
                    <div class=""question-area"">
                        <p style=""font-size: 20px; font-weight: bold; margin: 0;"">Is there a person in this image?</p>
                    </div>
                </div>","0","main_experiment_trial","6","saving_a_cat_causal","causal_sequence","","","",""
"","","","","","html-keyboard-response","155","585404","0.0-155.0","22574F14C36748D5AF5E4C8D80EC1784","019cefab-f236-7b56-80db-a9785844f09e","019cef87-c56d-7b55-9135-c5814367ec25","","null","
                <div class=""stimulus-container"">
                    <img src=""images/causal_sequence/saving_a_cat_causal/saving_a_cat_causal_7.png"" class=""exp-image"">
                    <div class=""question-area""></div> 
                </div>","null","","","","","","","",""
"","","","","","html-button-response","156","585772","0.0-156.0","22574F14C36748D5AF5E4C8D80EC1784","019cefab-f236-7b56-80db-a9785844f09e","019cef87-c56d-7b55-9135-c5814367ec25","","366","
                <div class=""stimulus-container"">
                    <img src=""images/causal_sequence/saving_a_cat_causal/saving_a_cat_causal_7.png"" class=""exp-image"">
                    <div class=""question-area"">
                        <p style=""font-size: 20px; font-weight: bold; margin: 0;"">Is there a person in this image?</p>
                    </div>
                </div>","0","main_experiment_trial","7","saving_a_cat_causal","causal_sequence","","","",""
"","","","","","html-keyboard-response","157","590781","0.0-157.0","22574F14C36748D5AF5E4C8D80EC1784","019cefab-f236-7b56-80db-a9785844f09e","019cef87-c56d-7b55-9135-c5814367ec25","","null","
                <div class=""stimulus-container"">
                    <img src=""images/causal_sequence/saving_a_cat_causal/saving_a_cat_causal_8.png"" class=""exp-image"">
                    <div class=""question-area""></div> 
                </div>","null","","","","","","","",""
"","","","","","html-button-response","158","591337","0.0-158.0","22574F14C36748D5AF5E4C8D80EC1784","019cefab-f236-7b56-80db-a9785844f09e","019cef87-c56d-7b55-9135-c5814367ec25","","555","
                <div class=""stimulus-container"">
                    <img src=""images/causal_sequence/saving_a_cat_causal/saving_a_cat_causal_8.png"" class=""exp-image"">
                    <div class=""question-area"">
                        <p style=""font-size: 20px; font-weight: bold; margin: 0;"">Is there a person in this image?</p>
                    </div>
                </div>","0","main_experiment_trial","8","saving_a_cat_causal","causal_sequence","","","",""
"","","","","","html-keyboard-response","159","596349","0.0-159.0","22574F14C36748D5AF5E4C8D80EC1784","019cefab-f236-7b56-80db-a9785844f09e","019cef87-c56d-7b55-9135-c5814367ec25","","null","
                <div class=""stimulus-container"">
                    <img src=""images/causal_sequence/saving_a_cat_causal/saving_a_cat_causal_9.png"" class=""exp-image"">
                    <div class=""question-area""></div> 
                </div>","null","","","","","","","",""
"","","","","","html-button-response","160","596822","0.0-160.0","22574F14C36748D5AF5E4C8D80EC1784","019cefab-f236-7b56-80db-a9785844f09e","019cef87-c56d-7b55-9135-c5814367ec25","","472","
                <div class=""stimulus-container"">
                    <img src=""images/causal_sequence/saving_a_cat_causal/saving_a_cat_causal_9.png"" class=""exp-image"">
                    <div class=""question-area"">
                        <p style=""font-size: 20px; font-weight: bold; margin: 0;"">Is there a person in this image?</p>
                    </div>
                </div>","0","main_experiment_trial","9","saving_a_cat_causal","causal_sequence","","","",""
"","","","","","html-keyboard-response","161","601829","0.0-161.0","22574F14C36748D5AF5E4C8D80EC1784","019cefab-f236-7b56-80db-a9785844f09e","019cef87-c56d-7b55-9135-c5814367ec25","","null","
                <div class=""stimulus-container"">
                    <img src=""images/causal_sequence/saving_a_cat_causal/saving_a_cat_causal_ten.png"" class=""exp-image"">
                    <div class=""question-area""></div> 
                </div>","null","","","","","","","",""
"","","","","","html-button-response","162","602332","0.0-162.0","22574F14C36748D5AF5E4C8D80EC1784","019cefab-f236-7b56-80db-a9785844f09e","019cef87-c56d-7b55-9135-c5814367ec25","","502","
                <div class=""stimulus-container"">
                    <img src=""images/causal_sequence/saving_a_cat_causal/saving_a_cat_causal_ten.png"" class=""exp-image"">
                    <div class=""question-area"">
                        <p style=""font-size: 20px; font-weight: bold; margin: 0;"">Is there a person in this image?</p>
                    </div>
                </div>","0","main_experiment_trial","ten","saving_a_cat_causal","causal_sequence","","","",""
"","","","","","html-keyboard-response","163","603338","0.0-163.0","22574F14C36748D5AF5E4C8D80EC1784","019cefab-f236-7b56-80db-a9785844f09e","019cef87-c56d-7b55-9135-c5814367ec25","","null","<div style=""background-color: white; width: 100vw; height: 100vh;""></div>","null","","","","","","","",""
"","","","","","html-keyboard-response","164","608349","0.0-164.0","22574F14C36748D5AF5E4C8D80EC1784","019cefab-f236-7b56-80db-a9785844f09e","019cef87-c56d-7b55-9135-c5814367ec25","","null","
                <div class=""stimulus-container"">
                    <img src=""images/schematic_sequence/dinner_party_scheme/dinner_party_scheme_1.png"" class=""exp-image"">
                    <div class=""question-area""></div> 
                </div>","null","","","","","","","",""
"","","","","","html-button-response","165","608917","0.0-165.0","22574F14C36748D5AF5E4C8D80EC1784","019cefab-f236-7b56-80db-a9785844f09e","019cef87-c56d-7b55-9135-c5814367ec25","","566","
                <div class=""stimulus-container"">
                    <img src=""images/schematic_sequence/dinner_party_scheme/dinner_party_scheme_1.png"" class=""exp-image"">
                    <div class=""question-area"">
                        <p style=""font-size: 20px; font-weight: bold; margin: 0;"">Is there a person in this image?</p>
                    </div>
                </div>","0","main_experiment_trial","1","dinner_party_scheme","schematic_sequence","","","",""
"","","","","","html-keyboard-response","166","613926","0.0-166.0","22574F14C36748D5AF5E4C8D80EC1784","019cefab-f236-7b56-80db-a9785844f09e","019cef87-c56d-7b55-9135-c5814367ec25","","null","
                <div class=""stimulus-container"">
                    <img src=""images/schematic_sequence/dinner_party_scheme/dinner_party_scheme_2.png"" class=""exp-image"">
                    <div class=""question-area""></div> 
                </div>","null","","","","","","","",""
"","","","","","html-button-response","167","614504","0.0-167.0","22574F14C36748D5AF5E4C8D80EC1784","019cefab-f236-7b56-80db-a9785844f09e","019cef87-c56d-7b55-9135-c5814367ec25","","576","
                <div class=""stimulus-container"">
                    <img src=""images/schematic_sequence/dinner_party_scheme/dinner_party_scheme_2.png"" class=""exp-image"">
                    <div class=""question-area"">
                        <p style=""font-size: 20px; font-weight: bold; margin: 0;"">Is there a person in this image?</p>
                    </div>
                </div>","0","main_experiment_trial","2","dinner_party_scheme","schematic_sequence","","","",""
"","","","","","html-keyboard-response","168","619514","0.0-168.0","22574F14C36748D5AF5E4C8D80EC1784","019cefab-f236-7b56-80db-a9785844f09e","019cef87-c56d-7b55-9135-c5814367ec25","","null","
                <div class=""stimulus-container"">
                    <img src=""images/schematic_sequence/dinner_party_scheme/dinner_party_scheme_3.png"" class=""exp-image"">
                    <div class=""question-area""></div> 
                </div>","null","","","","","","","",""
"","","","","","html-button-response","169","620804","0.0-169.0","22574F14C36748D5AF5E4C8D80EC1784","019cefab-f236-7b56-80db-a9785844f09e","019cef87-c56d-7b55-9135-c5814367ec25","","1289","
                <div class=""stimulus-container"">
                    <img src=""images/schematic_sequence/dinner_party_scheme/dinner_party_scheme_3.png"" class=""exp-image"">
                    <div class=""question-area"">
                        <p style=""font-size: 20px; font-weight: bold; margin: 0;"">Is there a person in this image?</p>
                    </div>
                </div>","0","main_experiment_trial","3","dinner_party_scheme","schematic_sequence","","","",""
"","","","","","html-keyboard-response","170","625809","0.0-170.0","22574F14C36748D5AF5E4C8D80EC1784","019cefab-f236-7b56-80db-a9785844f09e","019cef87-c56d-7b55-9135-c5814367ec25","","null","
                <div class=""stimulus-container"">
                    <img src=""images/schematic_sequence/dinner_party_scheme/dinner_party_scheme_4.png"" class=""exp-image"">
                    <div class=""question-area""></div> 
                </div>","null","","","","","","","",""
"","","","","","html-button-response","171","626318","0.0-171.0","22574F14C36748D5AF5E4C8D80EC1784","019cefab-f236-7b56-80db-a9785844f09e","019cef87-c56d-7b55-9135-c5814367ec25","","507","
                <div class=""stimulus-container"">
                    <img src=""images/schematic_sequence/dinner_party_scheme/dinner_party_scheme_4.png"" class=""exp-image"">
                    <div class=""question-area"">
                        <p style=""font-size: 20px; font-weight: bold; margin: 0;"">Is there a person in this image?</p>
                    </div>
                </div>","0","main_experiment_trial","4","dinner_party_scheme","schematic_sequence","","","",""
"","","","","","html-keyboard-response","172","631321","0.0-172.0","22574F14C36748D5AF5E4C8D80EC1784","019cefab-f236-7b56-80db-a9785844f09e","019cef87-c56d-7b55-9135-c5814367ec25","","null","
                <div class=""stimulus-container"">
                    <img src=""images/schematic_sequence/dinner_party_scheme/dinner_party_scheme_5.png"" class=""exp-image"">
                    <div class=""question-area""></div> 
                </div>","null","","","","","","","",""
"","","","","","html-button-response","173","631916","0.0-173.0","22574F14C36748D5AF5E4C8D80EC1784","019cefab-f236-7b56-80db-a9785844f09e","019cef87-c56d-7b55-9135-c5814367ec25","","594","
                <div class=""stimulus-container"">
                    <img src=""images/schematic_sequence/dinner_party_scheme/dinner_party_scheme_5.png"" class=""exp-image"">
                    <div class=""question-area"">
                        <p style=""font-size: 20px; font-weight: bold; margin: 0;"">Is there a person in this image?</p>
                    </div>
                </div>","0","main_experiment_trial","5","dinner_party_scheme","schematic_sequence","","","",""
"","","","","","html-keyboard-response","174","636923","0.0-174.0","22574F14C36748D5AF5E4C8D80EC1784","019cefab-f236-7b56-80db-a9785844f09e","019cef87-c56d-7b55-9135-c5814367ec25","","null","
                <div class=""stimulus-container"">
                    <img src=""images/schematic_sequence/dinner_party_scheme/dinner_party_scheme_6.png"" class=""exp-image"">
                    <div class=""question-area""></div> 
                </div>","null","","","","","","","",""
"","","","","","html-button-response","175","637693","0.0-175.0","22574F14C36748D5AF5E4C8D80EC1784","019cefab-f236-7b56-80db-a9785844f09e","019cef87-c56d-7b55-9135-c5814367ec25","","769","
                <div class=""stimulus-container"">
                    <img src=""images/schematic_sequence/dinner_party_scheme/dinner_party_scheme_6.png"" class=""exp-image"">
                    <div class=""question-area"">
                        <p style=""font-size: 20px; font-weight: bold; margin: 0;"">Is there a person in this image?</p>
                    </div>
                </div>","0","main_experiment_trial","6","dinner_party_scheme","schematic_sequence","","","",""
"","","","","","html-keyboard-response","176","642698","0.0-176.0","22574F14C36748D5AF5E4C8D80EC1784","019cefab-f236-7b56-80db-a9785844f09e","019cef87-c56d-7b55-9135-c5814367ec25","","null","
                <div class=""stimulus-container"">
                    <img src=""images/schematic_sequence/dinner_party_scheme/dinner_party_scheme_7.png"" class=""exp-image"">
                    <div class=""question-area""></div> 
                </div>","null","","","","","","","",""
"","","","","","html-button-response","177","643768","0.0-177.0","22574F14C36748D5AF5E4C8D80EC1784","019cefab-f236-7b56-80db-a9785844f09e","019cef87-c56d-7b55-9135-c5814367ec25","","1068","
                <div class=""stimulus-container"">
                    <img src=""images/schematic_sequence/dinner_party_scheme/dinner_party_scheme_7.png"" class=""exp-image"">
                    <div class=""question-area"">
                        <p style=""font-size: 20px; font-weight: bold; margin: 0;"">Is there a person in this image?</p>
                    </div>
                </div>","0","main_experiment_trial","7","dinner_party_scheme","schematic_sequence","","","",""
"","","","","","html-keyboard-response","178","649073","0.0-178.0","22574F14C36748D5AF5E4C8D80EC1784","019cefab-f236-7b56-80db-a9785844f09e","019cef87-c56d-7b55-9135-c5814367ec25","","null","
                <div class=""stimulus-container"">
                    <img src=""images/schematic_sequence/dinner_party_scheme/dinner_party_scheme_8.png"" class=""exp-image"">
                    <div class=""question-area""></div> 
                </div>","null","","","","","","","",""
"","","","","","html-button-response","179","650259","0.0-179.0","22574F14C36748D5AF5E4C8D80EC1784","019cefab-f236-7b56-80db-a9785844f09e","019cef87-c56d-7b55-9135-c5814367ec25","","1186","
                <div class=""stimulus-container"">
                    <img src=""images/schematic_sequence/dinner_party_scheme/dinner_party_scheme_8.png"" class=""exp-image"">
                    <div class=""question-area"">
                        <p style=""font-size: 20px; font-weight: bold; margin: 0;"">Is there a person in this image?</p>
                    </div>
                </div>","0","main_experiment_trial","8","dinner_party_scheme","schematic_sequence","","","",""
"","","","","","html-keyboard-response","180","655965","0.0-180.0","22574F14C36748D5AF5E4C8D80EC1784","019cefab-f236-7b56-80db-a9785844f09e","019cef87-c56d-7b55-9135-c5814367ec25","","null","
                <div class=""stimulus-container"">
                    <img src=""images/schematic_sequence/dinner_party_scheme/dinner_party_scheme_9.png"" class=""exp-image"">
                    <div class=""question-area""></div> 
                </div>","null","","","","","","","",""
"","","","","","html-button-response","181","658522","0.0-181.0","22574F14C36748D5AF5E4C8D80EC1784","019cefab-f236-7b56-80db-a9785844f09e","019cef87-c56d-7b55-9135-c5814367ec25","","2555","
                <div class=""stimulus-container"">
                    <img src=""images/schematic_sequence/dinner_party_scheme/dinner_party_scheme_9.png"" class=""exp-image"">
                    <div class=""question-area"">
                        <p style=""font-size: 20px; font-weight: bold; margin: 0;"">Is there a person in this image?</p>
                    </div>
                </div>","0","main_experiment_trial","9","dinner_party_scheme","schematic_sequence","","","",""
"","","","","","html-keyboard-response","182","663558","0.0-182.0","22574F14C36748D5AF5E4C8D80EC1784","019cefab-f236-7b56-80db-a9785844f09e","019cef87-c56d-7b55-9135-c5814367ec25","","null","
                <div class=""stimulus-container"">
                    <img src=""images/schematic_sequence/dinner_party_scheme/dinner_party_scheme_ten.png"" class=""exp-image"">
                    <div class=""question-area""></div> 
                </div>","null","","","","","","","",""
"","","","","","html-button-response","183","665267","0.0-183.0","22574F14C36748D5AF5E4C8D80EC1784","019cefab-f236-7b56-80db-a9785844f09e","019cef87-c56d-7b55-9135-c5814367ec25","","1707","
                <div class=""stimulus-container"">
                    <img src=""images/schematic_sequence/dinner_party_scheme/dinner_party_scheme_ten.png"" class=""exp-image"">
                    <div class=""question-area"">
                        <p style=""font-size: 20px; font-weight: bold; margin: 0;"">Is there a person in this image?</p>
                    </div>
                </div>","0","main_experiment_trial","ten","dinner_party_scheme","schematic_sequence","","","",""
