"success","timeout","failed_images","failed_audio","failed_video","trial_type","trial_index","time_elapsed","internal_node_id","rt","view_history","stimulus","response","task","folder","image_index","valuable_image_index","reward_type","distance_from_x","v_index","n_index","sequence_type","valuable_folder","neutral_folder","chosen_valuable"
"true","false","[]","[]","[]","preload","0","4766","0.0-0.0","","","","","","","","","","","","","","","",""
"true","","","","","fullscreen","1","156700","0.0-1.0","150934","","","","","","","","","","","","","","",""
"","","","","","instructions","2","283036","0.0-2.0","126338","[{""page_index"":0,""viewing_time"":126337}]","","","","","","","","","","","","","",""
"","","","","","html-keyboard-response","3","286040","0.0-3.0","null","","<div style=""background-color: white; width: 100vw; height: 100vh;""></div>","null","","","","","","","","","","","",""
"","","","","","html-keyboard-response","4","290045","0.0-4.0","null","","<div class=""stimulus-container""><img src=""images/schematic_sequence/restaurant_scheme/restaurant_scheme_1.png"" class=""exp-image""></div>","null","","","","","","","","","","","",""
"","","","","","html-button-response","5","292615","0.0-5.0","2568","","<div class=""stimulus-container""><img src=""images/schematic_sequence/restaurant_scheme/restaurant_scheme_1.png"" class=""exp-image""><div class=""question-area""><b>Is there a person?</b></div></div>","0","person_check","restaurant_scheme","1","","","","","","","","",""
"","","","","","html-keyboard-response","6","296618","0.0-6.0","null","","<div class=""stimulus-container""><img src=""images/schematic_sequence/restaurant_scheme/restaurant_scheme_2.png"" class=""exp-image""></div>","null","","","","","","","","","","","",""
"","","","","","html-button-response","7","297840","0.0-7.0","1219","","<div class=""stimulus-container""><img src=""images/schematic_sequence/restaurant_scheme/restaurant_scheme_2.png"" class=""exp-image""><div class=""question-area""><b>Is there a person?</b></div></div>","1","person_check","restaurant_scheme","2","","","","","","","","",""
"","","","","","html-keyboard-response","8","301844","0.0-8.0","null","","<div class=""stimulus-container""><img src=""images/schematic_sequence/restaurant_scheme/restaurant_scheme_3.png"" class=""exp-image""></div>","null","","","","","","","","","","","",""
"","","","","","html-button-response","9","302958","0.0-9.0","1112","","<div class=""stimulus-container""><img src=""images/schematic_sequence/restaurant_scheme/restaurant_scheme_3.png"" class=""exp-image""><div class=""question-area""><b>Is there a person?</b></div></div>","1","person_check","restaurant_scheme","3","","","","","","","","",""
"","","","","","html-keyboard-response","10","306961","0.0-10.0","null","","<div class=""stimulus-container""><img src=""images/schematic_sequence/restaurant_scheme/restaurant_scheme_4.png"" class=""exp-image""></div>","null","","","","","","","","","","","",""
"","","","","","html-button-response","11","307688","0.0-11.0","725","","<div class=""stimulus-container""><img src=""images/schematic_sequence/restaurant_scheme/restaurant_scheme_4.png"" class=""exp-image""><div class=""question-area""><b>Is there a person?</b></div></div>","0","person_check","restaurant_scheme","4","","","","","","","","",""
"","","","","","html-keyboard-response","12","311691","0.0-12.0","null","","<div class=""stimulus-container""><img src=""images/schematic_sequence/restaurant_scheme/restaurant_scheme_5.png"" class=""exp-image""></div>","null","","","","","","","","","","","",""
"","","","","","html-button-response","13","312139","0.0-13.0","445","","<div class=""stimulus-container""><img src=""images/schematic_sequence/restaurant_scheme/restaurant_scheme_5.png"" class=""exp-image""><div class=""question-area""><b>Is there a person?</b></div></div>","0","person_check","restaurant_scheme","5","","","","","","","","",""
"","","","","","html-keyboard-response","14","316143","0.0-14.0","null","","<div class=""stimulus-container""><img src=""images/schematic_sequence/restaurant_scheme/restaurant_scheme_6.png"" class=""exp-image""></div>","null","","","","","","","","","","","",""
"","","","","","html-button-response","15","317317","0.0-15.0","1171","","<div class=""stimulus-container""><img src=""images/schematic_sequence/restaurant_scheme/restaurant_scheme_6.png"" class=""exp-image""><div class=""question-area""><b>Is there a person?</b></div></div>","1","person_check","restaurant_scheme","6","","","","","","","","",""
"","","","","","html-keyboard-response","16","321320","0.0-16.0","null","","<div class=""stimulus-container""><img src=""images/schematic_sequence/restaurant_scheme/restaurant_scheme_7.png"" class=""exp-image""></div>","null","","","","","","","","","","","",""
"","","","","","html-button-response","17","321907","0.0-17.0","584","","<div class=""stimulus-container""><img src=""images/schematic_sequence/restaurant_scheme/restaurant_scheme_7.png"" class=""exp-image""><div class=""question-area""><b>Is there a person?</b></div></div>","1","person_check","restaurant_scheme","7","","","","","","","","",""
"","","","","","html-keyboard-response","18","325909","0.0-18.0","null","","<div class=""stimulus-container""><img src=""images/schematic_sequence/restaurant_scheme/restaurant_scheme_8.png"" class=""exp-image""></div>","null","","","","","","","","","","","",""
"","","","","","html-button-response","19","328004","0.0-19.0","2094","","<div class=""stimulus-container""><img src=""images/schematic_sequence/restaurant_scheme/restaurant_scheme_8.png"" class=""exp-image""><div class=""question-area""><b>Is there a person?</b></div></div>","0","person_check","restaurant_scheme","8","","","","","","","","",""
"","","","","","html-keyboard-response","20","332006","0.0-20.0","null","","<div class=""stimulus-container""><img src=""images/schematic_sequence/restaurant_scheme/restaurant_scheme_9.png"" class=""exp-image""></div>","null","","","","","","","","","","","",""
"","","","","","html-button-response","21","332841","0.0-21.0","833","","<div class=""stimulus-container""><img src=""images/schematic_sequence/restaurant_scheme/restaurant_scheme_9.png"" class=""exp-image""><div class=""question-area""><b>Is there a person?</b></div></div>","0","person_check","restaurant_scheme","9","","","","","","","","",""
"","","","","","html-keyboard-response","22","336843","0.0-22.0","null","","<div class=""stimulus-container""><img src=""images/schematic_sequence/restaurant_scheme/restaurant_scheme_ten.png"" class=""exp-image""></div>","null","","","","","","","","","","","",""
"","","","","","html-button-response","23","337368","0.0-23.0","522","","<div class=""stimulus-container""><img src=""images/schematic_sequence/restaurant_scheme/restaurant_scheme_ten.png"" class=""exp-image""><div class=""question-area""><b>Is there a person?</b></div></div>","0","person_check","restaurant_scheme","10","","","","","","","","",""
"","","","","","html-keyboard-response","24","340371","0.0-24.0","null","","<div style=""background-color: white; width: 100vw; height: 100vh;""></div>","null","","","","","","","","","","","",""
"","","","","","html-keyboard-response","25","344375","0.0-25.0","null","","<div class=""stimulus-container""><img src=""images/semantic_sequence/self_care_activities_semantic/self_care_activities_semantic_1.png"" class=""exp-image""></div>","null","","","","","","","","","","","",""
"","","","","","html-button-response","26","345064","0.0-26.0","687","","<div class=""stimulus-container""><img src=""images/semantic_sequence/self_care_activities_semantic/self_care_activities_semantic_1.png"" class=""exp-image""><div class=""question-area""><b>Is there a person?</b></div></div>","0","person_check","self_care_activities_semantic","1","","","","","","","","",""
"","","","","","html-keyboard-response","27","349068","0.0-27.0","null","","<div class=""stimulus-container""><img src=""images/semantic_sequence/self_care_activities_semantic/self_care_activities_semantic_2.png"" class=""exp-image""></div>","null","","","","","","","","","","","",""
"","","","","","html-button-response","28","349601","0.0-28.0","531","","<div class=""stimulus-container""><img src=""images/semantic_sequence/self_care_activities_semantic/self_care_activities_semantic_2.png"" class=""exp-image""><div class=""question-area""><b>Is there a person?</b></div></div>","0","person_check","self_care_activities_semantic","2","","","","","","","","",""
"","","","","","html-keyboard-response","29","353604","0.0-29.0","null","","<div class=""stimulus-container""><img src=""images/semantic_sequence/self_care_activities_semantic/self_care_activities_semantic_3.png"" class=""exp-image""></div>","null","","","","","","","","","","","",""
"","","","","","html-button-response","30","353908","0.0-30.0","302","","<div class=""stimulus-container""><img src=""images/semantic_sequence/self_care_activities_semantic/self_care_activities_semantic_3.png"" class=""exp-image""><div class=""question-area""><b>Is there a person?</b></div></div>","0","person_check","self_care_activities_semantic","3","","","","","","","","",""
"","","","","","html-keyboard-response","31","357911","0.0-31.0","null","","<div class=""stimulus-container""><img src=""images/semantic_sequence/self_care_activities_semantic/self_care_activities_semantic_4.png"" class=""exp-image""></div>","null","","","","","","","","","","","",""
"","","","","","html-button-response","32","358271","0.0-32.0","357","","<div class=""stimulus-container""><img src=""images/semantic_sequence/self_care_activities_semantic/self_care_activities_semantic_4.png"" class=""exp-image""><div class=""question-area""><b>Is there a person?</b></div></div>","0","person_check","self_care_activities_semantic","4","","","","","","","","",""
"","","","","","html-keyboard-response","33","362274","0.0-33.0","null","","<div class=""stimulus-container""><img src=""images/semantic_sequence/self_care_activities_semantic/self_care_activities_semantic_5.png"" class=""exp-image""></div>","null","","","","","","","","","","","",""
"","","","","","html-button-response","34","362805","0.0-34.0","529","","<div class=""stimulus-container""><img src=""images/semantic_sequence/self_care_activities_semantic/self_care_activities_semantic_5.png"" class=""exp-image""><div class=""question-area""><b>Is there a person?</b></div></div>","0","person_check","self_care_activities_semantic","5","","","","","","","","",""
"","","","","","html-keyboard-response","35","366807","0.0-35.0","null","","<div class=""stimulus-container""><img src=""images/semantic_sequence/self_care_activities_semantic/self_care_activities_semantic_6.png"" class=""exp-image""></div>","null","","","","","","","","","","","",""
"","","","","","html-button-response","36","367395","0.0-36.0","586","","<div class=""stimulus-container""><img src=""images/semantic_sequence/self_care_activities_semantic/self_care_activities_semantic_6.png"" class=""exp-image""><div class=""question-area""><b>Is there a person?</b></div></div>","1","person_check","self_care_activities_semantic","6","","","","","","","","",""
"","","","","","html-keyboard-response","37","371399","0.0-37.0","null","","<div class=""stimulus-container""><img src=""images/semantic_sequence/self_care_activities_semantic/self_care_activities_semantic_7.png"" class=""exp-image""></div>","null","","","","","","","","","","","",""
"","","","","","html-button-response","38","372170","0.0-38.0","769","","<div class=""stimulus-container""><img src=""images/semantic_sequence/self_care_activities_semantic/self_care_activities_semantic_7.png"" class=""exp-image""><div class=""question-area""><b>Is there a person?</b></div></div>","0","person_check","self_care_activities_semantic","7","","","","","","","","",""
"","","","","","html-keyboard-response","39","376173","0.0-39.0","null","","<div class=""stimulus-container""><img src=""images/semantic_sequence/self_care_activities_semantic/self_care_activities_semantic_8.png"" class=""exp-image""></div>","null","","","","","","","","","","","",""
"","","","","","html-button-response","40","376856","0.0-40.0","681","","<div class=""stimulus-container""><img src=""images/semantic_sequence/self_care_activities_semantic/self_care_activities_semantic_8.png"" class=""exp-image""><div class=""question-area""><b>Is there a person?</b></div></div>","0","person_check","self_care_activities_semantic","8","","","","","","","","",""
"","","","","","html-keyboard-response","41","380860","0.0-41.0","null","","<div class=""stimulus-container""><img src=""images/semantic_sequence/self_care_activities_semantic/self_care_activities_semantic_9.png"" class=""exp-image""></div>","null","","","","","","","","","","","",""
"","","","","","html-button-response","42","381520","0.0-42.0","658","","<div class=""stimulus-container""><img src=""images/semantic_sequence/self_care_activities_semantic/self_care_activities_semantic_9.png"" class=""exp-image""><div class=""question-area""><b>Is there a person?</b></div></div>","0","person_check","self_care_activities_semantic","9","","","","","","","","",""
"","","","","","html-keyboard-response","43","385524","0.0-43.0","null","","<div class=""stimulus-container""><img src=""images/semantic_sequence/self_care_activities_semantic/self_care_activities_semantic_ten.png"" class=""exp-image""></div>","null","","","","","","","","","","","",""
"","","","","","html-button-response","44","386360","0.0-44.0","833","","<div class=""stimulus-container""><img src=""images/semantic_sequence/self_care_activities_semantic/self_care_activities_semantic_ten.png"" class=""exp-image""><div class=""question-area""><b>Is there a person?</b></div></div>","0","person_check","self_care_activities_semantic","10","","","","","","","","",""
"","","","","","html-keyboard-response","45","389363","0.0-45.0","null","","<div style=""background-color: white; width: 100vw; height: 100vh;""></div>","null","","","","","","","","","","","",""
"","","","","","html-keyboard-response","46","393367","0.0-46.0","null","","<div class=""stimulus-container""><img src=""images/causal_sequence/the_performance_causal/the_performance_causal_1.png"" class=""exp-image""></div>","null","","","","","","","","","","","",""
"","","","","","html-button-response","47","394804","0.0-47.0","1435","","<div class=""stimulus-container""><img src=""images/causal_sequence/the_performance_causal/the_performance_causal_1.png"" class=""exp-image""><div class=""question-area""><b>Is there a person?</b></div></div>","0","person_check","the_performance_causal","1","","","","","","","","",""
"","","","","","html-keyboard-response","48","398808","0.0-48.0","null","","<div class=""stimulus-container""><img src=""images/causal_sequence/the_performance_causal/the_performance_causal_2.png"" class=""exp-image""></div>","null","","","","","","","","","","","",""
"","","","","","html-button-response","49","399957","0.0-49.0","1147","","<div class=""stimulus-container""><img src=""images/causal_sequence/the_performance_causal/the_performance_causal_2.png"" class=""exp-image""><div class=""question-area""><b>Is there a person?</b></div></div>","0","person_check","the_performance_causal","2","","","","","","","","",""
"","","","","","html-keyboard-response","50","403961","0.0-50.0","null","","<div class=""stimulus-container""><img src=""images/causal_sequence/the_performance_causal/the_performance_causal_3.png"" class=""exp-image""></div>","null","","","","","","","","","","","",""
"","","","","","html-button-response","51","404332","0.0-51.0","370","","<div class=""stimulus-container""><img src=""images/causal_sequence/the_performance_causal/the_performance_causal_3.png"" class=""exp-image""><div class=""question-area""><b>Is there a person?</b></div></div>","0","person_check","the_performance_causal","3","","","","","","","","",""
"","","","","","html-keyboard-response","52","408335","0.0-52.0","null","","<div class=""stimulus-container""><img src=""images/causal_sequence/the_performance_causal/the_performance_causal_4.png"" class=""exp-image""></div>","null","","","","","","","","","","","",""
"","","","","","html-button-response","53","409912","0.0-53.0","1574","","<div class=""stimulus-container""><img src=""images/causal_sequence/the_performance_causal/the_performance_causal_4.png"" class=""exp-image""><div class=""question-area""><b>Is there a person?</b></div></div>","0","person_check","the_performance_causal","4","","","","","","","","",""
"","","","","","html-keyboard-response","54","413916","0.0-54.0","null","","<div class=""stimulus-container""><img src=""images/causal_sequence/the_performance_causal/the_performance_causal_5.png"" class=""exp-image""></div>","null","","","","","","","","","","","",""
"","","","","","html-button-response","55","414563","0.0-55.0","644","","<div class=""stimulus-container""><img src=""images/causal_sequence/the_performance_causal/the_performance_causal_5.png"" class=""exp-image""><div class=""question-area""><b>Is there a person?</b></div></div>","0","person_check","the_performance_causal","5","","","","","","","","",""
"","","","","","html-keyboard-response","56","418565","0.0-56.0","null","","<div class=""stimulus-container""><img src=""images/causal_sequence/the_performance_causal/the_performance_causal_6.png"" class=""exp-image""></div>","null","","","","","","","","","","","",""
"","","","","","html-button-response","57","419104","0.0-57.0","537","","<div class=""stimulus-container""><img src=""images/causal_sequence/the_performance_causal/the_performance_causal_6.png"" class=""exp-image""><div class=""question-area""><b>Is there a person?</b></div></div>","0","person_check","the_performance_causal","6","","","","","","","","",""
"","","","","","html-keyboard-response","58","423108","0.0-58.0","null","","<div class=""stimulus-container""><img src=""images/causal_sequence/the_performance_causal/the_performance_causal_7.png"" class=""exp-image""></div>","null","","","","","","","","","","","",""
"","","","","","html-button-response","59","423574","0.0-59.0","464","","<div class=""stimulus-container""><img src=""images/causal_sequence/the_performance_causal/the_performance_causal_7.png"" class=""exp-image""><div class=""question-area""><b>Is there a person?</b></div></div>","0","person_check","the_performance_causal","7","","","","","","","","",""
"","","","","","html-keyboard-response","60","427576","0.0-60.0","null","","<div class=""stimulus-container""><img src=""images/causal_sequence/the_performance_causal/the_performance_causal_8.png"" class=""exp-image""></div>","null","","","","","","","","","","","",""
"","","","","","html-button-response","61","429171","0.0-61.0","1593","","<div class=""stimulus-container""><img src=""images/causal_sequence/the_performance_causal/the_performance_causal_8.png"" class=""exp-image""><div class=""question-area""><b>Is there a person?</b></div></div>","0","person_check","the_performance_causal","8","","","","","","","","",""
"","","","","","html-keyboard-response","62","433174","0.0-62.0","null","","<div class=""stimulus-container""><img src=""images/causal_sequence/the_performance_causal/the_performance_causal_9.png"" class=""exp-image""></div>","null","","","","","","","","","","","",""
"","","","","","html-button-response","63","434542","0.0-63.0","1365","","<div class=""stimulus-container""><img src=""images/causal_sequence/the_performance_causal/the_performance_causal_9.png"" class=""exp-image""><div class=""question-area""><b>Is there a person?</b></div></div>","0","person_check","the_performance_causal","9","","","","","","","","",""
"","","","","","html-keyboard-response","64","438545","0.0-64.0","null","","<div class=""stimulus-container""><img src=""images/causal_sequence/the_performance_causal/the_performance_causal_ten.png"" class=""exp-image""></div>","null","","","","","","","","","","","",""
"","","","","","html-button-response","65","439397","0.0-65.0","850","","<div class=""stimulus-container""><img src=""images/causal_sequence/the_performance_causal/the_performance_causal_ten.png"" class=""exp-image""><div class=""question-area""><b>Is there a person?</b></div></div>","0","person_check","the_performance_causal","10","","","","","","","","",""
"","","","","","html-keyboard-response","66","442400","0.0-66.0","null","","<div style=""background-color: white; width: 100vw; height: 100vh;""></div>","null","","","","","","","","","","","",""
"","","","","","html-keyboard-response","67","446402","0.0-67.0","null","","<div class=""stimulus-container""><img src=""images/semantic_sequence/kitchen_operations_semantic/kitchen_operations_semantic_1.png"" class=""exp-image""></div>","null","","","","","","","","","","","",""
"","","","","","html-button-response","68","446753","0.0-68.0","348","","<div class=""stimulus-container""><img src=""images/semantic_sequence/kitchen_operations_semantic/kitchen_operations_semantic_1.png"" class=""exp-image""><div class=""question-area""><b>Is there a person?</b></div></div>","0","person_check","kitchen_operations_semantic","1","","","","","","","","",""
"","","","","","html-keyboard-response","69","450756","0.0-69.0","null","","<div class=""stimulus-container""><img src=""images/semantic_sequence/kitchen_operations_semantic/kitchen_operations_semantic_2.png"" class=""exp-image""></div>","null","","","","","","","","","","","",""
"","","","","","html-button-response","70","451054","0.0-70.0","296","","<div class=""stimulus-container""><img src=""images/semantic_sequence/kitchen_operations_semantic/kitchen_operations_semantic_2.png"" class=""exp-image""><div class=""question-area""><b>Is there a person?</b></div></div>","0","person_check","kitchen_operations_semantic","2","","","","","","","","",""
"","","","","","html-keyboard-response","71","455057","0.0-71.0","null","","<div class=""stimulus-container""><img src=""images/semantic_sequence/kitchen_operations_semantic/kitchen_operations_semantic_3.png"" class=""exp-image""></div>","null","","","","","","","","","","","",""
"","","","","","html-button-response","72","455346","0.0-72.0","287","","<div class=""stimulus-container""><img src=""images/semantic_sequence/kitchen_operations_semantic/kitchen_operations_semantic_3.png"" class=""exp-image""><div class=""question-area""><b>Is there a person?</b></div></div>","0","person_check","kitchen_operations_semantic","3","","","","","","","","",""
"","","","","","html-keyboard-response","73","459349","0.0-73.0","null","","<div class=""stimulus-container""><img src=""images/semantic_sequence/kitchen_operations_semantic/kitchen_operations_semantic_4.png"" class=""exp-image""></div>","null","","","","","","","","","","","",""
"","","","","","html-button-response","74","459634","0.0-74.0","282","","<div class=""stimulus-container""><img src=""images/semantic_sequence/kitchen_operations_semantic/kitchen_operations_semantic_4.png"" class=""exp-image""><div class=""question-area""><b>Is there a person?</b></div></div>","0","person_check","kitchen_operations_semantic","4","","","","","","","","",""
"","","","","","html-keyboard-response","75","463637","0.0-75.0","null","","<div class=""stimulus-container""><img src=""images/semantic_sequence/kitchen_operations_semantic/kitchen_operations_semantic_5.png"" class=""exp-image""></div>","null","","","","","","","","","","","",""
"","","","","","html-button-response","76","463952","0.0-76.0","313","","<div class=""stimulus-container""><img src=""images/semantic_sequence/kitchen_operations_semantic/kitchen_operations_semantic_5.png"" class=""exp-image""><div class=""question-area""><b>Is there a person?</b></div></div>","0","person_check","kitchen_operations_semantic","5","","","","","","","","",""
"","","","","","html-keyboard-response","77","467954","0.0-77.0","null","","<div class=""stimulus-container""><img src=""images/semantic_sequence/kitchen_operations_semantic/kitchen_operations_semantic_6.png"" class=""exp-image""></div>","null","","","","","","","","","","","",""
"","","","","","html-button-response","78","468257","0.0-78.0","301","","<div class=""stimulus-container""><img src=""images/semantic_sequence/kitchen_operations_semantic/kitchen_operations_semantic_6.png"" class=""exp-image""><div class=""question-area""><b>Is there a person?</b></div></div>","0","person_check","kitchen_operations_semantic","6","","","","","","","","",""
"","","","","","html-keyboard-response","79","472260","0.0-79.0","null","","<div class=""stimulus-container""><img src=""images/semantic_sequence/kitchen_operations_semantic/kitchen_operations_semantic_7.png"" class=""exp-image""></div>","null","","","","","","","","","","","",""
"","","","","","html-button-response","80","473342","0.0-80.0","1080","","<div class=""stimulus-container""><img src=""images/semantic_sequence/kitchen_operations_semantic/kitchen_operations_semantic_7.png"" class=""exp-image""><div class=""question-area""><b>Is there a person?</b></div></div>","0","person_check","kitchen_operations_semantic","7","","","","","","","","",""
"","","","","","html-keyboard-response","81","477345","0.0-81.0","null","","<div class=""stimulus-container""><img src=""images/semantic_sequence/kitchen_operations_semantic/kitchen_operations_semantic_8.png"" class=""exp-image""></div>","null","","","","","","","","","","","",""
"","","","","","html-button-response","82","478067","0.0-82.0","720","","<div class=""stimulus-container""><img src=""images/semantic_sequence/kitchen_operations_semantic/kitchen_operations_semantic_8.png"" class=""exp-image""><div class=""question-area""><b>Is there a person?</b></div></div>","0","person_check","kitchen_operations_semantic","8","","","","","","","","",""
"","","","","","html-keyboard-response","83","482071","0.0-83.0","null","","<div class=""stimulus-container""><img src=""images/semantic_sequence/kitchen_operations_semantic/kitchen_operations_semantic_9.png"" class=""exp-image""></div>","null","","","","","","","","","","","",""
"","","","","","html-button-response","84","482712","0.0-84.0","638","","<div class=""stimulus-container""><img src=""images/semantic_sequence/kitchen_operations_semantic/kitchen_operations_semantic_9.png"" class=""exp-image""><div class=""question-area""><b>Is there a person?</b></div></div>","0","person_check","kitchen_operations_semantic","9","","","","","","","","",""
"","","","","","html-keyboard-response","85","486714","0.0-85.0","null","","<div class=""stimulus-container""><img src=""images/semantic_sequence/kitchen_operations_semantic/kitchen_operations_semantic_ten.png"" class=""exp-image""></div>","null","","","","","","","","","","","",""
"","","","","","html-button-response","86","487308","0.0-86.0","591","","<div class=""stimulus-container""><img src=""images/semantic_sequence/kitchen_operations_semantic/kitchen_operations_semantic_ten.png"" class=""exp-image""><div class=""question-area""><b>Is there a person?</b></div></div>","0","person_check","kitchen_operations_semantic","10","","","","","","","","",""
"","","","","","html-keyboard-response","87","490311","0.0-87.0","null","","<div style=""background-color: white; width: 100vw; height: 100vh;""></div>","null","","","","","","","","","","","",""
"","","","","","html-keyboard-response","88","494315","0.0-88.0","null","","<div class=""stimulus-container""><img src=""images/schematic_sequence/supermarket_scheme/supermarket_scheme_1.png"" class=""exp-image""></div>","null","","","","","","","","","","","",""
"","","","","","html-button-response","89","494961","0.0-89.0","644","","<div class=""stimulus-container""><img src=""images/schematic_sequence/supermarket_scheme/supermarket_scheme_1.png"" class=""exp-image""><div class=""question-area""><b>Is there a person?</b></div></div>","1","person_check","supermarket_scheme","1","","","","","","","","",""
"","","","","","html-keyboard-response","90","498965","0.0-90.0","null","","<div class=""stimulus-container""><img src=""images/schematic_sequence/supermarket_scheme/supermarket_scheme_2.png"" class=""exp-image""></div>","null","","","","","","","","","","","",""
"","","","","","html-button-response","91","499405","0.0-91.0","438","","<div class=""stimulus-container""><img src=""images/schematic_sequence/supermarket_scheme/supermarket_scheme_2.png"" class=""exp-image""><div class=""question-area""><b>Is there a person?</b></div></div>","1","person_check","supermarket_scheme","2","","","","","","","","",""
"","","","","","html-keyboard-response","92","503408","0.0-92.0","null","","<div class=""stimulus-container""><img src=""images/schematic_sequence/supermarket_scheme/supermarket_scheme_3.png"" class=""exp-image""></div>","null","","","","","","","","","","","",""
"","","","","","html-button-response","93","503768","0.0-93.0","358","","<div class=""stimulus-container""><img src=""images/schematic_sequence/supermarket_scheme/supermarket_scheme_3.png"" class=""exp-image""><div class=""question-area""><b>Is there a person?</b></div></div>","1","person_check","supermarket_scheme","3","","","","","","","","",""
"","","","","","html-keyboard-response","94","507772","0.0-94.0","null","","<div class=""stimulus-container""><img src=""images/schematic_sequence/supermarket_scheme/supermarket_scheme_4.png"" class=""exp-image""></div>","null","","","","","","","","","","","",""
"","","","","","html-button-response","95","508279","0.0-95.0","505","","<div class=""stimulus-container""><img src=""images/schematic_sequence/supermarket_scheme/supermarket_scheme_4.png"" class=""exp-image""><div class=""question-area""><b>Is there a person?</b></div></div>","0","person_check","supermarket_scheme","4","","","","","","","","",""
"","","","","","html-keyboard-response","96","512282","0.0-96.0","null","","<div class=""stimulus-container""><img src=""images/schematic_sequence/supermarket_scheme/supermarket_scheme_5.png"" class=""exp-image""></div>","null","","","","","","","","","","","",""
"","","","","","html-button-response","97","512744","0.0-97.0","459","","<div class=""stimulus-container""><img src=""images/schematic_sequence/supermarket_scheme/supermarket_scheme_5.png"" class=""exp-image""><div class=""question-area""><b>Is there a person?</b></div></div>","1","person_check","supermarket_scheme","5","","","","","","","","",""
"","","","","","html-keyboard-response","98","516746","0.0-98.0","null","","<div class=""stimulus-container""><img src=""images/schematic_sequence/supermarket_scheme/supermarket_scheme_6.png"" class=""exp-image""></div>","null","","","","","","","","","","","",""
"","","","","","html-button-response","99","517739","0.0-99.0","991","","<div class=""stimulus-container""><img src=""images/schematic_sequence/supermarket_scheme/supermarket_scheme_6.png"" class=""exp-image""><div class=""question-area""><b>Is there a person?</b></div></div>","0","person_check","supermarket_scheme","6","","","","","","","","",""
"","","","","","html-keyboard-response","100","521742","0.0-100.0","null","","<div class=""stimulus-container""><img src=""images/schematic_sequence/supermarket_scheme/supermarket_scheme_7.png"" class=""exp-image""></div>","null","","","","","","","","","","","",""
"","","","","","html-button-response","101","522660","0.0-101.0","916","","<div class=""stimulus-container""><img src=""images/schematic_sequence/supermarket_scheme/supermarket_scheme_7.png"" class=""exp-image""><div class=""question-area""><b>Is there a person?</b></div></div>","0","person_check","supermarket_scheme","7","","","","","","","","",""
"","","","","","html-keyboard-response","102","526663","0.0-102.0","null","","<div class=""stimulus-container""><img src=""images/schematic_sequence/supermarket_scheme/supermarket_scheme_8.png"" class=""exp-image""></div>","null","","","","","","","","","","","",""
"","","","","","html-button-response","103","527240","0.0-103.0","574","","<div class=""stimulus-container""><img src=""images/schematic_sequence/supermarket_scheme/supermarket_scheme_8.png"" class=""exp-image""><div class=""question-area""><b>Is there a person?</b></div></div>","0","person_check","supermarket_scheme","8","","","","","","","","",""
"","","","","","html-keyboard-response","104","531243","0.0-104.0","null","","<div class=""stimulus-container""><img src=""images/schematic_sequence/supermarket_scheme/supermarket_scheme_9.png"" class=""exp-image""></div>","null","","","","","","","","","","","",""
"","","","","","html-button-response","105","532442","0.0-105.0","1197","","<div class=""stimulus-container""><img src=""images/schematic_sequence/supermarket_scheme/supermarket_scheme_9.png"" class=""exp-image""><div class=""question-area""><b>Is there a person?</b></div></div>","0","person_check","supermarket_scheme","9","","","","","","","","",""
"","","","","","html-keyboard-response","106","536444","0.0-106.0","null","","<div class=""stimulus-container""><img src=""images/schematic_sequence/supermarket_scheme/supermarket_scheme_ten.png"" class=""exp-image""></div>","null","","","","","","","","","","","",""
"","","","","","html-button-response","107","536800","0.0-107.0","355","","<div class=""stimulus-container""><img src=""images/schematic_sequence/supermarket_scheme/supermarket_scheme_ten.png"" class=""exp-image""><div class=""question-area""><b>Is there a person?</b></div></div>","1","person_check","supermarket_scheme","10","","","","","","","","",""
"","","","","","html-keyboard-response","108","539803","0.0-108.0","null","","<div style=""background-color: white; width: 100vw; height: 100vh;""></div>","null","","","","","","","","","","","",""
"","","","","","html-keyboard-response","109","543807","0.0-109.0","null","","<div class=""stimulus-container""><img src=""images/causal_sequence/museum_causal/museum_causal_1.png"" class=""exp-image""></div>","null","","","","","","","","","","","",""
"","","","","","html-button-response","110","544731","0.0-110.0","921","","<div class=""stimulus-container""><img src=""images/causal_sequence/museum_causal/museum_causal_1.png"" class=""exp-image""><div class=""question-area""><b>Is there a person?</b></div></div>","0","person_check","museum_causal","1","","","","","","","","",""
"","","","","","html-keyboard-response","111","548733","0.0-111.0","null","","<div class=""stimulus-container""><img src=""images/causal_sequence/museum_causal/museum_causal_2.png"" class=""exp-image""></div>","null","","","","","","","","","","","",""
"","","","","","html-button-response","112","549812","0.0-112.0","1078","","<div class=""stimulus-container""><img src=""images/causal_sequence/museum_causal/museum_causal_2.png"" class=""exp-image""><div class=""question-area""><b>Is there a person?</b></div></div>","0","person_check","museum_causal","2","","","","","","","","",""
"","","","","","html-keyboard-response","113","553815","0.0-113.0","null","","<div class=""stimulus-container""><img src=""images/causal_sequence/museum_causal/museum_causal_3.png"" class=""exp-image""></div>","null","","","","","","","","","","","",""
"","","","","","html-button-response","114","554738","0.0-114.0","922","","<div class=""stimulus-container""><img src=""images/causal_sequence/museum_causal/museum_causal_3.png"" class=""exp-image""><div class=""question-area""><b>Is there a person?</b></div></div>","0","person_check","museum_causal","3","","","","","","","","",""
"","","","","","html-keyboard-response","115","558741","0.0-115.0","null","","<div class=""stimulus-container""><img src=""images/causal_sequence/museum_causal/museum_causal_4.png"" class=""exp-image""></div>","null","","","","","","","","","","","",""
"","","","","","html-button-response","116","560668","0.0-116.0","1925","","<div class=""stimulus-container""><img src=""images/causal_sequence/museum_causal/museum_causal_4.png"" class=""exp-image""><div class=""question-area""><b>Is there a person?</b></div></div>","1","person_check","museum_causal","4","","","","","","","","",""
"","","","","","html-keyboard-response","117","564672","0.0-117.0","null","","<div class=""stimulus-container""><img src=""images/causal_sequence/museum_causal/museum_causal_5.png"" class=""exp-image""></div>","null","","","","","","","","","","","",""
"","","","","","html-button-response","118","565344","0.0-118.0","670","","<div class=""stimulus-container""><img src=""images/causal_sequence/museum_causal/museum_causal_5.png"" class=""exp-image""><div class=""question-area""><b>Is there a person?</b></div></div>","0","person_check","museum_causal","5","","","","","","","","",""
"","","","","","html-keyboard-response","119","569348","0.0-119.0","null","","<div class=""stimulus-container""><img src=""images/causal_sequence/museum_causal/museum_causal_6.png"" class=""exp-image""></div>","null","","","","","","","","","","","",""
"","","","","","html-button-response","120","570848","0.0-120.0","1498","","<div class=""stimulus-container""><img src=""images/causal_sequence/museum_causal/museum_causal_6.png"" class=""exp-image""><div class=""question-area""><b>Is there a person?</b></div></div>","0","person_check","museum_causal","6","","","","","","","","",""
"","","","","","html-keyboard-response","121","574851","0.0-121.0","null","","<div class=""stimulus-container""><img src=""images/causal_sequence/museum_causal/museum_causal_7.png"" class=""exp-image""></div>","null","","","","","","","","","","","",""
"","","","","","html-button-response","122","575432","0.0-122.0","579","","<div class=""stimulus-container""><img src=""images/causal_sequence/museum_causal/museum_causal_7.png"" class=""exp-image""><div class=""question-area""><b>Is there a person?</b></div></div>","1","person_check","museum_causal","7","","","","","","","","",""
"","","","","","html-keyboard-response","123","579435","0.0-123.0","null","","<div class=""stimulus-container""><img src=""images/causal_sequence/museum_causal/museum_causal_8.png"" class=""exp-image""></div>","null","","","","","","","","","","","",""
"","","","","","html-button-response","124","580878","0.0-124.0","1441","","<div class=""stimulus-container""><img src=""images/causal_sequence/museum_causal/museum_causal_8.png"" class=""exp-image""><div class=""question-area""><b>Is there a person?</b></div></div>","0","person_check","museum_causal","8","","","","","","","","",""
"","","","","","html-keyboard-response","125","584879","0.0-125.0","null","","<div class=""stimulus-container""><img src=""images/causal_sequence/museum_causal/museum_causal_9.png"" class=""exp-image""></div>","null","","","","","","","","","","","",""
"","","","","","html-button-response","126","585506","0.0-126.0","624","","<div class=""stimulus-container""><img src=""images/causal_sequence/museum_causal/museum_causal_9.png"" class=""exp-image""><div class=""question-area""><b>Is there a person?</b></div></div>","1","person_check","museum_causal","9","","","","","","","","",""
"","","","","","html-keyboard-response","127","589508","0.0-127.0","null","","<div class=""stimulus-container""><img src=""images/causal_sequence/museum_causal/museum_causal_ten.png"" class=""exp-image""></div>","null","","","","","","","","","","","",""
"","","","","","html-button-response","128","590466","0.0-128.0","956","","<div class=""stimulus-container""><img src=""images/causal_sequence/museum_causal/museum_causal_ten.png"" class=""exp-image""><div class=""question-area""><b>Is there a person?</b></div></div>","0","person_check","museum_causal","10","","","","","","","","",""
"","","","","","html-keyboard-response","129","593469","0.0-129.0","null","","<div style=""background-color: white; width: 100vw; height: 100vh;""></div>","null","","","","","","","","","","","",""
"","","","","","html-keyboard-response","130","597472","0.0-130.0","null","","<div class=""stimulus-container""><img src=""images/causal_sequence/dog_causal/dog_causal_1.png"" class=""exp-image""></div>","null","","","","","","","","","","","",""
"","","","","","html-button-response","131","598211","0.0-131.0","739","","<div class=""stimulus-container""><img src=""images/causal_sequence/dog_causal/dog_causal_1.png"" class=""exp-image""><div class=""question-area""><b>Is there a person?</b></div></div>","0","person_check","dog_causal","1","","","","","","","","",""
"","","","","","html-keyboard-response","132","602214","0.0-132.0","null","","<div class=""stimulus-container""><img src=""images/causal_sequence/dog_causal/dog_causal_2.png"" class=""exp-image""></div>","null","","","","","","","","","","","",""
"","","","","","html-button-response","133","603326","0.0-133.0","1110","","<div class=""stimulus-container""><img src=""images/causal_sequence/dog_causal/dog_causal_2.png"" class=""exp-image""><div class=""question-area""><b>Is there a person?</b></div></div>","0","person_check","dog_causal","2","","","","","","","","",""
"","","","","","html-keyboard-response","134","607329","0.0-134.0","null","","<div class=""stimulus-container""><img src=""images/causal_sequence/dog_causal/dog_causal_3.png"" class=""exp-image""></div>","null","","","","","","","","","","","",""
"","","","","","html-button-response","135","608124","0.0-135.0","792","","<div class=""stimulus-container""><img src=""images/causal_sequence/dog_causal/dog_causal_3.png"" class=""exp-image""><div class=""question-area""><b>Is there a person?</b></div></div>","0","person_check","dog_causal","3","","","","","","","","",""
"","","","","","html-keyboard-response","136","612127","0.0-136.0","null","","<div class=""stimulus-container""><img src=""images/causal_sequence/dog_causal/dog_causal_4.png"" class=""exp-image""></div>","null","","","","","","","","","","","",""
"","","","","","html-button-response","137","612473","0.0-137.0","343","","<div class=""stimulus-container""><img src=""images/causal_sequence/dog_causal/dog_causal_4.png"" class=""exp-image""><div class=""question-area""><b>Is there a person?</b></div></div>","0","person_check","dog_causal","4","","","","","","","","",""
"","","","","","html-keyboard-response","138","616476","0.0-138.0","null","","<div class=""stimulus-container""><img src=""images/causal_sequence/dog_causal/dog_causal_5.png"" class=""exp-image""></div>","null","","","","","","","","","","","",""
"","","","","","html-button-response","139","617472","0.0-139.0","994","","<div class=""stimulus-container""><img src=""images/causal_sequence/dog_causal/dog_causal_5.png"" class=""exp-image""><div class=""question-area""><b>Is there a person?</b></div></div>","0","person_check","dog_causal","5","","","","","","","","",""
"","","","","","html-keyboard-response","140","621474","0.0-140.0","null","","<div class=""stimulus-container""><img src=""images/causal_sequence/dog_causal/dog_causal_6.png"" class=""exp-image""></div>","null","","","","","","","","","","","",""
"","","","","","html-button-response","141","621867","0.0-141.0","392","","<div class=""stimulus-container""><img src=""images/causal_sequence/dog_causal/dog_causal_6.png"" class=""exp-image""><div class=""question-area""><b>Is there a person?</b></div></div>","0","person_check","dog_causal","6","","","","","","","","",""
"","","","","","html-keyboard-response","142","625870","0.0-142.0","null","","<div class=""stimulus-container""><img src=""images/causal_sequence/dog_causal/dog_causal_7.png"" class=""exp-image""></div>","null","","","","","","","","","","","",""
"","","","","","html-button-response","143","626276","0.0-143.0","403","","<div class=""stimulus-container""><img src=""images/causal_sequence/dog_causal/dog_causal_7.png"" class=""exp-image""><div class=""question-area""><b>Is there a person?</b></div></div>","0","person_check","dog_causal","7","","","","","","","","",""
"","","","","","html-keyboard-response","144","630278","0.0-144.0","null","","<div class=""stimulus-container""><img src=""images/causal_sequence/dog_causal/dog_causal_8.png"" class=""exp-image""></div>","null","","","","","","","","","","","",""
"","","","","","html-button-response","145","630631","0.0-145.0","350","","<div class=""stimulus-container""><img src=""images/causal_sequence/dog_causal/dog_causal_8.png"" class=""exp-image""><div class=""question-area""><b>Is there a person?</b></div></div>","0","person_check","dog_causal","8","","","","","","","","",""
"","","","","","html-keyboard-response","146","634634","0.0-146.0","null","","<div class=""stimulus-container""><img src=""images/causal_sequence/dog_causal/dog_causal_9.png"" class=""exp-image""></div>","null","","","","","","","","","","","",""
"","","","","","html-button-response","147","635348","0.0-147.0","711","","<div class=""stimulus-container""><img src=""images/causal_sequence/dog_causal/dog_causal_9.png"" class=""exp-image""><div class=""question-area""><b>Is there a person?</b></div></div>","0","person_check","dog_causal","9","","","","","","","","",""
"","","","","","html-keyboard-response","148","639350","0.0-148.0","null","","<div class=""stimulus-container""><img src=""images/causal_sequence/dog_causal/dog_causal_ten.png"" class=""exp-image""></div>","null","","","","","","","","","","","",""
"","","","","","html-button-response","149","640009","0.0-149.0","657","","<div class=""stimulus-container""><img src=""images/causal_sequence/dog_causal/dog_causal_ten.png"" class=""exp-image""><div class=""question-area""><b>Is there a person?</b></div></div>","0","person_check","dog_causal","10","","","","","","","","",""
"","","","","","html-keyboard-response","150","643012","0.0-150.0","null","","<div style=""background-color: white; width: 100vw; height: 100vh;""></div>","null","","","","","","","","","","","",""
"","","","","","html-keyboard-response","151","647016","0.0-151.0","null","","<div class=""stimulus-container""><img src=""images/causal_sequence/saving_a_cat_causal/saving_a_cat_causal_1.png"" class=""exp-image""></div>","null","","","","","","","","","","","",""
"","","","","","html-button-response","152","647345","0.0-152.0","327","","<div class=""stimulus-container""><img src=""images/causal_sequence/saving_a_cat_causal/saving_a_cat_causal_1.png"" class=""exp-image""><div class=""question-area""><b>Is there a person?</b></div></div>","0","person_check","saving_a_cat_causal","1","","","","","","","","",""
"","","","","","html-keyboard-response","153","651348","0.0-153.0","null","","<div class=""stimulus-container""><img src=""images/causal_sequence/saving_a_cat_causal/saving_a_cat_causal_2.png"" class=""exp-image""></div>","null","","","","","","","","","","","",""
"","","","","","html-button-response","154","651800","0.0-154.0","449","","<div class=""stimulus-container""><img src=""images/causal_sequence/saving_a_cat_causal/saving_a_cat_causal_2.png"" class=""exp-image""><div class=""question-area""><b>Is there a person?</b></div></div>","1","person_check","saving_a_cat_causal","2","","","","","","","","",""
"","","","","","html-keyboard-response","155","655803","0.0-155.0","null","","<div class=""stimulus-container""><img src=""images/causal_sequence/saving_a_cat_causal/saving_a_cat_causal_3.png"" class=""exp-image""></div>","null","","","","","","","","","","","",""
"","","","","","html-button-response","156","656651","0.0-156.0","848","","<div class=""stimulus-container""><img src=""images/causal_sequence/saving_a_cat_causal/saving_a_cat_causal_3.png"" class=""exp-image""><div class=""question-area""><b>Is there a person?</b></div></div>","1","person_check","saving_a_cat_causal","3","","","","","","","","",""
"","","","","","html-keyboard-response","157","660653","0.0-157.0","null","","<div class=""stimulus-container""><img src=""images/causal_sequence/saving_a_cat_causal/saving_a_cat_causal_4.png"" class=""exp-image""></div>","null","","","","","","","","","","","",""
"","","","","","html-button-response","158","661376","0.0-158.0","720","","<div class=""stimulus-container""><img src=""images/causal_sequence/saving_a_cat_causal/saving_a_cat_causal_4.png"" class=""exp-image""><div class=""question-area""><b>Is there a person?</b></div></div>","0","person_check","saving_a_cat_causal","4","","","","","","","","",""
"","","","","","html-keyboard-response","159","665379","0.0-159.0","null","","<div class=""stimulus-container""><img src=""images/causal_sequence/saving_a_cat_causal/saving_a_cat_causal_5.png"" class=""exp-image""></div>","null","","","","","","","","","","","",""
"","","","","","html-button-response","160","666143","0.0-160.0","761","","<div class=""stimulus-container""><img src=""images/causal_sequence/saving_a_cat_causal/saving_a_cat_causal_5.png"" class=""exp-image""><div class=""question-area""><b>Is there a person?</b></div></div>","0","person_check","saving_a_cat_causal","5","","","","","","","","",""
"","","","","","html-keyboard-response","161","670147","0.0-161.0","null","","<div class=""stimulus-container""><img src=""images/causal_sequence/saving_a_cat_causal/saving_a_cat_causal_6.png"" class=""exp-image""></div>","null","","","","","","","","","","","",""
"","","","","","html-button-response","162","670777","0.0-162.0","628","","<div class=""stimulus-container""><img src=""images/causal_sequence/saving_a_cat_causal/saving_a_cat_causal_6.png"" class=""exp-image""><div class=""question-area""><b>Is there a person?</b></div></div>","0","person_check","saving_a_cat_causal","6","","","","","","","","",""
"","","","","","html-keyboard-response","163","674779","0.0-163.0","null","","<div class=""stimulus-container""><img src=""images/causal_sequence/saving_a_cat_causal/saving_a_cat_causal_7.png"" class=""exp-image""></div>","null","","","","","","","","","","","",""
"","","","","","html-button-response","164","675840","0.0-164.0","1058","","<div class=""stimulus-container""><img src=""images/causal_sequence/saving_a_cat_causal/saving_a_cat_causal_7.png"" class=""exp-image""><div class=""question-area""><b>Is there a person?</b></div></div>","0","person_check","saving_a_cat_causal","7","","","","","","","","",""
"","","","","","html-keyboard-response","165","679844","0.0-165.0","null","","<div class=""stimulus-container""><img src=""images/causal_sequence/saving_a_cat_causal/saving_a_cat_causal_8.png"" class=""exp-image""></div>","null","","","","","","","","","","","",""
"","","","","","html-button-response","166","680904","0.0-166.0","1057","","<div class=""stimulus-container""><img src=""images/causal_sequence/saving_a_cat_causal/saving_a_cat_causal_8.png"" class=""exp-image""><div class=""question-area""><b>Is there a person?</b></div></div>","0","person_check","saving_a_cat_causal","8","","","","","","","","",""
"","","","","","html-keyboard-response","167","684907","0.0-167.0","null","","<div class=""stimulus-container""><img src=""images/causal_sequence/saving_a_cat_causal/saving_a_cat_causal_9.png"" class=""exp-image""></div>","null","","","","","","","","","","","",""
"","","","","","html-button-response","168","685832","0.0-168.0","923","","<div class=""stimulus-container""><img src=""images/causal_sequence/saving_a_cat_causal/saving_a_cat_causal_9.png"" class=""exp-image""><div class=""question-area""><b>Is there a person?</b></div></div>","0","person_check","saving_a_cat_causal","9","","","","","","","","",""
"","","","","","html-keyboard-response","169","689835","0.0-169.0","null","","<div class=""stimulus-container""><img src=""images/causal_sequence/saving_a_cat_causal/saving_a_cat_causal_ten.png"" class=""exp-image""></div>","null","","","","","","","","","","","",""
"","","","","","html-button-response","170","690829","0.0-170.0","992","","<div class=""stimulus-container""><img src=""images/causal_sequence/saving_a_cat_causal/saving_a_cat_causal_ten.png"" class=""exp-image""><div class=""question-area""><b>Is there a person?</b></div></div>","0","person_check","saving_a_cat_causal","10","","","","","","","","",""
"","","","","","html-keyboard-response","171","693833","0.0-171.0","null","","<div style=""background-color: white; width: 100vw; height: 100vh;""></div>","null","","","","","","","","","","","",""
"","","","","","html-keyboard-response","172","697837","0.0-172.0","null","","<div class=""stimulus-container""><img src=""images/semantic_sequence/physical_activity_semantic/physical_activity_semantic_1.png"" class=""exp-image""></div>","null","","","","","","","","","","","",""
"","","","","","html-button-response","173","698206","0.0-173.0","367","","<div class=""stimulus-container""><img src=""images/semantic_sequence/physical_activity_semantic/physical_activity_semantic_1.png"" class=""exp-image""><div class=""question-area""><b>Is there a person?</b></div></div>","0","person_check","physical_activity_semantic","1","","","","","","","","",""
"","","","","","html-keyboard-response","174","702209","0.0-174.0","null","","<div class=""stimulus-container""><img src=""images/semantic_sequence/physical_activity_semantic/physical_activity_semantic_2.png"" class=""exp-image""></div>","null","","","","","","","","","","","",""
"","","","","","html-button-response","175","702721","0.0-175.0","509","","<div class=""stimulus-container""><img src=""images/semantic_sequence/physical_activity_semantic/physical_activity_semantic_2.png"" class=""exp-image""><div class=""question-area""><b>Is there a person?</b></div></div>","0","person_check","physical_activity_semantic","2","","","","","","","","",""
"","","","","","html-keyboard-response","176","706723","0.0-176.0","null","","<div class=""stimulus-container""><img src=""images/semantic_sequence/physical_activity_semantic/physical_activity_semantic_3.png"" class=""exp-image""></div>","null","","","","","","","","","","","",""
"","","","","","html-button-response","177","706987","0.0-177.0","261","","<div class=""stimulus-container""><img src=""images/semantic_sequence/physical_activity_semantic/physical_activity_semantic_3.png"" class=""exp-image""><div class=""question-area""><b>Is there a person?</b></div></div>","0","person_check","physical_activity_semantic","3","","","","","","","","",""
"","","","","","html-keyboard-response","178","710990","0.0-178.0","null","","<div class=""stimulus-container""><img src=""images/semantic_sequence/physical_activity_semantic/physical_activity_semantic_4.png"" class=""exp-image""></div>","null","","","","","","","","","","","",""
"","","","","","html-button-response","179","711304","0.0-179.0","312","","<div class=""stimulus-container""><img src=""images/semantic_sequence/physical_activity_semantic/physical_activity_semantic_4.png"" class=""exp-image""><div class=""question-area""><b>Is there a person?</b></div></div>","0","person_check","physical_activity_semantic","4","","","","","","","","",""
"","","","","","html-keyboard-response","180","715307","0.0-180.0","null","","<div class=""stimulus-container""><img src=""images/semantic_sequence/physical_activity_semantic/physical_activity_semantic_5.png"" class=""exp-image""></div>","null","","","","","","","","","","","",""
"","","","","","html-button-response","181","715897","0.0-181.0","588","","<div class=""stimulus-container""><img src=""images/semantic_sequence/physical_activity_semantic/physical_activity_semantic_5.png"" class=""exp-image""><div class=""question-area""><b>Is there a person?</b></div></div>","0","person_check","physical_activity_semantic","5","","","","","","","","",""
"","","","","","html-keyboard-response","182","719901","0.0-182.0","null","","<div class=""stimulus-container""><img src=""images/semantic_sequence/physical_activity_semantic/physical_activity_semantic_6.png"" class=""exp-image""></div>","null","","","","","","","","","","","",""
"","","","","","html-button-response","183","720201","0.0-183.0","297","","<div class=""stimulus-container""><img src=""images/semantic_sequence/physical_activity_semantic/physical_activity_semantic_6.png"" class=""exp-image""><div class=""question-area""><b>Is there a person?</b></div></div>","0","person_check","physical_activity_semantic","6","","","","","","","","",""
"","","","","","html-keyboard-response","184","724204","0.0-184.0","null","","<div class=""stimulus-container""><img src=""images/semantic_sequence/physical_activity_semantic/physical_activity_semantic_7.png"" class=""exp-image""></div>","null","","","","","","","","","","","",""
"","","","","","html-button-response","185","724561","0.0-185.0","354","","<div class=""stimulus-container""><img src=""images/semantic_sequence/physical_activity_semantic/physical_activity_semantic_7.png"" class=""exp-image""><div class=""question-area""><b>Is there a person?</b></div></div>","0","person_check","physical_activity_semantic","7","","","","","","","","",""
"","","","","","html-keyboard-response","186","728565","0.0-186.0","null","","<div class=""stimulus-container""><img src=""images/semantic_sequence/physical_activity_semantic/physical_activity_semantic_8.png"" class=""exp-image""></div>","null","","","","","","","","","","","",""
"","","","","","html-button-response","187","728933","0.0-187.0","367","","<div class=""stimulus-container""><img src=""images/semantic_sequence/physical_activity_semantic/physical_activity_semantic_8.png"" class=""exp-image""><div class=""question-area""><b>Is there a person?</b></div></div>","0","person_check","physical_activity_semantic","8","","","","","","","","",""
"","","","","","html-keyboard-response","188","732936","0.0-188.0","null","","<div class=""stimulus-container""><img src=""images/semantic_sequence/physical_activity_semantic/physical_activity_semantic_9.png"" class=""exp-image""></div>","null","","","","","","","","","","","",""
"","","","","","html-button-response","189","733270","0.0-189.0","332","","<div class=""stimulus-container""><img src=""images/semantic_sequence/physical_activity_semantic/physical_activity_semantic_9.png"" class=""exp-image""><div class=""question-area""><b>Is there a person?</b></div></div>","0","person_check","physical_activity_semantic","9","","","","","","","","",""
"","","","","","html-keyboard-response","190","737272","0.0-190.0","null","","<div class=""stimulus-container""><img src=""images/semantic_sequence/physical_activity_semantic/physical_activity_semantic_ten.png"" class=""exp-image""></div>","null","","","","","","","","","","","",""
"","","","","","html-button-response","191","737676","0.0-191.0","402","","<div class=""stimulus-container""><img src=""images/semantic_sequence/physical_activity_semantic/physical_activity_semantic_ten.png"" class=""exp-image""><div class=""question-area""><b>Is there a person?</b></div></div>","0","person_check","physical_activity_semantic","10","","","","","","","","",""
"","","","","","html-keyboard-response","192","740679","0.0-192.0","null","","<div style=""background-color: white; width: 100vw; height: 100vh;""></div>","null","","","","","","","","","","","",""
"","","","","","html-keyboard-response","193","744683","0.0-193.0","null","","<div class=""stimulus-container""><img src=""images/causal_sequence/package_causal/package_causal_1.png"" class=""exp-image""></div>","null","","","","","","","","","","","",""
"","","","","","html-button-response","194","745171","0.0-194.0","486","","<div class=""stimulus-container""><img src=""images/causal_sequence/package_causal/package_causal_1.png"" class=""exp-image""><div class=""question-area""><b>Is there a person?</b></div></div>","0","person_check","package_causal","1","","","","","","","","",""
"","","","","","html-keyboard-response","195","749175","0.0-195.0","null","","<div class=""stimulus-container""><img src=""images/causal_sequence/package_causal/package_causal_2.png"" class=""exp-image""></div>","null","","","","","","","","","","","",""
"","","","","","html-button-response","196","749411","0.0-196.0","234","","<div class=""stimulus-container""><img src=""images/causal_sequence/package_causal/package_causal_2.png"" class=""exp-image""><div class=""question-area""><b>Is there a person?</b></div></div>","0","person_check","package_causal","2","","","","","","","","",""
"","","","","","html-keyboard-response","197","753414","0.0-197.0","null","","<div class=""stimulus-container""><img src=""images/causal_sequence/package_causal/package_causal_3.png"" class=""exp-image""></div>","null","","","","","","","","","","","",""
"","","","","","html-button-response","198","753846","0.0-198.0","430","","<div class=""stimulus-container""><img src=""images/causal_sequence/package_causal/package_causal_3.png"" class=""exp-image""><div class=""question-area""><b>Is there a person?</b></div></div>","0","person_check","package_causal","3","","","","","","","","",""
"","","","","","html-keyboard-response","199","757850","0.0-199.0","null","","<div class=""stimulus-container""><img src=""images/causal_sequence/package_causal/package_causal_4.png"" class=""exp-image""></div>","null","","","","","","","","","","","",""
"","","","","","html-button-response","200","758279","0.0-200.0","427","","<div class=""stimulus-container""><img src=""images/causal_sequence/package_causal/package_causal_4.png"" class=""exp-image""><div class=""question-area""><b>Is there a person?</b></div></div>","1","person_check","package_causal","4","","","","","","","","",""
"","","","","","html-keyboard-response","201","762283","0.0-201.0","null","","<div class=""stimulus-container""><img src=""images/causal_sequence/package_causal/package_causal_5.png"" class=""exp-image""></div>","null","","","","","","","","","","","",""
"","","","","","html-button-response","202","762916","0.0-202.0","630","","<div class=""stimulus-container""><img src=""images/causal_sequence/package_causal/package_causal_5.png"" class=""exp-image""><div class=""question-area""><b>Is there a person?</b></div></div>","0","person_check","package_causal","5","","","","","","","","",""
"","","","","","html-keyboard-response","203","766919","0.0-203.0","null","","<div class=""stimulus-container""><img src=""images/causal_sequence/package_causal/package_causal_6.png"" class=""exp-image""></div>","null","","","","","","","","","","","",""
"","","","","","html-button-response","204","767297","0.0-204.0","376","","<div class=""stimulus-container""><img src=""images/causal_sequence/package_causal/package_causal_6.png"" class=""exp-image""><div class=""question-area""><b>Is there a person?</b></div></div>","0","person_check","package_causal","6","","","","","","","","",""
"","","","","","html-keyboard-response","205","771300","0.0-205.0","null","","<div class=""stimulus-container""><img src=""images/causal_sequence/package_causal/package_causal_7.png"" class=""exp-image""></div>","null","","","","","","","","","","","",""
"","","","","","html-button-response","206","771742","0.0-206.0","440","","<div class=""stimulus-container""><img src=""images/causal_sequence/package_causal/package_causal_7.png"" class=""exp-image""><div class=""question-area""><b>Is there a person?</b></div></div>","0","person_check","package_causal","7","","","","","","","","",""
"","","","","","html-keyboard-response","207","775745","0.0-207.0","null","","<div class=""stimulus-container""><img src=""images/causal_sequence/package_causal/package_causal_8.png"" class=""exp-image""></div>","null","","","","","","","","","","","",""
"","","","","","html-button-response","208","776092","0.0-208.0","345","","<div class=""stimulus-container""><img src=""images/causal_sequence/package_causal/package_causal_8.png"" class=""exp-image""><div class=""question-area""><b>Is there a person?</b></div></div>","0","person_check","package_causal","8","","","","","","","","",""
"","","","","","html-keyboard-response","209","780095","0.0-209.0","null","","<div class=""stimulus-container""><img src=""images/causal_sequence/package_causal/package_causal_9.png"" class=""exp-image""></div>","null","","","","","","","","","","","",""
"","","","","","html-button-response","210","780403","0.0-210.0","306","","<div class=""stimulus-container""><img src=""images/causal_sequence/package_causal/package_causal_9.png"" class=""exp-image""><div class=""question-area""><b>Is there a person?</b></div></div>","0","person_check","package_causal","9","","","","","","","","",""
"","","","","","html-keyboard-response","211","784406","0.0-211.0","null","","<div class=""stimulus-container""><img src=""images/causal_sequence/package_causal/package_causal_ten.png"" class=""exp-image""></div>","null","","","","","","","","","","","",""
"","","","","","html-button-response","212","784807","0.0-212.0","398","","<div class=""stimulus-container""><img src=""images/causal_sequence/package_causal/package_causal_ten.png"" class=""exp-image""><div class=""question-area""><b>Is there a person?</b></div></div>","0","person_check","package_causal","10","","","","","","","","",""
"","","","","","html-keyboard-response","213","787810","0.0-213.0","null","","<div style=""background-color: white; width: 100vw; height: 100vh;""></div>","null","","","","","","","","","","","",""
"","","","","","html-keyboard-response","214","791814","0.0-214.0","null","","<div class=""stimulus-container""><img src=""images/schematic_sequence/interview_scheme/interview_scheme_1.png"" class=""exp-image""></div>","null","","","","","","","","","","","",""
"","","","","","html-button-response","215","792303","0.0-215.0","486","","<div class=""stimulus-container""><img src=""images/schematic_sequence/interview_scheme/interview_scheme_1.png"" class=""exp-image""><div class=""question-area""><b>Is there a person?</b></div></div>","1","person_check","interview_scheme","1","","","","","","","","",""
"","","","","","html-keyboard-response","216","796306","0.0-216.0","null","","<div class=""stimulus-container""><img src=""images/schematic_sequence/interview_scheme/interview_scheme_2.png"" class=""exp-image""></div>","null","","","","","","","","","","","",""
"","","","","","html-button-response","217","797208","0.0-217.0","899","","<div class=""stimulus-container""><img src=""images/schematic_sequence/interview_scheme/interview_scheme_2.png"" class=""exp-image""><div class=""question-area""><b>Is there a person?</b></div></div>","1","person_check","interview_scheme","2","","","","","","","","",""
"","","","","","html-keyboard-response","218","801211","0.0-218.0","null","","<div class=""stimulus-container""><img src=""images/schematic_sequence/interview_scheme/interview_scheme_3.png"" class=""exp-image""></div>","null","","","","","","","","","","","",""
"","","","","","html-button-response","219","801806","0.0-219.0","592","","<div class=""stimulus-container""><img src=""images/schematic_sequence/interview_scheme/interview_scheme_3.png"" class=""exp-image""><div class=""question-area""><b>Is there a person?</b></div></div>","1","person_check","interview_scheme","3","","","","","","","","",""
"","","","","","html-keyboard-response","220","805808","0.0-220.0","null","","<div class=""stimulus-container""><img src=""images/schematic_sequence/interview_scheme/interview_scheme_4.png"" class=""exp-image""></div>","null","","","","","","","","","","","",""
"","","","","","html-button-response","221","806681","0.0-221.0","870","","<div class=""stimulus-container""><img src=""images/schematic_sequence/interview_scheme/interview_scheme_4.png"" class=""exp-image""><div class=""question-area""><b>Is there a person?</b></div></div>","1","person_check","interview_scheme","4","","","","","","","","",""
"","","","","","html-keyboard-response","222","810683","0.0-222.0","null","","<div class=""stimulus-container""><img src=""images/schematic_sequence/interview_scheme/interview_scheme_5.png"" class=""exp-image""></div>","null","","","","","","","","","","","",""
"","","","","","html-button-response","223","812023","0.0-223.0","1339","","<div class=""stimulus-container""><img src=""images/schematic_sequence/interview_scheme/interview_scheme_5.png"" class=""exp-image""><div class=""question-area""><b>Is there a person?</b></div></div>","0","person_check","interview_scheme","5","","","","","","","","",""
"","","","","","html-keyboard-response","224","816026","0.0-224.0","null","","<div class=""stimulus-container""><img src=""images/schematic_sequence/interview_scheme/interview_scheme_6.png"" class=""exp-image""></div>","null","","","","","","","","","","","",""
"","","","","","html-button-response","225","817544","0.0-225.0","1516","","<div class=""stimulus-container""><img src=""images/schematic_sequence/interview_scheme/interview_scheme_6.png"" class=""exp-image""><div class=""question-area""><b>Is there a person?</b></div></div>","0","person_check","interview_scheme","6","","","","","","","","",""
"","","","","","html-keyboard-response","226","821547","0.0-226.0","null","","<div class=""stimulus-container""><img src=""images/schematic_sequence/interview_scheme/interview_scheme_7.png"" class=""exp-image""></div>","null","","","","","","","","","","","",""
"","","","","","html-button-response","227","822400","0.0-227.0","850","","<div class=""stimulus-container""><img src=""images/schematic_sequence/interview_scheme/interview_scheme_7.png"" class=""exp-image""><div class=""question-area""><b>Is there a person?</b></div></div>","0","person_check","interview_scheme","7","","","","","","","","",""
"","","","","","html-keyboard-response","228","826403","0.0-228.0","null","","<div class=""stimulus-container""><img src=""images/schematic_sequence/interview_scheme/interview_scheme_8.png"" class=""exp-image""></div>","null","","","","","","","","","","","",""
"","","","","","html-button-response","229","827305","0.0-229.0","900","","<div class=""stimulus-container""><img src=""images/schematic_sequence/interview_scheme/interview_scheme_8.png"" class=""exp-image""><div class=""question-area""><b>Is there a person?</b></div></div>","0","person_check","interview_scheme","8","","","","","","","","",""
"","","","","","html-keyboard-response","230","831308","0.0-230.0","null","","<div class=""stimulus-container""><img src=""images/schematic_sequence/interview_scheme/interview_scheme_9.png"" class=""exp-image""></div>","null","","","","","","","","","","","",""
"","","","","","html-button-response","231","832915","0.0-231.0","1605","","<div class=""stimulus-container""><img src=""images/schematic_sequence/interview_scheme/interview_scheme_9.png"" class=""exp-image""><div class=""question-area""><b>Is there a person?</b></div></div>","0","person_check","interview_scheme","9","","","","","","","","",""
"","","","","","html-keyboard-response","232","836918","0.0-232.0","null","","<div class=""stimulus-container""><img src=""images/schematic_sequence/interview_scheme/interview_scheme_ten.png"" class=""exp-image""></div>","null","","","","","","","","","","","",""
"","","","","","html-button-response","233","840005","0.0-233.0","3085","","<div class=""stimulus-container""><img src=""images/schematic_sequence/interview_scheme/interview_scheme_ten.png"" class=""exp-image""><div class=""question-area""><b>Is there a person?</b></div></div>","0","person_check","interview_scheme","10","","","","","","","","",""
"","","","","","html-keyboard-response","234","843007","0.0-234.0","null","","<div style=""background-color: white; width: 100vw; height: 100vh;""></div>","null","","","","","","","","","","","",""
"","","","","","html-keyboard-response","235","847010","0.0-235.0","null","","<div class=""stimulus-container""><img src=""images/semantic_sequence/housework_semantic/housework_semantic_1.png"" class=""exp-image""></div>","null","","","","","","","","","","","",""
"","","","","","html-button-response","236","848648","0.0-236.0","1505","","<div class=""stimulus-container""><img src=""images/semantic_sequence/housework_semantic/housework_semantic_1.png"" class=""exp-image""><div class=""question-area""><b>Is there a person?</b></div></div>","1","person_check","housework_semantic","1","","","","","","","","",""
"","","","","","html-keyboard-response","237","852651","0.0-237.0","null","","<div class=""stimulus-container""><img src=""images/semantic_sequence/housework_semantic/housework_semantic_2.png"" class=""exp-image""></div>","null","","","","","","","","","","","",""
"","","","","","html-button-response","238","853416","0.0-238.0","763","","<div class=""stimulus-container""><img src=""images/semantic_sequence/housework_semantic/housework_semantic_2.png"" class=""exp-image""><div class=""question-area""><b>Is there a person?</b></div></div>","0","person_check","housework_semantic","2","","","","","","","","",""
"","","","","","html-keyboard-response","239","857419","0.0-239.0","null","","<div class=""stimulus-container""><img src=""images/semantic_sequence/housework_semantic/housework_semantic_3.png"" class=""exp-image""></div>","null","","","","","","","","","","","",""
"","","","","","html-button-response","240","859240","0.0-240.0","1819","","<div class=""stimulus-container""><img src=""images/semantic_sequence/housework_semantic/housework_semantic_3.png"" class=""exp-image""><div class=""question-area""><b>Is there a person?</b></div></div>","0","person_check","housework_semantic","3","","","","","","","","",""
"","","","","","html-keyboard-response","241","863244","0.0-241.0","null","","<div class=""stimulus-container""><img src=""images/semantic_sequence/housework_semantic/housework_semantic_4.png"" class=""exp-image""></div>","null","","","","","","","","","","","",""
"","","","","","html-button-response","242","863577","0.0-242.0","331","","<div class=""stimulus-container""><img src=""images/semantic_sequence/housework_semantic/housework_semantic_4.png"" class=""exp-image""><div class=""question-area""><b>Is there a person?</b></div></div>","0","person_check","housework_semantic","4","","","","","","","","",""
"","","","","","html-keyboard-response","243","867580","0.0-243.0","null","","<div class=""stimulus-container""><img src=""images/semantic_sequence/housework_semantic/housework_semantic_5.png"" class=""exp-image""></div>","null","","","","","","","","","","","",""
"","","","","","html-button-response","244","867874","0.0-244.0","291","","<div class=""stimulus-container""><img src=""images/semantic_sequence/housework_semantic/housework_semantic_5.png"" class=""exp-image""><div class=""question-area""><b>Is there a person?</b></div></div>","0","person_check","housework_semantic","5","","","","","","","","",""
"","","","","","html-keyboard-response","245","871877","0.0-245.0","null","","<div class=""stimulus-container""><img src=""images/semantic_sequence/housework_semantic/housework_semantic_6.png"" class=""exp-image""></div>","null","","","","","","","","","","","",""
"","","","","","html-button-response","246","872072","0.0-246.0","192","","<div class=""stimulus-container""><img src=""images/semantic_sequence/housework_semantic/housework_semantic_6.png"" class=""exp-image""><div class=""question-area""><b>Is there a person?</b></div></div>","0","person_check","housework_semantic","6","","","","","","","","",""
"","","","","","html-keyboard-response","247","876075","0.0-247.0","null","","<div class=""stimulus-container""><img src=""images/semantic_sequence/housework_semantic/housework_semantic_7.png"" class=""exp-image""></div>","null","","","","","","","","","","","",""
"","","","","","html-button-response","248","876536","0.0-248.0","460","","<div class=""stimulus-container""><img src=""images/semantic_sequence/housework_semantic/housework_semantic_7.png"" class=""exp-image""><div class=""question-area""><b>Is there a person?</b></div></div>","0","person_check","housework_semantic","7","","","","","","","","",""
"","","","","","html-keyboard-response","249","880539","0.0-249.0","null","","<div class=""stimulus-container""><img src=""images/semantic_sequence/housework_semantic/housework_semantic_8.png"" class=""exp-image""></div>","null","","","","","","","","","","","",""
"","","","","","html-button-response","250","880952","0.0-250.0","411","","<div class=""stimulus-container""><img src=""images/semantic_sequence/housework_semantic/housework_semantic_8.png"" class=""exp-image""><div class=""question-area""><b>Is there a person?</b></div></div>","0","person_check","housework_semantic","8","","","","","","","","",""
"","","","","","html-keyboard-response","251","884956","0.0-251.0","null","","<div class=""stimulus-container""><img src=""images/semantic_sequence/housework_semantic/housework_semantic_9.png"" class=""exp-image""></div>","null","","","","","","","","","","","",""
"","","","","","html-button-response","252","885349","0.0-252.0","391","","<div class=""stimulus-container""><img src=""images/semantic_sequence/housework_semantic/housework_semantic_9.png"" class=""exp-image""><div class=""question-area""><b>Is there a person?</b></div></div>","0","person_check","housework_semantic","9","","","","","","","","",""
"","","","","","html-keyboard-response","253","889352","0.0-253.0","null","","<div class=""stimulus-container""><img src=""images/semantic_sequence/housework_semantic/housework_semantic_ten.png"" class=""exp-image""></div>","null","","","","","","","","","","","",""
"","","","","","html-button-response","254","889734","0.0-254.0","379","","<div class=""stimulus-container""><img src=""images/semantic_sequence/housework_semantic/housework_semantic_ten.png"" class=""exp-image""><div class=""question-area""><b>Is there a person?</b></div></div>","0","person_check","housework_semantic","10","","","","","","","","",""
"","","","","","html-keyboard-response","255","892737","0.0-255.0","null","","<div style=""background-color: white; width: 100vw; height: 100vh;""></div>","null","","","","","","","","","","","",""
"","","","","","html-keyboard-response","256","896740","0.0-256.0","null","","<div class=""stimulus-container""><img src=""images/causal_sequence/coin_causal/coin_causal_1.png"" class=""exp-image""></div>","null","","","","","","","","","","","",""
"","","","","","html-button-response","257","897124","0.0-257.0","382","","<div class=""stimulus-container""><img src=""images/causal_sequence/coin_causal/coin_causal_1.png"" class=""exp-image""><div class=""question-area""><b>Is there a person?</b></div></div>","0","person_check","coin_causal","1","","","","","","","","",""
"","","","","","html-keyboard-response","258","901127","0.0-258.0","null","","<div class=""stimulus-container""><img src=""images/causal_sequence/coin_causal/coin_causal_2.png"" class=""exp-image""></div>","null","","","","","","","","","","","",""
"","","","","","html-button-response","259","901845","0.0-259.0","716","","<div class=""stimulus-container""><img src=""images/causal_sequence/coin_causal/coin_causal_2.png"" class=""exp-image""><div class=""question-area""><b>Is there a person?</b></div></div>","0","person_check","coin_causal","2","","","","","","","","",""
"","","","","","html-keyboard-response","260","905847","0.0-260.0","null","","<div class=""stimulus-container""><img src=""images/causal_sequence/coin_causal/coin_causal_3.png"" class=""exp-image""></div>","null","","","","","","","","","","","",""
"","","","","","html-button-response","261","907102","0.0-261.0","1253","","<div class=""stimulus-container""><img src=""images/causal_sequence/coin_causal/coin_causal_3.png"" class=""exp-image""><div class=""question-area""><b>Is there a person?</b></div></div>","0","person_check","coin_causal","3","","","","","","","","",""
"","","","","","html-keyboard-response","262","911105","0.0-262.0","null","","<div class=""stimulus-container""><img src=""images/causal_sequence/coin_causal/coin_causal_4.png"" class=""exp-image""></div>","null","","","","","","","","","","","",""
"","","","","","html-button-response","263","911421","0.0-263.0","314","","<div class=""stimulus-container""><img src=""images/causal_sequence/coin_causal/coin_causal_4.png"" class=""exp-image""><div class=""question-area""><b>Is there a person?</b></div></div>","0","person_check","coin_causal","4","","","","","","","","",""
"","","","","","html-keyboard-response","264","915425","0.0-264.0","null","","<div class=""stimulus-container""><img src=""images/causal_sequence/coin_causal/coin_causal_5.png"" class=""exp-image""></div>","null","","","","","","","","","","","",""
"","","","","","html-button-response","265","915641","0.0-265.0","214","","<div class=""stimulus-container""><img src=""images/causal_sequence/coin_causal/coin_causal_5.png"" class=""exp-image""><div class=""question-area""><b>Is there a person?</b></div></div>","0","person_check","coin_causal","5","","","","","","","","",""
"","","","","","html-keyboard-response","266","919644","0.0-266.0","null","","<div class=""stimulus-container""><img src=""images/causal_sequence/coin_causal/coin_causal_6.png"" class=""exp-image""></div>","null","","","","","","","","","","","",""
"","","","","","html-button-response","267","920001","0.0-267.0","355","","<div class=""stimulus-container""><img src=""images/causal_sequence/coin_causal/coin_causal_6.png"" class=""exp-image""><div class=""question-area""><b>Is there a person?</b></div></div>","0","person_check","coin_causal","6","","","","","","","","",""
"","","","","","html-keyboard-response","268","924003","0.0-268.0","null","","<div class=""stimulus-container""><img src=""images/causal_sequence/coin_causal/coin_causal_7.png"" class=""exp-image""></div>","null","","","","","","","","","","","",""
"","","","","","html-button-response","269","924587","0.0-269.0","582","","<div class=""stimulus-container""><img src=""images/causal_sequence/coin_causal/coin_causal_7.png"" class=""exp-image""><div class=""question-area""><b>Is there a person?</b></div></div>","1","person_check","coin_causal","7","","","","","","","","",""
"","","","","","html-keyboard-response","270","928589","0.0-270.0","null","","<div class=""stimulus-container""><img src=""images/causal_sequence/coin_causal/coin_causal_8.png"" class=""exp-image""></div>","null","","","","","","","","","","","",""
"","","","","","html-button-response","271","929103","0.0-271.0","512","","<div class=""stimulus-container""><img src=""images/causal_sequence/coin_causal/coin_causal_8.png"" class=""exp-image""><div class=""question-area""><b>Is there a person?</b></div></div>","0","person_check","coin_causal","8","","","","","","","","",""
"","","","","","html-keyboard-response","272","933106","0.0-272.0","null","","<div class=""stimulus-container""><img src=""images/causal_sequence/coin_causal/coin_causal_9.png"" class=""exp-image""></div>","null","","","","","","","","","","","",""
"","","","","","html-button-response","273","933406","0.0-273.0","298","","<div class=""stimulus-container""><img src=""images/causal_sequence/coin_causal/coin_causal_9.png"" class=""exp-image""><div class=""question-area""><b>Is there a person?</b></div></div>","0","person_check","coin_causal","9","","","","","","","","",""
"","","","","","html-keyboard-response","274","937409","0.0-274.0","null","","<div class=""stimulus-container""><img src=""images/causal_sequence/coin_causal/coin_causal_ten.png"" class=""exp-image""></div>","null","","","","","","","","","","","",""
"","","","","","html-button-response","275","937743","0.0-275.0","332","","<div class=""stimulus-container""><img src=""images/causal_sequence/coin_causal/coin_causal_ten.png"" class=""exp-image""><div class=""question-area""><b>Is there a person?</b></div></div>","0","person_check","coin_causal","10","","","","","","","","",""
"","","","","","html-keyboard-response","276","940746","0.0-276.0","null","","<div style=""background-color: white; width: 100vw; height: 100vh;""></div>","null","","","","","","","","","","","",""
"","","","","","html-keyboard-response","277","944749","0.0-277.0","null","","<div class=""stimulus-container""><img src=""images/semantic_sequence/visiting_cities_semantic/visiting_cities_semantic_1.png"" class=""exp-image""></div>","null","","","","","","","","","","","",""
"","","","","","html-button-response","278","945114","0.0-278.0","362","","<div class=""stimulus-container""><img src=""images/semantic_sequence/visiting_cities_semantic/visiting_cities_semantic_1.png"" class=""exp-image""><div class=""question-area""><b>Is there a person?</b></div></div>","0","person_check","visiting_cities_semantic","1","","","","","","","","",""
"","","","","","html-keyboard-response","279","949117","0.0-279.0","null","","<div class=""stimulus-container""><img src=""images/semantic_sequence/visiting_cities_semantic/visiting_cities_semantic_2.png"" class=""exp-image""></div>","null","","","","","","","","","","","",""
"","","","","","html-button-response","280","949793","0.0-280.0","674","","<div class=""stimulus-container""><img src=""images/semantic_sequence/visiting_cities_semantic/visiting_cities_semantic_2.png"" class=""exp-image""><div class=""question-area""><b>Is there a person?</b></div></div>","1","person_check","visiting_cities_semantic","2","","","","","","","","",""
"","","","","","html-keyboard-response","281","953796","0.0-281.0","null","","<div class=""stimulus-container""><img src=""images/semantic_sequence/visiting_cities_semantic/visiting_cities_semantic_3.png"" class=""exp-image""></div>","null","","","","","","","","","","","",""
"","","","","","html-button-response","282","954185","0.0-282.0","386","","<div class=""stimulus-container""><img src=""images/semantic_sequence/visiting_cities_semantic/visiting_cities_semantic_3.png"" class=""exp-image""><div class=""question-area""><b>Is there a person?</b></div></div>","1","person_check","visiting_cities_semantic","3","","","","","","","","",""
"","","","","","html-keyboard-response","283","958188","0.0-283.0","null","","<div class=""stimulus-container""><img src=""images/semantic_sequence/visiting_cities_semantic/visiting_cities_semantic_4.png"" class=""exp-image""></div>","null","","","","","","","","","","","",""
"","","","","","html-button-response","284","958502","0.0-284.0","311","","<div class=""stimulus-container""><img src=""images/semantic_sequence/visiting_cities_semantic/visiting_cities_semantic_4.png"" class=""exp-image""><div class=""question-area""><b>Is there a person?</b></div></div>","1","person_check","visiting_cities_semantic","4","","","","","","","","",""
"","","","","","html-keyboard-response","285","962505","0.0-285.0","null","","<div class=""stimulus-container""><img src=""images/semantic_sequence/visiting_cities_semantic/visiting_cities_semantic_5.png"" class=""exp-image""></div>","null","","","","","","","","","","","",""
"","","","","","html-button-response","286","962855","0.0-286.0","349","","<div class=""stimulus-container""><img src=""images/semantic_sequence/visiting_cities_semantic/visiting_cities_semantic_5.png"" class=""exp-image""><div class=""question-area""><b>Is there a person?</b></div></div>","1","person_check","visiting_cities_semantic","5","","","","","","","","",""
"","","","","","html-keyboard-response","287","966859","0.0-287.0","null","","<div class=""stimulus-container""><img src=""images/semantic_sequence/visiting_cities_semantic/visiting_cities_semantic_6.png"" class=""exp-image""></div>","null","","","","","","","","","","","",""
"","","","","","html-button-response","288","967181","0.0-288.0","320","","<div class=""stimulus-container""><img src=""images/semantic_sequence/visiting_cities_semantic/visiting_cities_semantic_6.png"" class=""exp-image""><div class=""question-area""><b>Is there a person?</b></div></div>","1","person_check","visiting_cities_semantic","6","","","","","","","","",""
"","","","","","html-keyboard-response","289","971184","0.0-289.0","null","","<div class=""stimulus-container""><img src=""images/semantic_sequence/visiting_cities_semantic/visiting_cities_semantic_7.png"" class=""exp-image""></div>","null","","","","","","","","","","","",""
"","","","","","html-button-response","290","971518","0.0-290.0","332","","<div class=""stimulus-container""><img src=""images/semantic_sequence/visiting_cities_semantic/visiting_cities_semantic_7.png"" class=""exp-image""><div class=""question-area""><b>Is there a person?</b></div></div>","0","person_check","visiting_cities_semantic","7","","","","","","","","",""
"","","","","","html-keyboard-response","291","975520","0.0-291.0","null","","<div class=""stimulus-container""><img src=""images/semantic_sequence/visiting_cities_semantic/visiting_cities_semantic_8.png"" class=""exp-image""></div>","null","","","","","","","","","","","",""
"","","","","","html-button-response","292","976291","0.0-292.0","770","","<div class=""stimulus-container""><img src=""images/semantic_sequence/visiting_cities_semantic/visiting_cities_semantic_8.png"" class=""exp-image""><div class=""question-area""><b>Is there a person?</b></div></div>","0","person_check","visiting_cities_semantic","8","","","","","","","","",""
"","","","","","html-keyboard-response","293","980294","0.0-293.0","null","","<div class=""stimulus-container""><img src=""images/semantic_sequence/visiting_cities_semantic/visiting_cities_semantic_9.png"" class=""exp-image""></div>","null","","","","","","","","","","","",""
"","","","","","html-button-response","294","980986","0.0-294.0","690","","<div class=""stimulus-container""><img src=""images/semantic_sequence/visiting_cities_semantic/visiting_cities_semantic_9.png"" class=""exp-image""><div class=""question-area""><b>Is there a person?</b></div></div>","0","person_check","visiting_cities_semantic","9","","","","","","","","",""
"","","","","","html-keyboard-response","295","984989","0.0-295.0","null","","<div class=""stimulus-container""><img src=""images/semantic_sequence/visiting_cities_semantic/visiting_cities_semantic_ten.png"" class=""exp-image""></div>","null","","","","","","","","","","","",""
"","","","","","html-button-response","296","985505","0.0-296.0","513","","<div class=""stimulus-container""><img src=""images/semantic_sequence/visiting_cities_semantic/visiting_cities_semantic_ten.png"" class=""exp-image""><div class=""question-area""><b>Is there a person?</b></div></div>","0","person_check","visiting_cities_semantic","10","","","","","","","","",""
"","","","","","html-keyboard-response","297","988507","0.0-297.0","null","","<div style=""background-color: white; width: 100vw; height: 100vh;""></div>","null","","","","","","","","","","","",""
"","","","","","html-keyboard-response","298","992510","0.0-298.0","null","","<div class=""stimulus-container""><img src=""images/schematic_sequence/hotel_scheme/hotel_scheme_1.png"" class=""exp-image""></div>","null","","","","","","","","","","","",""
"","","","","","html-button-response","299","992978","0.0-299.0","467","","<div class=""stimulus-container""><img src=""images/schematic_sequence/hotel_scheme/hotel_scheme_1.png"" class=""exp-image""><div class=""question-area""><b>Is there a person?</b></div></div>","1","person_check","hotel_scheme","1","","","","","","","","",""
"","","","","","html-keyboard-response","300","996980","0.0-300.0","null","","<div class=""stimulus-container""><img src=""images/schematic_sequence/hotel_scheme/hotel_scheme_2.png"" class=""exp-image""></div>","null","","","","","","","","","","","",""
"","","","","","html-button-response","301","997666","0.0-301.0","685","","<div class=""stimulus-container""><img src=""images/schematic_sequence/hotel_scheme/hotel_scheme_2.png"" class=""exp-image""><div class=""question-area""><b>Is there a person?</b></div></div>","0","person_check","hotel_scheme","2","","","","","","","","",""
"","","","","","html-keyboard-response","302","1001669","0.0-302.0","null","","<div class=""stimulus-container""><img src=""images/schematic_sequence/hotel_scheme/hotel_scheme_3.png"" class=""exp-image""></div>","null","","","","","","","","","","","",""
"","","","","","html-button-response","303","1002170","0.0-303.0","499","","<div class=""stimulus-container""><img src=""images/schematic_sequence/hotel_scheme/hotel_scheme_3.png"" class=""exp-image""><div class=""question-area""><b>Is there a person?</b></div></div>","0","person_check","hotel_scheme","3","","","","","","","","",""
"","","","","","html-keyboard-response","304","1006173","0.0-304.0","null","","<div class=""stimulus-container""><img src=""images/schematic_sequence/hotel_scheme/hotel_scheme_4.png"" class=""exp-image""></div>","null","","","","","","","","","","","",""
"","","","","","html-button-response","305","1006835","0.0-305.0","660","","<div class=""stimulus-container""><img src=""images/schematic_sequence/hotel_scheme/hotel_scheme_4.png"" class=""exp-image""><div class=""question-area""><b>Is there a person?</b></div></div>","1","person_check","hotel_scheme","4","","","","","","","","",""
"","","","","","html-keyboard-response","306","1010838","0.0-306.0","null","","<div class=""stimulus-container""><img src=""images/schematic_sequence/hotel_scheme/hotel_scheme_5.png"" class=""exp-image""></div>","null","","","","","","","","","","","",""
"","","","","","html-button-response","307","1011772","0.0-307.0","931","","<div class=""stimulus-container""><img src=""images/schematic_sequence/hotel_scheme/hotel_scheme_5.png"" class=""exp-image""><div class=""question-area""><b>Is there a person?</b></div></div>","0","person_check","hotel_scheme","5","","","","","","","","",""
"","","","","","html-keyboard-response","308","1015775","0.0-308.0","null","","<div class=""stimulus-container""><img src=""images/schematic_sequence/hotel_scheme/hotel_scheme_6.png"" class=""exp-image""></div>","null","","","","","","","","","","","",""
"","","","","","html-button-response","309","1016123","0.0-309.0","345","","<div class=""stimulus-container""><img src=""images/schematic_sequence/hotel_scheme/hotel_scheme_6.png"" class=""exp-image""><div class=""question-area""><b>Is there a person?</b></div></div>","0","person_check","hotel_scheme","6","","","","","","","","",""
"","","","","","html-keyboard-response","310","1020127","0.0-310.0","null","","<div class=""stimulus-container""><img src=""images/schematic_sequence/hotel_scheme/hotel_scheme_7.png"" class=""exp-image""></div>","null","","","","","","","","","","","",""
"","","","","","html-button-response","311","1020816","0.0-311.0","686","","<div class=""stimulus-container""><img src=""images/schematic_sequence/hotel_scheme/hotel_scheme_7.png"" class=""exp-image""><div class=""question-area""><b>Is there a person?</b></div></div>","0","person_check","hotel_scheme","7","","","","","","","","",""
"","","","","","html-keyboard-response","312","1024819","0.0-312.0","null","","<div class=""stimulus-container""><img src=""images/schematic_sequence/hotel_scheme/hotel_scheme_8.png"" class=""exp-image""></div>","null","","","","","","","","","","","",""
"","","","","","html-button-response","313","1025177","0.0-313.0","355","","<div class=""stimulus-container""><img src=""images/schematic_sequence/hotel_scheme/hotel_scheme_8.png"" class=""exp-image""><div class=""question-area""><b>Is there a person?</b></div></div>","0","person_check","hotel_scheme","8","","","","","","","","",""
"","","","","","html-keyboard-response","314","1029181","0.0-314.0","null","","<div class=""stimulus-container""><img src=""images/schematic_sequence/hotel_scheme/hotel_scheme_9.png"" class=""exp-image""></div>","null","","","","","","","","","","","",""
"","","","","","html-button-response","315","1029350","0.0-315.0","166","","<div class=""stimulus-container""><img src=""images/schematic_sequence/hotel_scheme/hotel_scheme_9.png"" class=""exp-image""><div class=""question-area""><b>Is there a person?</b></div></div>","0","person_check","hotel_scheme","9","","","","","","","","",""
"","","","","","html-keyboard-response","316","1033353","0.0-316.0","null","","<div class=""stimulus-container""><img src=""images/schematic_sequence/hotel_scheme/hotel_scheme_ten.png"" class=""exp-image""></div>","null","","","","","","","","","","","",""
"","","","","","html-button-response","317","1033947","0.0-317.0","592","","<div class=""stimulus-container""><img src=""images/schematic_sequence/hotel_scheme/hotel_scheme_ten.png"" class=""exp-image""><div class=""question-area""><b>Is there a person?</b></div></div>","0","person_check","hotel_scheme","10","","","","","","","","",""
"","","","","","html-keyboard-response","318","1036950","0.0-318.0","null","","<div style=""background-color: white; width: 100vw; height: 100vh;""></div>","null","","","","","","","","","","","",""
"","","","","","html-keyboard-response","319","1040954","0.0-319.0","null","","<div class=""stimulus-container""><img src=""images/semantic_sequence/maintaining_a_car_semantic/maintaining_a_car_semantic_1.png"" class=""exp-image""></div>","null","","","","","","","","","","","",""
"","","","","","html-button-response","320","1041683","0.0-320.0","727","","<div class=""stimulus-container""><img src=""images/semantic_sequence/maintaining_a_car_semantic/maintaining_a_car_semantic_1.png"" class=""exp-image""><div class=""question-area""><b>Is there a person?</b></div></div>","0","person_check","maintaining_a_car_semantic","1","","","","","","","","",""
"","","","","","html-keyboard-response","321","1045687","0.0-321.0","null","","<div class=""stimulus-container""><img src=""images/semantic_sequence/maintaining_a_car_semantic/maintaining_a_car_semantic_2.png"" class=""exp-image""></div>","null","","","","","","","","","","","",""
"","","","","","html-button-response","322","1046406","0.0-322.0","717","","<div class=""stimulus-container""><img src=""images/semantic_sequence/maintaining_a_car_semantic/maintaining_a_car_semantic_2.png"" class=""exp-image""><div class=""question-area""><b>Is there a person?</b></div></div>","0","person_check","maintaining_a_car_semantic","2","","","","","","","","",""
"","","","","","html-keyboard-response","323","1050408","0.0-323.0","null","","<div class=""stimulus-container""><img src=""images/semantic_sequence/maintaining_a_car_semantic/maintaining_a_car_semantic_3.png"" class=""exp-image""></div>","null","","","","","","","","","","","",""
"","","","","","html-button-response","324","1051379","0.0-324.0","969","","<div class=""stimulus-container""><img src=""images/semantic_sequence/maintaining_a_car_semantic/maintaining_a_car_semantic_3.png"" class=""exp-image""><div class=""question-area""><b>Is there a person?</b></div></div>","0","person_check","maintaining_a_car_semantic","3","","","","","","","","",""
"","","","","","html-keyboard-response","325","1055381","0.0-325.0","null","","<div class=""stimulus-container""><img src=""images/semantic_sequence/maintaining_a_car_semantic/maintaining_a_car_semantic_4.png"" class=""exp-image""></div>","null","","","","","","","","","","","",""
"","","","","","html-button-response","326","1055747","0.0-326.0","363","","<div class=""stimulus-container""><img src=""images/semantic_sequence/maintaining_a_car_semantic/maintaining_a_car_semantic_4.png"" class=""exp-image""><div class=""question-area""><b>Is there a person?</b></div></div>","0","person_check","maintaining_a_car_semantic","4","","","","","","","","",""
"","","","","","html-keyboard-response","327","1059749","0.0-327.0","null","","<div class=""stimulus-container""><img src=""images/semantic_sequence/maintaining_a_car_semantic/maintaining_a_car_semantic_5.png"" class=""exp-image""></div>","null","","","","","","","","","","","",""
"","","","","","html-button-response","328","1060245","0.0-328.0","495","","<div class=""stimulus-container""><img src=""images/semantic_sequence/maintaining_a_car_semantic/maintaining_a_car_semantic_5.png"" class=""exp-image""><div class=""question-area""><b>Is there a person?</b></div></div>","0","person_check","maintaining_a_car_semantic","5","","","","","","","","",""
