"success","timeout","failed_images","failed_audio","failed_video","trial_type","trial_index","time_elapsed","internal_node_id","subject_id","study_id","session_id","view_history","rt","stimulus","response","task","image_index","folder","valuable_image_index","reward_type","valuable_X","chosen_image_index","distance_from_X"
"false","false","[]","[]","[]","preload","0","2698","0.0-0.0","9C7FBD6E05584C4CA5FC05577701FC5F","019ce87d-fc43-76a0-8f8e-715bbd47df24","019ce875-66c2-7f0b-b5e8-086c75889f84","","","","","","","","","","","",""
"","","","","","instructions","1","8182","0.0-1.0","9C7FBD6E05584C4CA5FC05577701FC5F","019ce87d-fc43-76a0-8f8e-715bbd47df24","019ce875-66c2-7f0b-b5e8-086c75889f84","[{""page_index"":0,""viewing_time"":5482}]","5482","","","","","","","","","",""
"","","","","","instructions","2","19790","0.0-2.0","9C7FBD6E05584C4CA5FC05577701FC5F","019ce87d-fc43-76a0-8f8e-715bbd47df24","019ce875-66c2-7f0b-b5e8-086c75889f84","[{""page_index"":0,""viewing_time"":11608}]","11608","","","","","","","","","",""
"true","","","","","fullscreen","3","23921","0.0-3.0","9C7FBD6E05584C4CA5FC05577701FC5F","019ce87d-fc43-76a0-8f8e-715bbd47df24","019ce875-66c2-7f0b-b5e8-086c75889f84","","3128","","","","","","","","","",""
"","","","","","instructions","4","54984","0.0-4.0","9C7FBD6E05584C4CA5FC05577701FC5F","019ce87d-fc43-76a0-8f8e-715bbd47df24","019ce875-66c2-7f0b-b5e8-086c75889f84","[{""page_index"":0,""viewing_time"":31062}]","31062","","","","","","","","","",""
"","","","","","instructions","5","80419","0.0-5.0","9C7FBD6E05584C4CA5FC05577701FC5F","019ce87d-fc43-76a0-8f8e-715bbd47df24","019ce875-66c2-7f0b-b5e8-086c75889f84","[{""page_index"":0,""viewing_time"":25436}]","25436","","","","","","","","","",""
"","","","","","html-keyboard-response","6","84422","0.0-6.0","9C7FBD6E05584C4CA5FC05577701FC5F","019ce87d-fc43-76a0-8f8e-715bbd47df24","019ce875-66c2-7f0b-b5e8-086c75889f84","","null","
                <div class=""stimulus-container"">
                    <img src=""images/instructions/movie_1.png"" class=""exp-image"">
                    <div class=""question-area""></div> 
                </div>","null","","","","","","","",""
"","","","","","html-button-response","7","87424","0.0-7.0","9C7FBD6E05584C4CA5FC05577701FC5F","019ce87d-fc43-76a0-8f8e-715bbd47df24","019ce875-66c2-7f0b-b5e8-086c75889f84","","null","
                <div class=""stimulus-container"">
                    <img src=""images/instructions/movie_1.png"" class=""exp-image"">
                    <div class=""question-area"">
                        <p style=""font-size: 20px; font-weight: bold; margin: 0;"">Was there a person in this image?</p>
                    </div>
                </div>","null","example_question","1","","","","","",""
"","","","","","html-keyboard-response","8","91427","0.0-8.0","9C7FBD6E05584C4CA5FC05577701FC5F","019ce87d-fc43-76a0-8f8e-715bbd47df24","019ce875-66c2-7f0b-b5e8-086c75889f84","","null","
                <div class=""stimulus-container"">
                    <img src=""images/instructions/movie_2.png"" class=""exp-image"">
                    <div class=""question-area""></div> 
                </div>","null","","","","","","","",""
"","","","","","html-button-response","9","93013","0.0-9.0","9C7FBD6E05584C4CA5FC05577701FC5F","019ce87d-fc43-76a0-8f8e-715bbd47df24","019ce875-66c2-7f0b-b5e8-086c75889f84","","1585","
                <div class=""stimulus-container"">
                    <img src=""images/instructions/movie_2.png"" class=""exp-image"">
                    <div class=""question-area"">
                        <p style=""font-size: 20px; font-weight: bold; margin: 0;"">Was there a person in this image?</p>
                    </div>
                </div>","0","example_question","2","","","","","",""
"","","","","","html-keyboard-response","10","97015","0.0-10.0","9C7FBD6E05584C4CA5FC05577701FC5F","019ce87d-fc43-76a0-8f8e-715bbd47df24","019ce875-66c2-7f0b-b5e8-086c75889f84","","null","
                <div class=""stimulus-container"">
                    <img src=""images/instructions/movie_3.png"" class=""exp-image"">
                    <div class=""question-area""></div> 
                </div>","null","","","","","","","",""
"","","","","","html-button-response","11","98354","0.0-11.0","9C7FBD6E05584C4CA5FC05577701FC5F","019ce87d-fc43-76a0-8f8e-715bbd47df24","019ce875-66c2-7f0b-b5e8-086c75889f84","","1338","
                <div class=""stimulus-container"">
                    <img src=""images/instructions/movie_3.png"" class=""exp-image"">
                    <div class=""question-area"">
                        <p style=""font-size: 20px; font-weight: bold; margin: 0;"">Was there a person in this image?</p>
                    </div>
                </div>","0","example_question","3","","","","","",""
"","","","","","html-keyboard-response","12","102356","0.0-12.0","9C7FBD6E05584C4CA5FC05577701FC5F","019ce87d-fc43-76a0-8f8e-715bbd47df24","019ce875-66c2-7f0b-b5e8-086c75889f84","","null","
                <div class=""stimulus-container"">
                    <img src=""images/instructions/movie_4.png"" class=""exp-image"">
                    <div class=""question-area""></div> 
                </div>","null","","","","","","","",""
"","","","","","html-button-response","13","103150","0.0-13.0","9C7FBD6E05584C4CA5FC05577701FC5F","019ce87d-fc43-76a0-8f8e-715bbd47df24","019ce875-66c2-7f0b-b5e8-086c75889f84","","793","
                <div class=""stimulus-container"">
                    <img src=""images/instructions/movie_4.png"" class=""exp-image"">
                    <div class=""question-area"">
                        <p style=""font-size: 20px; font-weight: bold; margin: 0;"">Was there a person in this image?</p>
                    </div>
                </div>","0","example_question","4","","","","","",""
"","","","","","instructions","14","107341","0.0-14.0","9C7FBD6E05584C4CA5FC05577701FC5F","019ce87d-fc43-76a0-8f8e-715bbd47df24","019ce875-66c2-7f0b-b5e8-086c75889f84","[{""page_index"":0,""viewing_time"":4191}]","4191","","","","","","","","","",""
"","","","","","html-keyboard-response","15","108343","0.0-15.0","9C7FBD6E05584C4CA5FC05577701FC5F","019ce87d-fc43-76a0-8f8e-715bbd47df24","019ce875-66c2-7f0b-b5e8-086c75889f84","","null","<div style=""background-color: gray; width: 100vw; height: 100vh;""></div>","null","","","","","","","",""
"","","","","","html-keyboard-response","16","113346","0.0-16.0","9C7FBD6E05584C4CA5FC05577701FC5F","019ce87d-fc43-76a0-8f8e-715bbd47df24","019ce875-66c2-7f0b-b5e8-086c75889f84","","null","
                    <div class=""stimulus-container"">
                        <img src=""images/causal_sequence/package_causal/package_causal_1.png"" class=""exp-image"">
                        <div class=""question-area""></div> 
                    </div>","null","","","","","","","",""
"","","","","","html-button-response","17","114850","0.0-17.0","9C7FBD6E05584C4CA5FC05577701FC5F","019ce87d-fc43-76a0-8f8e-715bbd47df24","019ce875-66c2-7f0b-b5e8-086c75889f84","","1503","
                    <div class=""stimulus-container"">
                        <img src=""images/causal_sequence/package_causal/package_causal_1.png"" class=""exp-image"">
                        <div class=""question-area"">
                            <p style=""font-size: 20px; font-weight: bold; margin: 0;"">Is there a person in this image?</p>
                        </div>
                    </div>","0","main_causal_task","1","package_causal","","","","",""
"","","","","","html-keyboard-response","18","119852","0.0-18.0","9C7FBD6E05584C4CA5FC05577701FC5F","019ce87d-fc43-76a0-8f8e-715bbd47df24","019ce875-66c2-7f0b-b5e8-086c75889f84","","null","
                    <div class=""stimulus-container"">
                        <img src=""images/causal_sequence/package_causal/package_causal_2.png"" class=""exp-image"">
                        <div class=""question-area""></div> 
                    </div>","null","","","","","","","",""
"","","","","","html-button-response","19","121824","0.0-19.0","9C7FBD6E05584C4CA5FC05577701FC5F","019ce87d-fc43-76a0-8f8e-715bbd47df24","019ce875-66c2-7f0b-b5e8-086c75889f84","","1971","
                    <div class=""stimulus-container"">
                        <img src=""images/causal_sequence/package_causal/package_causal_2.png"" class=""exp-image"">
                        <div class=""question-area"">
                            <p style=""font-size: 20px; font-weight: bold; margin: 0;"">Is there a person in this image?</p>
                        </div>
                    </div>","0","main_causal_task","2","package_causal","","","","",""
"","","","","","html-keyboard-response","20","126826","0.0-20.0","9C7FBD6E05584C4CA5FC05577701FC5F","019ce87d-fc43-76a0-8f8e-715bbd47df24","019ce875-66c2-7f0b-b5e8-086c75889f84","","null","
                    <div class=""stimulus-container"">
                        <img src=""images/causal_sequence/package_causal/package_causal_3.png"" class=""exp-image"">
                        <div class=""question-area""></div> 
                    </div>","null","","","","","","","",""
"","","","","","html-button-response","21","128488","0.0-21.0","9C7FBD6E05584C4CA5FC05577701FC5F","019ce87d-fc43-76a0-8f8e-715bbd47df24","019ce875-66c2-7f0b-b5e8-086c75889f84","","1661","
                    <div class=""stimulus-container"">
                        <img src=""images/causal_sequence/package_causal/package_causal_3.png"" class=""exp-image"">
                        <div class=""question-area"">
                            <p style=""font-size: 20px; font-weight: bold; margin: 0;"">Is there a person in this image?</p>
                        </div>
                    </div>","0","main_causal_task","3","package_causal","","","","",""
"","","","","","html-keyboard-response","22","133489","0.0-22.0","9C7FBD6E05584C4CA5FC05577701FC5F","019ce87d-fc43-76a0-8f8e-715bbd47df24","019ce875-66c2-7f0b-b5e8-086c75889f84","","null","
                    <div class=""stimulus-container"">
                        <img src=""images/causal_sequence/package_causal/package_causal_4.png"" class=""exp-image"">
                        <div class=""question-area""></div> 
                    </div>","null","","","","","","","",""
"","","","","","html-button-response","23","135607","0.0-23.0","9C7FBD6E05584C4CA5FC05577701FC5F","019ce87d-fc43-76a0-8f8e-715bbd47df24","019ce875-66c2-7f0b-b5e8-086c75889f84","","2116","
                    <div class=""stimulus-container"">
                        <img src=""images/causal_sequence/package_causal/package_causal_4.png"" class=""exp-image"">
                        <div class=""question-area"">
                            <p style=""font-size: 20px; font-weight: bold; margin: 0;"">Is there a person in this image?</p>
                        </div>
                    </div>","1","main_causal_task","4","package_causal","","","","",""
"","","","","","html-keyboard-response","24","140609","0.0-24.0","9C7FBD6E05584C4CA5FC05577701FC5F","019ce87d-fc43-76a0-8f8e-715bbd47df24","019ce875-66c2-7f0b-b5e8-086c75889f84","","null","
                    <div class=""stimulus-container"">
                        <img src=""images/causal_sequence/package_causal/package_causal_5.png"" class=""exp-image"">
                        <div class=""question-area""></div> 
                    </div>","null","","","","","","","",""
"","","","","","html-button-response","25","141943","0.0-25.0","9C7FBD6E05584C4CA5FC05577701FC5F","019ce87d-fc43-76a0-8f8e-715bbd47df24","019ce875-66c2-7f0b-b5e8-086c75889f84","","1334","
                    <div class=""stimulus-container"">
                        <img src=""images/causal_sequence/package_causal/package_causal_5.png"" class=""exp-image"">
                        <div class=""question-area"">
                            <p style=""font-size: 20px; font-weight: bold; margin: 0;"">Is there a person in this image?</p>
                        </div>
                    </div>","0","main_causal_task","5","package_causal","","","","",""
"","","","","","html-keyboard-response","26","146946","0.0-26.0","9C7FBD6E05584C4CA5FC05577701FC5F","019ce87d-fc43-76a0-8f8e-715bbd47df24","019ce875-66c2-7f0b-b5e8-086c75889f84","","null","
                    <div class=""stimulus-container"">
                        <img src=""images/causal_sequence/package_causal/package_causal_6.png"" class=""exp-image"">
                        <div class=""question-area""></div> 
                    </div>","null","","","","","","","",""
"","","","","","html-button-response","27","148232","0.0-27.0","9C7FBD6E05584C4CA5FC05577701FC5F","019ce87d-fc43-76a0-8f8e-715bbd47df24","019ce875-66c2-7f0b-b5e8-086c75889f84","","1285","
                    <div class=""stimulus-container"">
                        <img src=""images/causal_sequence/package_causal/package_causal_6.png"" class=""exp-image"">
                        <div class=""question-area"">
                            <p style=""font-size: 20px; font-weight: bold; margin: 0;"">Is there a person in this image?</p>
                        </div>
                    </div>","0","main_causal_task","6","package_causal","","","","",""
"","","","","","html-keyboard-response","28","153233","0.0-28.0","9C7FBD6E05584C4CA5FC05577701FC5F","019ce87d-fc43-76a0-8f8e-715bbd47df24","019ce875-66c2-7f0b-b5e8-086c75889f84","","null","
                    <div class=""stimulus-container"">
                        <img src=""images/causal_sequence/package_causal/package_causal_7.png"" class=""exp-image"">
                        <div class=""question-area""></div> 
                    </div>","null","","","","","","","",""
"","","","","","html-button-response","29","154822","0.0-29.0","9C7FBD6E05584C4CA5FC05577701FC5F","019ce87d-fc43-76a0-8f8e-715bbd47df24","019ce875-66c2-7f0b-b5e8-086c75889f84","","1587","
                    <div class=""stimulus-container"">
                        <img src=""images/causal_sequence/package_causal/package_causal_7.png"" class=""exp-image"">
                        <div class=""question-area"">
                            <p style=""font-size: 20px; font-weight: bold; margin: 0;"">Is there a person in this image?</p>
                        </div>
                    </div>","0","main_causal_task","7","package_causal","","","","",""
"","","","","","html-keyboard-response","30","159823","0.0-30.0","9C7FBD6E05584C4CA5FC05577701FC5F","019ce87d-fc43-76a0-8f8e-715bbd47df24","019ce875-66c2-7f0b-b5e8-086c75889f84","","null","
                    <div class=""stimulus-container"">
                        <img src=""images/causal_sequence/package_causal/package_causal_8.png"" class=""exp-image"">
                        <div class=""question-area""></div> 
                    </div>","null","","","","","","","",""
"","","","","","html-button-response","31","161517","0.0-31.0","9C7FBD6E05584C4CA5FC05577701FC5F","019ce87d-fc43-76a0-8f8e-715bbd47df24","019ce875-66c2-7f0b-b5e8-086c75889f84","","1693","
                    <div class=""stimulus-container"">
                        <img src=""images/causal_sequence/package_causal/package_causal_8.png"" class=""exp-image"">
                        <div class=""question-area"">
                            <p style=""font-size: 20px; font-weight: bold; margin: 0;"">Is there a person in this image?</p>
                        </div>
                    </div>","0","main_causal_task","8","package_causal","","","","",""
"","","","","","html-keyboard-response","32","166520","0.0-32.0","9C7FBD6E05584C4CA5FC05577701FC5F","019ce87d-fc43-76a0-8f8e-715bbd47df24","019ce875-66c2-7f0b-b5e8-086c75889f84","","null","
                    <div class=""stimulus-container"">
                        <img src=""images/causal_sequence/package_causal/package_causal_9.png"" class=""exp-image"">
                        <div class=""question-area""></div> 
                    </div>","null","","","","","","","",""
"","","","","","html-button-response","33","168186","0.0-33.0","9C7FBD6E05584C4CA5FC05577701FC5F","019ce87d-fc43-76a0-8f8e-715bbd47df24","019ce875-66c2-7f0b-b5e8-086c75889f84","","1665","
                    <div class=""stimulus-container"">
                        <img src=""images/causal_sequence/package_causal/package_causal_9.png"" class=""exp-image"">
                        <div class=""question-area"">
                            <p style=""font-size: 20px; font-weight: bold; margin: 0;"">Is there a person in this image?</p>
                        </div>
                    </div>","0","main_causal_task","9","package_causal","","","","",""
"","","","","","html-keyboard-response","34","169188","0.0-34.0","9C7FBD6E05584C4CA5FC05577701FC5F","019ce87d-fc43-76a0-8f8e-715bbd47df24","019ce875-66c2-7f0b-b5e8-086c75889f84","","null","<div style=""background-color: gray; width: 100vw; height: 100vh;""></div>","null","","","","","","","",""
"","","","","","html-keyboard-response","35","174190","0.0-35.0","9C7FBD6E05584C4CA5FC05577701FC5F","019ce87d-fc43-76a0-8f8e-715bbd47df24","019ce875-66c2-7f0b-b5e8-086c75889f84","","null","
                    <div class=""stimulus-container"">
                        <img src=""images/causal_sequence/coin_causal/coin_causal_1.png"" class=""exp-image"">
                        <div class=""question-area""></div> 
                    </div>","null","","","","","","","",""
"","","","","","html-button-response","36","176331","0.0-36.0","9C7FBD6E05584C4CA5FC05577701FC5F","019ce87d-fc43-76a0-8f8e-715bbd47df24","019ce875-66c2-7f0b-b5e8-086c75889f84","","2140","
                    <div class=""stimulus-container"">
                        <img src=""images/causal_sequence/coin_causal/coin_causal_1.png"" class=""exp-image"">
                        <div class=""question-area"">
                            <p style=""font-size: 20px; font-weight: bold; margin: 0;"">Is there a person in this image?</p>
                        </div>
                    </div>","0","main_causal_task","1","coin_causal","","","","",""
"","","","","","html-keyboard-response","37","181333","0.0-37.0","9C7FBD6E05584C4CA5FC05577701FC5F","019ce87d-fc43-76a0-8f8e-715bbd47df24","019ce875-66c2-7f0b-b5e8-086c75889f84","","null","
                    <div class=""stimulus-container"">
                        <img src=""images/causal_sequence/coin_causal/coin_causal_2.png"" class=""exp-image"">
                        <div class=""question-area""></div> 
                    </div>","null","","","","","","","",""
"","","","","","html-button-response","38","183681","0.0-38.0","9C7FBD6E05584C4CA5FC05577701FC5F","019ce87d-fc43-76a0-8f8e-715bbd47df24","019ce875-66c2-7f0b-b5e8-086c75889f84","","2347","
                    <div class=""stimulus-container"">
                        <img src=""images/causal_sequence/coin_causal/coin_causal_2.png"" class=""exp-image"">
                        <div class=""question-area"">
                            <p style=""font-size: 20px; font-weight: bold; margin: 0;"">Is there a person in this image?</p>
                        </div>
                    </div>","0","main_causal_task","2","coin_causal","","","","",""
"","","","","","html-keyboard-response","39","188683","0.0-39.0","9C7FBD6E05584C4CA5FC05577701FC5F","019ce87d-fc43-76a0-8f8e-715bbd47df24","019ce875-66c2-7f0b-b5e8-086c75889f84","","null","
                    <div class=""stimulus-container"">
                        <img src=""images/causal_sequence/coin_causal/coin_causal_3.png"" class=""exp-image"">
                        <div class=""question-area""></div> 
                    </div>","null","","","","","","","",""
"","","","","","html-button-response","40","189847","0.0-40.0","9C7FBD6E05584C4CA5FC05577701FC5F","019ce87d-fc43-76a0-8f8e-715bbd47df24","019ce875-66c2-7f0b-b5e8-086c75889f84","","1164","
                    <div class=""stimulus-container"">
                        <img src=""images/causal_sequence/coin_causal/coin_causal_3.png"" class=""exp-image"">
                        <div class=""question-area"">
                            <p style=""font-size: 20px; font-weight: bold; margin: 0;"">Is there a person in this image?</p>
                        </div>
                    </div>","0","main_causal_task","3","coin_causal","","","","",""
"","","","","","html-keyboard-response","41","194848","0.0-41.0","9C7FBD6E05584C4CA5FC05577701FC5F","019ce87d-fc43-76a0-8f8e-715bbd47df24","019ce875-66c2-7f0b-b5e8-086c75889f84","","null","
                    <div class=""stimulus-container"">
                        <img src=""images/causal_sequence/coin_causal/coin_causal_4.png"" class=""exp-image"">
                        <div class=""question-area""></div> 
                    </div>","null","","","","","","","",""
"","","","","","html-button-response","42","196397","0.0-42.0","9C7FBD6E05584C4CA5FC05577701FC5F","019ce87d-fc43-76a0-8f8e-715bbd47df24","019ce875-66c2-7f0b-b5e8-086c75889f84","","1548","
                    <div class=""stimulus-container"">
                        <img src=""images/causal_sequence/coin_causal/coin_causal_4.png"" class=""exp-image"">
                        <div class=""question-area"">
                            <p style=""font-size: 20px; font-weight: bold; margin: 0;"">Is there a person in this image?</p>
                        </div>
                    </div>","0","main_causal_task","4","coin_causal","","","","",""
"","","","","","html-keyboard-response","43","201399","0.0-43.0","9C7FBD6E05584C4CA5FC05577701FC5F","019ce87d-fc43-76a0-8f8e-715bbd47df24","019ce875-66c2-7f0b-b5e8-086c75889f84","","null","
                    <div class=""stimulus-container"">
                        <img src=""images/causal_sequence/coin_causal/coin_causal_5.png"" class=""exp-image"">
                        <div class=""question-area""></div> 
                    </div>","null","","","","","","","",""
"","","","","","html-button-response","44","202729","0.0-44.0","9C7FBD6E05584C4CA5FC05577701FC5F","019ce87d-fc43-76a0-8f8e-715bbd47df24","019ce875-66c2-7f0b-b5e8-086c75889f84","","1329","
                    <div class=""stimulus-container"">
                        <img src=""images/causal_sequence/coin_causal/coin_causal_5.png"" class=""exp-image"">
                        <div class=""question-area"">
                            <p style=""font-size: 20px; font-weight: bold; margin: 0;"">Is there a person in this image?</p>
                        </div>
                    </div>","0","main_causal_task","5","coin_causal","","","","",""
"","","","","","html-keyboard-response","45","207731","0.0-45.0","9C7FBD6E05584C4CA5FC05577701FC5F","019ce87d-fc43-76a0-8f8e-715bbd47df24","019ce875-66c2-7f0b-b5e8-086c75889f84","","null","
                    <div class=""stimulus-container"">
                        <img src=""images/causal_sequence/coin_causal/coin_causal_6.png"" class=""exp-image"">
                        <div class=""question-area""></div> 
                    </div>","null","","","","","","","",""
"","","","","","html-button-response","46","208983","0.0-46.0","9C7FBD6E05584C4CA5FC05577701FC5F","019ce87d-fc43-76a0-8f8e-715bbd47df24","019ce875-66c2-7f0b-b5e8-086c75889f84","","1251","
                    <div class=""stimulus-container"">
                        <img src=""images/causal_sequence/coin_causal/coin_causal_6.png"" class=""exp-image"">
                        <div class=""question-area"">
                            <p style=""font-size: 20px; font-weight: bold; margin: 0;"">Is there a person in this image?</p>
                        </div>
                    </div>","0","main_causal_task","6","coin_causal","","","","",""
"","","","","","html-keyboard-response","47","213985","0.0-47.0","9C7FBD6E05584C4CA5FC05577701FC5F","019ce87d-fc43-76a0-8f8e-715bbd47df24","019ce875-66c2-7f0b-b5e8-086c75889f84","","null","
                    <div class=""stimulus-container"">
                        <img src=""images/causal_sequence/coin_causal/coin_causal_7.png"" class=""exp-image"">
                        <div class=""question-area""></div> 
                    </div>","null","","","","","","","",""
"","","","","","html-button-response","48","216276","0.0-48.0","9C7FBD6E05584C4CA5FC05577701FC5F","019ce87d-fc43-76a0-8f8e-715bbd47df24","019ce875-66c2-7f0b-b5e8-086c75889f84","","2290","
                    <div class=""stimulus-container"">
                        <img src=""images/causal_sequence/coin_causal/coin_causal_7.png"" class=""exp-image"">
                        <div class=""question-area"">
                            <p style=""font-size: 20px; font-weight: bold; margin: 0;"">Is there a person in this image?</p>
                        </div>
                    </div>","1","main_causal_task","7","coin_causal","","","","",""
"","","","","","html-keyboard-response","49","221279","0.0-49.0","9C7FBD6E05584C4CA5FC05577701FC5F","019ce87d-fc43-76a0-8f8e-715bbd47df24","019ce875-66c2-7f0b-b5e8-086c75889f84","","null","
                    <div class=""stimulus-container"">
                        <img src=""images/causal_sequence/coin_causal/coin_causal_8.png"" class=""exp-image"">
                        <div class=""question-area""></div> 
                    </div>","null","","","","","","","",""
"","","","","","html-button-response","50","222785","0.0-50.0","9C7FBD6E05584C4CA5FC05577701FC5F","019ce87d-fc43-76a0-8f8e-715bbd47df24","019ce875-66c2-7f0b-b5e8-086c75889f84","","1505","
                    <div class=""stimulus-container"">
                        <img src=""images/causal_sequence/coin_causal/coin_causal_8.png"" class=""exp-image"">
                        <div class=""question-area"">
                            <p style=""font-size: 20px; font-weight: bold; margin: 0;"">Is there a person in this image?</p>
                        </div>
                    </div>","0","main_causal_task","8","coin_causal","","","","",""
"","","","","","html-keyboard-response","51","227787","0.0-51.0","9C7FBD6E05584C4CA5FC05577701FC5F","019ce87d-fc43-76a0-8f8e-715bbd47df24","019ce875-66c2-7f0b-b5e8-086c75889f84","","null","
                    <div class=""stimulus-container"">
                        <img src=""images/causal_sequence/coin_causal/coin_causal_9.png"" class=""exp-image"">
                        <div class=""question-area""></div> 
                    </div>","null","","","","","","","",""
"","","","","","html-button-response","52","229092","0.0-52.0","9C7FBD6E05584C4CA5FC05577701FC5F","019ce87d-fc43-76a0-8f8e-715bbd47df24","019ce875-66c2-7f0b-b5e8-086c75889f84","","1304","
                    <div class=""stimulus-container"">
                        <img src=""images/causal_sequence/coin_causal/coin_causal_9.png"" class=""exp-image"">
                        <div class=""question-area"">
                            <p style=""font-size: 20px; font-weight: bold; margin: 0;"">Is there a person in this image?</p>
                        </div>
                    </div>","0","main_causal_task","9","coin_causal","","","","",""
"","","","","","html-keyboard-response","53","230094","0.0-53.0","9C7FBD6E05584C4CA5FC05577701FC5F","019ce87d-fc43-76a0-8f8e-715bbd47df24","019ce875-66c2-7f0b-b5e8-086c75889f84","","null","<div style=""background-color: gray; width: 100vw; height: 100vh;""></div>","null","","","","","","","",""
"","","","","","html-keyboard-response","54","235096","0.0-54.0","9C7FBD6E05584C4CA5FC05577701FC5F","019ce87d-fc43-76a0-8f8e-715bbd47df24","019ce875-66c2-7f0b-b5e8-086c75889f84","","null","
                    <div class=""stimulus-container"">
                        <img src=""images/causal_sequence/museum_causal/museum_causal_1.png"" class=""exp-image"">
                        <div class=""question-area""></div> 
                    </div>","null","","","","","","","",""
"","","","","","html-button-response","55","236816","0.0-55.0","9C7FBD6E05584C4CA5FC05577701FC5F","019ce87d-fc43-76a0-8f8e-715bbd47df24","019ce875-66c2-7f0b-b5e8-086c75889f84","","1719","
                    <div class=""stimulus-container"">
                        <img src=""images/causal_sequence/museum_causal/museum_causal_1.png"" class=""exp-image"">
                        <div class=""question-area"">
                            <p style=""font-size: 20px; font-weight: bold; margin: 0;"">Is there a person in this image?</p>
                        </div>
                    </div>","0","main_causal_task","1","museum_causal","","","","",""
"","","","","","html-keyboard-response","56","241818","0.0-56.0","9C7FBD6E05584C4CA5FC05577701FC5F","019ce87d-fc43-76a0-8f8e-715bbd47df24","019ce875-66c2-7f0b-b5e8-086c75889f84","","null","
                    <div class=""stimulus-container"">
                        <img src=""images/causal_sequence/museum_causal/museum_causal_2.png"" class=""exp-image"">
                        <div class=""question-area""></div> 
                    </div>","null","","","","","","","",""
"","","","","","html-button-response","57","243415","0.0-57.0","9C7FBD6E05584C4CA5FC05577701FC5F","019ce87d-fc43-76a0-8f8e-715bbd47df24","019ce875-66c2-7f0b-b5e8-086c75889f84","","1596","
                    <div class=""stimulus-container"">
                        <img src=""images/causal_sequence/museum_causal/museum_causal_2.png"" class=""exp-image"">
                        <div class=""question-area"">
                            <p style=""font-size: 20px; font-weight: bold; margin: 0;"">Is there a person in this image?</p>
                        </div>
                    </div>","0","main_causal_task","2","museum_causal","","","","",""
"","","","","","html-keyboard-response","58","248417","0.0-58.0","9C7FBD6E05584C4CA5FC05577701FC5F","019ce87d-fc43-76a0-8f8e-715bbd47df24","019ce875-66c2-7f0b-b5e8-086c75889f84","","null","
                    <div class=""stimulus-container"">
                        <img src=""images/causal_sequence/museum_causal/museum_causal_3.png"" class=""exp-image"">
                        <div class=""question-area""></div> 
                    </div>","null","","","","","","","",""
"","","","","","html-button-response","59","250835","0.0-59.0","9C7FBD6E05584C4CA5FC05577701FC5F","019ce87d-fc43-76a0-8f8e-715bbd47df24","019ce875-66c2-7f0b-b5e8-086c75889f84","","2418","
                    <div class=""stimulus-container"">
                        <img src=""images/causal_sequence/museum_causal/museum_causal_3.png"" class=""exp-image"">
                        <div class=""question-area"">
                            <p style=""font-size: 20px; font-weight: bold; margin: 0;"">Is there a person in this image?</p>
                        </div>
                    </div>","0","main_causal_task","3","museum_causal","","","","",""
"","","","","","html-keyboard-response","60","255837","0.0-60.0","9C7FBD6E05584C4CA5FC05577701FC5F","019ce87d-fc43-76a0-8f8e-715bbd47df24","019ce875-66c2-7f0b-b5e8-086c75889f84","","null","
                    <div class=""stimulus-container"">
                        <img src=""images/causal_sequence/museum_causal/museum_causal_4.png"" class=""exp-image"">
                        <div class=""question-area""></div> 
                    </div>","null","","","","","","","",""
"","","","","","html-button-response","61","257146","0.0-61.0","9C7FBD6E05584C4CA5FC05577701FC5F","019ce87d-fc43-76a0-8f8e-715bbd47df24","019ce875-66c2-7f0b-b5e8-086c75889f84","","1308","
                    <div class=""stimulus-container"">
                        <img src=""images/causal_sequence/museum_causal/museum_causal_4.png"" class=""exp-image"">
                        <div class=""question-area"">
                            <p style=""font-size: 20px; font-weight: bold; margin: 0;"">Is there a person in this image?</p>
                        </div>
                    </div>","1","main_causal_task","4","museum_causal","","","","",""
"","","","","","html-keyboard-response","62","262148","0.0-62.0","9C7FBD6E05584C4CA5FC05577701FC5F","019ce87d-fc43-76a0-8f8e-715bbd47df24","019ce875-66c2-7f0b-b5e8-086c75889f84","","null","
                    <div class=""stimulus-container"">
                        <img src=""images/causal_sequence/museum_causal/museum_causal_5.png"" class=""exp-image"">
                        <div class=""question-area""></div> 
                    </div>","null","","","","","","","",""
"","","","","","html-button-response","63","263547","0.0-63.0","9C7FBD6E05584C4CA5FC05577701FC5F","019ce87d-fc43-76a0-8f8e-715bbd47df24","019ce875-66c2-7f0b-b5e8-086c75889f84","","1399","
                    <div class=""stimulus-container"">
                        <img src=""images/causal_sequence/museum_causal/museum_causal_5.png"" class=""exp-image"">
                        <div class=""question-area"">
                            <p style=""font-size: 20px; font-weight: bold; margin: 0;"">Is there a person in this image?</p>
                        </div>
                    </div>","0","main_causal_task","5","museum_causal","","","","",""
"","","","","","html-keyboard-response","64","268549","0.0-64.0","9C7FBD6E05584C4CA5FC05577701FC5F","019ce87d-fc43-76a0-8f8e-715bbd47df24","019ce875-66c2-7f0b-b5e8-086c75889f84","","null","
                    <div class=""stimulus-container"">
                        <img src=""images/causal_sequence/museum_causal/museum_causal_6.png"" class=""exp-image"">
                        <div class=""question-area""></div> 
                    </div>","null","","","","","","","",""
"","","","","","html-button-response","65","269675","0.0-65.0","9C7FBD6E05584C4CA5FC05577701FC5F","019ce87d-fc43-76a0-8f8e-715bbd47df24","019ce875-66c2-7f0b-b5e8-086c75889f84","","1125","
                    <div class=""stimulus-container"">
                        <img src=""images/causal_sequence/museum_causal/museum_causal_6.png"" class=""exp-image"">
                        <div class=""question-area"">
                            <p style=""font-size: 20px; font-weight: bold; margin: 0;"">Is there a person in this image?</p>
                        </div>
                    </div>","0","main_causal_task","6","museum_causal","","","","",""
"","","","","","html-keyboard-response","66","274677","0.0-66.0","9C7FBD6E05584C4CA5FC05577701FC5F","019ce87d-fc43-76a0-8f8e-715bbd47df24","019ce875-66c2-7f0b-b5e8-086c75889f84","","null","
                    <div class=""stimulus-container"">
                        <img src=""images/causal_sequence/museum_causal/museum_causal_7.png"" class=""exp-image"">
                        <div class=""question-area""></div> 
                    </div>","null","","","","","","","",""
"","","","","","html-button-response","67","277394","0.0-67.0","9C7FBD6E05584C4CA5FC05577701FC5F","019ce87d-fc43-76a0-8f8e-715bbd47df24","019ce875-66c2-7f0b-b5e8-086c75889f84","","2715","
                    <div class=""stimulus-container"">
                        <img src=""images/causal_sequence/museum_causal/museum_causal_7.png"" class=""exp-image"">
                        <div class=""question-area"">
                            <p style=""font-size: 20px; font-weight: bold; margin: 0;"">Is there a person in this image?</p>
                        </div>
                    </div>","1","main_causal_task","7","museum_causal","","","","",""
"","","","","","html-keyboard-response","68","282395","0.0-68.0","9C7FBD6E05584C4CA5FC05577701FC5F","019ce87d-fc43-76a0-8f8e-715bbd47df24","019ce875-66c2-7f0b-b5e8-086c75889f84","","null","
                    <div class=""stimulus-container"">
                        <img src=""images/causal_sequence/museum_causal/museum_causal_8.png"" class=""exp-image"">
                        <div class=""question-area""></div> 
                    </div>","null","","","","","","","",""
"","","","","","html-button-response","69","283634","0.0-69.0","9C7FBD6E05584C4CA5FC05577701FC5F","019ce87d-fc43-76a0-8f8e-715bbd47df24","019ce875-66c2-7f0b-b5e8-086c75889f84","","1239","
                    <div class=""stimulus-container"">
                        <img src=""images/causal_sequence/museum_causal/museum_causal_8.png"" class=""exp-image"">
                        <div class=""question-area"">
                            <p style=""font-size: 20px; font-weight: bold; margin: 0;"">Is there a person in this image?</p>
                        </div>
                    </div>","0","main_causal_task","8","museum_causal","","","","",""
"","","","","","html-keyboard-response","70","288636","0.0-70.0","9C7FBD6E05584C4CA5FC05577701FC5F","019ce87d-fc43-76a0-8f8e-715bbd47df24","019ce875-66c2-7f0b-b5e8-086c75889f84","","null","
                    <div class=""stimulus-container"">
                        <img src=""images/causal_sequence/museum_causal/museum_causal_9.png"" class=""exp-image"">
                        <div class=""question-area""></div> 
                    </div>","null","","","","","","","",""
"","","","","","html-button-response","71","289821","0.0-71.0","9C7FBD6E05584C4CA5FC05577701FC5F","019ce87d-fc43-76a0-8f8e-715bbd47df24","019ce875-66c2-7f0b-b5e8-086c75889f84","","1184","
                    <div class=""stimulus-container"">
                        <img src=""images/causal_sequence/museum_causal/museum_causal_9.png"" class=""exp-image"">
                        <div class=""question-area"">
                            <p style=""font-size: 20px; font-weight: bold; margin: 0;"">Is there a person in this image?</p>
                        </div>
                    </div>","1","main_causal_task","9","museum_causal","","","","",""
"","","","","","html-keyboard-response","72","290822","0.0-72.0","9C7FBD6E05584C4CA5FC05577701FC5F","019ce87d-fc43-76a0-8f8e-715bbd47df24","019ce875-66c2-7f0b-b5e8-086c75889f84","","null","<div style=""background-color: gray; width: 100vw; height: 100vh;""></div>","null","","","","","","","",""
"","","","","","html-keyboard-response","73","295824","0.0-73.0","9C7FBD6E05584C4CA5FC05577701FC5F","019ce87d-fc43-76a0-8f8e-715bbd47df24","019ce875-66c2-7f0b-b5e8-086c75889f84","","null","
                    <div class=""stimulus-container"">
                        <img src=""images/causal_sequence/the_performance_causal/the_performance_causal_1.png"" class=""exp-image"">
                        <div class=""question-area""></div> 
                    </div>","null","","","","","","","",""
"","","","","","html-button-response","74","297330","0.0-74.0","9C7FBD6E05584C4CA5FC05577701FC5F","019ce87d-fc43-76a0-8f8e-715bbd47df24","019ce875-66c2-7f0b-b5e8-086c75889f84","","1505","
                    <div class=""stimulus-container"">
                        <img src=""images/causal_sequence/the_performance_causal/the_performance_causal_1.png"" class=""exp-image"">
                        <div class=""question-area"">
                            <p style=""font-size: 20px; font-weight: bold; margin: 0;"">Is there a person in this image?</p>
                        </div>
                    </div>","0","main_causal_task","1","the_performance_causal","","","","",""
"","","","","","html-keyboard-response","75","302332","0.0-75.0","9C7FBD6E05584C4CA5FC05577701FC5F","019ce87d-fc43-76a0-8f8e-715bbd47df24","019ce875-66c2-7f0b-b5e8-086c75889f84","","null","
                    <div class=""stimulus-container"">
                        <img src=""images/causal_sequence/the_performance_causal/the_performance_causal_2.png"" class=""exp-image"">
                        <div class=""question-area""></div> 
                    </div>","null","","","","","","","",""
"","","","","","html-button-response","76","304309","0.0-76.0","9C7FBD6E05584C4CA5FC05577701FC5F","019ce87d-fc43-76a0-8f8e-715bbd47df24","019ce875-66c2-7f0b-b5e8-086c75889f84","","1976","
                    <div class=""stimulus-container"">
                        <img src=""images/causal_sequence/the_performance_causal/the_performance_causal_2.png"" class=""exp-image"">
                        <div class=""question-area"">
                            <p style=""font-size: 20px; font-weight: bold; margin: 0;"">Is there a person in this image?</p>
                        </div>
                    </div>","0","main_causal_task","2","the_performance_causal","","","","",""
"","","","","","html-keyboard-response","77","309311","0.0-77.0","9C7FBD6E05584C4CA5FC05577701FC5F","019ce87d-fc43-76a0-8f8e-715bbd47df24","019ce875-66c2-7f0b-b5e8-086c75889f84","","null","
                    <div class=""stimulus-container"">
                        <img src=""images/causal_sequence/the_performance_causal/the_performance_causal_3.png"" class=""exp-image"">
                        <div class=""question-area""></div> 
                    </div>","null","","","","","","","",""
"","","","","","html-button-response","78","310566","0.0-78.0","9C7FBD6E05584C4CA5FC05577701FC5F","019ce87d-fc43-76a0-8f8e-715bbd47df24","019ce875-66c2-7f0b-b5e8-086c75889f84","","1254","
                    <div class=""stimulus-container"">
                        <img src=""images/causal_sequence/the_performance_causal/the_performance_causal_3.png"" class=""exp-image"">
                        <div class=""question-area"">
                            <p style=""font-size: 20px; font-weight: bold; margin: 0;"">Is there a person in this image?</p>
                        </div>
                    </div>","0","main_causal_task","3","the_performance_causal","","","","",""
"","","","","","html-keyboard-response","79","315568","0.0-79.0","9C7FBD6E05584C4CA5FC05577701FC5F","019ce87d-fc43-76a0-8f8e-715bbd47df24","019ce875-66c2-7f0b-b5e8-086c75889f84","","null","
                    <div class=""stimulus-container"">
                        <img src=""images/causal_sequence/the_performance_causal/the_performance_causal_4.png"" class=""exp-image"">
                        <div class=""question-area""></div> 
                    </div>","null","","","","","","","",""
"","","","","","html-button-response","80","317680","0.0-80.0","9C7FBD6E05584C4CA5FC05577701FC5F","019ce87d-fc43-76a0-8f8e-715bbd47df24","019ce875-66c2-7f0b-b5e8-086c75889f84","","2112","
                    <div class=""stimulus-container"">
                        <img src=""images/causal_sequence/the_performance_causal/the_performance_causal_4.png"" class=""exp-image"">
                        <div class=""question-area"">
                            <p style=""font-size: 20px; font-weight: bold; margin: 0;"">Is there a person in this image?</p>
                        </div>
                    </div>","0","main_causal_task","4","the_performance_causal","","","","",""
"","","","","","html-keyboard-response","81","322682","0.0-81.0","9C7FBD6E05584C4CA5FC05577701FC5F","019ce87d-fc43-76a0-8f8e-715bbd47df24","019ce875-66c2-7f0b-b5e8-086c75889f84","","null","
                    <div class=""stimulus-container"">
                        <img src=""images/causal_sequence/the_performance_causal/the_performance_causal_5.png"" class=""exp-image"">
                        <div class=""question-area""></div> 
                    </div>","null","","","","","","","",""
"","","","","","html-button-response","82","324418","0.0-82.0","9C7FBD6E05584C4CA5FC05577701FC5F","019ce87d-fc43-76a0-8f8e-715bbd47df24","019ce875-66c2-7f0b-b5e8-086c75889f84","","1735","
                    <div class=""stimulus-container"">
                        <img src=""images/causal_sequence/the_performance_causal/the_performance_causal_5.png"" class=""exp-image"">
                        <div class=""question-area"">
                            <p style=""font-size: 20px; font-weight: bold; margin: 0;"">Is there a person in this image?</p>
                        </div>
                    </div>","0","main_causal_task","5","the_performance_causal","","","","",""
"","","","","","html-keyboard-response","83","329421","0.0-83.0","9C7FBD6E05584C4CA5FC05577701FC5F","019ce87d-fc43-76a0-8f8e-715bbd47df24","019ce875-66c2-7f0b-b5e8-086c75889f84","","null","
                    <div class=""stimulus-container"">
                        <img src=""images/causal_sequence/the_performance_causal/the_performance_causal_6.png"" class=""exp-image"">
                        <div class=""question-area""></div> 
                    </div>","null","","","","","","","",""
"","","","","","html-button-response","84","330736","0.0-84.0","9C7FBD6E05584C4CA5FC05577701FC5F","019ce87d-fc43-76a0-8f8e-715bbd47df24","019ce875-66c2-7f0b-b5e8-086c75889f84","","1315","
                    <div class=""stimulus-container"">
                        <img src=""images/causal_sequence/the_performance_causal/the_performance_causal_6.png"" class=""exp-image"">
                        <div class=""question-area"">
                            <p style=""font-size: 20px; font-weight: bold; margin: 0;"">Is there a person in this image?</p>
                        </div>
                    </div>","0","main_causal_task","6","the_performance_causal","","","","",""
"","","","","","html-keyboard-response","85","335738","0.0-85.0","9C7FBD6E05584C4CA5FC05577701FC5F","019ce87d-fc43-76a0-8f8e-715bbd47df24","019ce875-66c2-7f0b-b5e8-086c75889f84","","null","
                    <div class=""stimulus-container"">
                        <img src=""images/causal_sequence/the_performance_causal/the_performance_causal_7.png"" class=""exp-image"">
                        <div class=""question-area""></div> 
                    </div>","null","","","","","","","",""
"","","","","","html-button-response","86","337068","0.0-86.0","9C7FBD6E05584C4CA5FC05577701FC5F","019ce87d-fc43-76a0-8f8e-715bbd47df24","019ce875-66c2-7f0b-b5e8-086c75889f84","","1329","
                    <div class=""stimulus-container"">
                        <img src=""images/causal_sequence/the_performance_causal/the_performance_causal_7.png"" class=""exp-image"">
                        <div class=""question-area"">
                            <p style=""font-size: 20px; font-weight: bold; margin: 0;"">Is there a person in this image?</p>
                        </div>
                    </div>","0","main_causal_task","7","the_performance_causal","","","","",""
"","","","","","html-keyboard-response","87","342071","0.0-87.0","9C7FBD6E05584C4CA5FC05577701FC5F","019ce87d-fc43-76a0-8f8e-715bbd47df24","019ce875-66c2-7f0b-b5e8-086c75889f84","","null","
                    <div class=""stimulus-container"">
                        <img src=""images/causal_sequence/the_performance_causal/the_performance_causal_8.png"" class=""exp-image"">
                        <div class=""question-area""></div> 
                    </div>","null","","","","","","","",""
"","","","","","html-button-response","88","344441","0.0-88.0","9C7FBD6E05584C4CA5FC05577701FC5F","019ce87d-fc43-76a0-8f8e-715bbd47df24","019ce875-66c2-7f0b-b5e8-086c75889f84","","2370","
                    <div class=""stimulus-container"">
                        <img src=""images/causal_sequence/the_performance_causal/the_performance_causal_8.png"" class=""exp-image"">
                        <div class=""question-area"">
                            <p style=""font-size: 20px; font-weight: bold; margin: 0;"">Is there a person in this image?</p>
                        </div>
                    </div>","0","main_causal_task","8","the_performance_causal","","","","",""
"","","","","","html-keyboard-response","89","349443","0.0-89.0","9C7FBD6E05584C4CA5FC05577701FC5F","019ce87d-fc43-76a0-8f8e-715bbd47df24","019ce875-66c2-7f0b-b5e8-086c75889f84","","null","
                    <div class=""stimulus-container"">
                        <img src=""images/causal_sequence/the_performance_causal/the_performance_causal_9.png"" class=""exp-image"">
                        <div class=""question-area""></div> 
                    </div>","null","","","","","","","",""
"","","","","","html-button-response","90","350505","0.0-90.0","9C7FBD6E05584C4CA5FC05577701FC5F","019ce87d-fc43-76a0-8f8e-715bbd47df24","019ce875-66c2-7f0b-b5e8-086c75889f84","","1061","
                    <div class=""stimulus-container"">
                        <img src=""images/causal_sequence/the_performance_causal/the_performance_causal_9.png"" class=""exp-image"">
                        <div class=""question-area"">
                            <p style=""font-size: 20px; font-weight: bold; margin: 0;"">Is there a person in this image?</p>
                        </div>
                    </div>","0","main_causal_task","9","the_performance_causal","","","","",""
"","","","","","html-keyboard-response","91","351507","0.0-91.0","9C7FBD6E05584C4CA5FC05577701FC5F","019ce87d-fc43-76a0-8f8e-715bbd47df24","019ce875-66c2-7f0b-b5e8-086c75889f84","","null","<div style=""background-color: gray; width: 100vw; height: 100vh;""></div>","null","","","","","","","",""
"","","","","","html-keyboard-response","92","356509","0.0-92.0","9C7FBD6E05584C4CA5FC05577701FC5F","019ce87d-fc43-76a0-8f8e-715bbd47df24","019ce875-66c2-7f0b-b5e8-086c75889f84","","null","
                    <div class=""stimulus-container"">
                        <img src=""images/causal_sequence/dog_causal/dog_causal_1.png"" class=""exp-image"">
                        <div class=""question-area""></div> 
                    </div>","null","","","","","","","",""
"","","","","","html-button-response","93","358904","0.0-93.0","9C7FBD6E05584C4CA5FC05577701FC5F","019ce87d-fc43-76a0-8f8e-715bbd47df24","019ce875-66c2-7f0b-b5e8-086c75889f84","","2394","
                    <div class=""stimulus-container"">
                        <img src=""images/causal_sequence/dog_causal/dog_causal_1.png"" class=""exp-image"">
                        <div class=""question-area"">
                            <p style=""font-size: 20px; font-weight: bold; margin: 0;"">Is there a person in this image?</p>
                        </div>
                    </div>","0","main_causal_task","1","dog_causal","","","","",""
"","","","","","html-keyboard-response","94","363906","0.0-94.0","9C7FBD6E05584C4CA5FC05577701FC5F","019ce87d-fc43-76a0-8f8e-715bbd47df24","019ce875-66c2-7f0b-b5e8-086c75889f84","","null","
                    <div class=""stimulus-container"">
                        <img src=""images/causal_sequence/dog_causal/dog_causal_2.png"" class=""exp-image"">
                        <div class=""question-area""></div> 
                    </div>","null","","","","","","","",""
"","","","","","html-button-response","95","366908","0.0-95.0","9C7FBD6E05584C4CA5FC05577701FC5F","019ce87d-fc43-76a0-8f8e-715bbd47df24","019ce875-66c2-7f0b-b5e8-086c75889f84","","null","
                    <div class=""stimulus-container"">
                        <img src=""images/causal_sequence/dog_causal/dog_causal_2.png"" class=""exp-image"">
                        <div class=""question-area"">
                            <p style=""font-size: 20px; font-weight: bold; margin: 0;"">Is there a person in this image?</p>
                        </div>
                    </div>","null","main_causal_task","2","dog_causal","","","","",""
"","","","","","html-keyboard-response","96","371910","0.0-96.0","9C7FBD6E05584C4CA5FC05577701FC5F","019ce87d-fc43-76a0-8f8e-715bbd47df24","019ce875-66c2-7f0b-b5e8-086c75889f84","","null","
                    <div class=""stimulus-container"">
                        <img src=""images/causal_sequence/dog_causal/dog_causal_3.png"" class=""exp-image"">
                        <div class=""question-area""></div> 
                    </div>","null","","","","","","","",""
"","","","","","html-button-response","97","373795","0.0-97.0","9C7FBD6E05584C4CA5FC05577701FC5F","019ce87d-fc43-76a0-8f8e-715bbd47df24","019ce875-66c2-7f0b-b5e8-086c75889f84","","1884","
                    <div class=""stimulus-container"">
                        <img src=""images/causal_sequence/dog_causal/dog_causal_3.png"" class=""exp-image"">
                        <div class=""question-area"">
                            <p style=""font-size: 20px; font-weight: bold; margin: 0;"">Is there a person in this image?</p>
                        </div>
                    </div>","0","main_causal_task","3","dog_causal","","","","",""
"","","","","","html-keyboard-response","98","378797","0.0-98.0","9C7FBD6E05584C4CA5FC05577701FC5F","019ce87d-fc43-76a0-8f8e-715bbd47df24","019ce875-66c2-7f0b-b5e8-086c75889f84","","null","
                    <div class=""stimulus-container"">
                        <img src=""images/causal_sequence/dog_causal/dog_causal_4.png"" class=""exp-image"">
                        <div class=""question-area""></div> 
                    </div>","null","","","","","","","",""
"","","","","","html-button-response","99","381799","0.0-99.0","9C7FBD6E05584C4CA5FC05577701FC5F","019ce87d-fc43-76a0-8f8e-715bbd47df24","019ce875-66c2-7f0b-b5e8-086c75889f84","","null","
                    <div class=""stimulus-container"">
                        <img src=""images/causal_sequence/dog_causal/dog_causal_4.png"" class=""exp-image"">
                        <div class=""question-area"">
                            <p style=""font-size: 20px; font-weight: bold; margin: 0;"">Is there a person in this image?</p>
                        </div>
                    </div>","null","main_causal_task","4","dog_causal","","","","",""
"","","","","","html-keyboard-response","100","386802","0.0-100.0","9C7FBD6E05584C4CA5FC05577701FC5F","019ce87d-fc43-76a0-8f8e-715bbd47df24","019ce875-66c2-7f0b-b5e8-086c75889f84","","null","
                    <div class=""stimulus-container"">
                        <img src=""images/causal_sequence/dog_causal/dog_causal_5.png"" class=""exp-image"">
                        <div class=""question-area""></div> 
                    </div>","null","","","","","","","",""
"","","","","","html-button-response","101","388984","0.0-101.0","9C7FBD6E05584C4CA5FC05577701FC5F","019ce87d-fc43-76a0-8f8e-715bbd47df24","019ce875-66c2-7f0b-b5e8-086c75889f84","","2181","
                    <div class=""stimulus-container"">
                        <img src=""images/causal_sequence/dog_causal/dog_causal_5.png"" class=""exp-image"">
                        <div class=""question-area"">
                            <p style=""font-size: 20px; font-weight: bold; margin: 0;"">Is there a person in this image?</p>
                        </div>
                    </div>","0","main_causal_task","5","dog_causal","","","","",""
"","","","","","html-keyboard-response","102","393986","0.0-102.0","9C7FBD6E05584C4CA5FC05577701FC5F","019ce87d-fc43-76a0-8f8e-715bbd47df24","019ce875-66c2-7f0b-b5e8-086c75889f84","","null","
                    <div class=""stimulus-container"">
                        <img src=""images/causal_sequence/dog_causal/dog_causal_6.png"" class=""exp-image"">
                        <div class=""question-area""></div> 
                    </div>","null","","","","","","","",""
"","","","","","html-button-response","103","395325","0.0-103.0","9C7FBD6E05584C4CA5FC05577701FC5F","019ce87d-fc43-76a0-8f8e-715bbd47df24","019ce875-66c2-7f0b-b5e8-086c75889f84","","1338","
                    <div class=""stimulus-container"">
                        <img src=""images/causal_sequence/dog_causal/dog_causal_6.png"" class=""exp-image"">
                        <div class=""question-area"">
                            <p style=""font-size: 20px; font-weight: bold; margin: 0;"">Is there a person in this image?</p>
                        </div>
                    </div>","0","main_causal_task","6","dog_causal","","","","",""
"","","","","","html-keyboard-response","104","400328","0.0-104.0","9C7FBD6E05584C4CA5FC05577701FC5F","019ce87d-fc43-76a0-8f8e-715bbd47df24","019ce875-66c2-7f0b-b5e8-086c75889f84","","null","
                    <div class=""stimulus-container"">
                        <img src=""images/causal_sequence/dog_causal/dog_causal_7.png"" class=""exp-image"">
                        <div class=""question-area""></div> 
                    </div>","null","","","","","","","",""
"","","","","","html-button-response","105","401266","0.0-105.0","9C7FBD6E05584C4CA5FC05577701FC5F","019ce87d-fc43-76a0-8f8e-715bbd47df24","019ce875-66c2-7f0b-b5e8-086c75889f84","","938","
                    <div class=""stimulus-container"">
                        <img src=""images/causal_sequence/dog_causal/dog_causal_7.png"" class=""exp-image"">
                        <div class=""question-area"">
                            <p style=""font-size: 20px; font-weight: bold; margin: 0;"">Is there a person in this image?</p>
                        </div>
                    </div>","0","main_causal_task","7","dog_causal","","","","",""
"","","","","","html-keyboard-response","106","406268","0.0-106.0","9C7FBD6E05584C4CA5FC05577701FC5F","019ce87d-fc43-76a0-8f8e-715bbd47df24","019ce875-66c2-7f0b-b5e8-086c75889f84","","null","
                    <div class=""stimulus-container"">
                        <img src=""images/causal_sequence/dog_causal/dog_causal_8.png"" class=""exp-image"">
                        <div class=""question-area""></div> 
                    </div>","null","","","","","","","",""
"","","","","","html-button-response","107","407882","0.0-107.0","9C7FBD6E05584C4CA5FC05577701FC5F","019ce87d-fc43-76a0-8f8e-715bbd47df24","019ce875-66c2-7f0b-b5e8-086c75889f84","","1613","
                    <div class=""stimulus-container"">
                        <img src=""images/causal_sequence/dog_causal/dog_causal_8.png"" class=""exp-image"">
                        <div class=""question-area"">
                            <p style=""font-size: 20px; font-weight: bold; margin: 0;"">Is there a person in this image?</p>
                        </div>
                    </div>","0","main_causal_task","8","dog_causal","","","","",""
"","","","","","html-keyboard-response","108","412885","0.0-108.0","9C7FBD6E05584C4CA5FC05577701FC5F","019ce87d-fc43-76a0-8f8e-715bbd47df24","019ce875-66c2-7f0b-b5e8-086c75889f84","","null","
                    <div class=""stimulus-container"">
                        <img src=""images/causal_sequence/dog_causal/dog_causal_9.png"" class=""exp-image"">
                        <div class=""question-area""></div> 
                    </div>","null","","","","","","","",""
"","","","","","html-button-response","109","414593","0.0-109.0","9C7FBD6E05584C4CA5FC05577701FC5F","019ce87d-fc43-76a0-8f8e-715bbd47df24","019ce875-66c2-7f0b-b5e8-086c75889f84","","1707","
                    <div class=""stimulus-container"">
                        <img src=""images/causal_sequence/dog_causal/dog_causal_9.png"" class=""exp-image"">
                        <div class=""question-area"">
                            <p style=""font-size: 20px; font-weight: bold; margin: 0;"">Is there a person in this image?</p>
                        </div>
                    </div>","0","main_causal_task","9","dog_causal","","","","",""
"","","","","","html-keyboard-response","110","415594","0.0-110.0","9C7FBD6E05584C4CA5FC05577701FC5F","019ce87d-fc43-76a0-8f8e-715bbd47df24","019ce875-66c2-7f0b-b5e8-086c75889f84","","null","<div style=""background-color: gray; width: 100vw; height: 100vh;""></div>","null","","","","","","","",""
"","","","","","html-keyboard-response","111","420596","0.0-111.0","9C7FBD6E05584C4CA5FC05577701FC5F","019ce87d-fc43-76a0-8f8e-715bbd47df24","019ce875-66c2-7f0b-b5e8-086c75889f84","","null","
                    <div class=""stimulus-container"">
                        <img src=""images/causal_sequence/saving_a_cat_causal/saving_a_cat_causal_1.png"" class=""exp-image"">
                        <div class=""question-area""></div> 
                    </div>","null","","","","","","","",""
"","","","","","html-button-response","112","422170","0.0-112.0","9C7FBD6E05584C4CA5FC05577701FC5F","019ce87d-fc43-76a0-8f8e-715bbd47df24","019ce875-66c2-7f0b-b5e8-086c75889f84","","1573","
                    <div class=""stimulus-container"">
                        <img src=""images/causal_sequence/saving_a_cat_causal/saving_a_cat_causal_1.png"" class=""exp-image"">
                        <div class=""question-area"">
                            <p style=""font-size: 20px; font-weight: bold; margin: 0;"">Is there a person in this image?</p>
                        </div>
                    </div>","0","main_causal_task","1","saving_a_cat_causal","","","","",""
"","","","","","html-keyboard-response","113","427172","0.0-113.0","9C7FBD6E05584C4CA5FC05577701FC5F","019ce87d-fc43-76a0-8f8e-715bbd47df24","019ce875-66c2-7f0b-b5e8-086c75889f84","","null","
                    <div class=""stimulus-container"">
                        <img src=""images/causal_sequence/saving_a_cat_causal/saving_a_cat_causal_2.png"" class=""exp-image"">
                        <div class=""question-area""></div> 
                    </div>","null","","","","","","","",""
"","","","","","html-button-response","114","429939","0.0-114.0","9C7FBD6E05584C4CA5FC05577701FC5F","019ce87d-fc43-76a0-8f8e-715bbd47df24","019ce875-66c2-7f0b-b5e8-086c75889f84","","2767","
                    <div class=""stimulus-container"">
                        <img src=""images/causal_sequence/saving_a_cat_causal/saving_a_cat_causal_2.png"" class=""exp-image"">
                        <div class=""question-area"">
                            <p style=""font-size: 20px; font-weight: bold; margin: 0;"">Is there a person in this image?</p>
                        </div>
                    </div>","1","main_causal_task","2","saving_a_cat_causal","","","","",""
"","","","","","html-keyboard-response","115","434942","0.0-115.0","9C7FBD6E05584C4CA5FC05577701FC5F","019ce87d-fc43-76a0-8f8e-715bbd47df24","019ce875-66c2-7f0b-b5e8-086c75889f84","","null","
                    <div class=""stimulus-container"">
                        <img src=""images/causal_sequence/saving_a_cat_causal/saving_a_cat_causal_3.png"" class=""exp-image"">
                        <div class=""question-area""></div> 
                    </div>","null","","","","","","","",""
"","","","","","html-button-response","116","435631","0.0-116.0","9C7FBD6E05584C4CA5FC05577701FC5F","019ce87d-fc43-76a0-8f8e-715bbd47df24","019ce875-66c2-7f0b-b5e8-086c75889f84","","689","
                    <div class=""stimulus-container"">
                        <img src=""images/causal_sequence/saving_a_cat_causal/saving_a_cat_causal_3.png"" class=""exp-image"">
                        <div class=""question-area"">
                            <p style=""font-size: 20px; font-weight: bold; margin: 0;"">Is there a person in this image?</p>
                        </div>
                    </div>","1","main_causal_task","3","saving_a_cat_causal","","","","",""
"","","","","","html-keyboard-response","117","440634","0.0-117.0","9C7FBD6E05584C4CA5FC05577701FC5F","019ce87d-fc43-76a0-8f8e-715bbd47df24","019ce875-66c2-7f0b-b5e8-086c75889f84","","null","
                    <div class=""stimulus-container"">
                        <img src=""images/causal_sequence/saving_a_cat_causal/saving_a_cat_causal_4.png"" class=""exp-image"">
                        <div class=""question-area""></div> 
                    </div>","null","","","","","","","",""
"","","","","","html-button-response","118","442063","0.0-118.0","9C7FBD6E05584C4CA5FC05577701FC5F","019ce87d-fc43-76a0-8f8e-715bbd47df24","019ce875-66c2-7f0b-b5e8-086c75889f84","","1428","
                    <div class=""stimulus-container"">
                        <img src=""images/causal_sequence/saving_a_cat_causal/saving_a_cat_causal_4.png"" class=""exp-image"">
                        <div class=""question-area"">
                            <p style=""font-size: 20px; font-weight: bold; margin: 0;"">Is there a person in this image?</p>
                        </div>
                    </div>","0","main_causal_task","4","saving_a_cat_causal","","","","",""
"","","","","","html-keyboard-response","119","447065","0.0-119.0","9C7FBD6E05584C4CA5FC05577701FC5F","019ce87d-fc43-76a0-8f8e-715bbd47df24","019ce875-66c2-7f0b-b5e8-086c75889f84","","null","
                    <div class=""stimulus-container"">
                        <img src=""images/causal_sequence/saving_a_cat_causal/saving_a_cat_causal_5.png"" class=""exp-image"">
                        <div class=""question-area""></div> 
                    </div>","null","","","","","","","",""
"","","","","","html-button-response","120","450067","0.0-120.0","9C7FBD6E05584C4CA5FC05577701FC5F","019ce87d-fc43-76a0-8f8e-715bbd47df24","019ce875-66c2-7f0b-b5e8-086c75889f84","","null","
                    <div class=""stimulus-container"">
                        <img src=""images/causal_sequence/saving_a_cat_causal/saving_a_cat_causal_5.png"" class=""exp-image"">
                        <div class=""question-area"">
                            <p style=""font-size: 20px; font-weight: bold; margin: 0;"">Is there a person in this image?</p>
                        </div>
                    </div>","null","main_causal_task","5","saving_a_cat_causal","","","","",""
"","","","","","html-keyboard-response","121","455070","0.0-121.0","9C7FBD6E05584C4CA5FC05577701FC5F","019ce87d-fc43-76a0-8f8e-715bbd47df24","019ce875-66c2-7f0b-b5e8-086c75889f84","","null","
                    <div class=""stimulus-container"">
                        <img src=""images/causal_sequence/saving_a_cat_causal/saving_a_cat_causal_6.png"" class=""exp-image"">
                        <div class=""question-area""></div> 
                    </div>","null","","","","","","","",""
"","","","","","html-button-response","122","456891","0.0-122.0","9C7FBD6E05584C4CA5FC05577701FC5F","019ce87d-fc43-76a0-8f8e-715bbd47df24","019ce875-66c2-7f0b-b5e8-086c75889f84","","1820","
                    <div class=""stimulus-container"">
                        <img src=""images/causal_sequence/saving_a_cat_causal/saving_a_cat_causal_6.png"" class=""exp-image"">
                        <div class=""question-area"">
                            <p style=""font-size: 20px; font-weight: bold; margin: 0;"">Is there a person in this image?</p>
                        </div>
                    </div>","0","main_causal_task","6","saving_a_cat_causal","","","","",""
"","","","","","html-keyboard-response","123","461893","0.0-123.0","9C7FBD6E05584C4CA5FC05577701FC5F","019ce87d-fc43-76a0-8f8e-715bbd47df24","019ce875-66c2-7f0b-b5e8-086c75889f84","","null","
                    <div class=""stimulus-container"">
                        <img src=""images/causal_sequence/saving_a_cat_causal/saving_a_cat_causal_7.png"" class=""exp-image"">
                        <div class=""question-area""></div> 
                    </div>","null","","","","","","","",""
"","","","","","html-button-response","124","463954","0.0-124.0","9C7FBD6E05584C4CA5FC05577701FC5F","019ce87d-fc43-76a0-8f8e-715bbd47df24","019ce875-66c2-7f0b-b5e8-086c75889f84","","2060","
                    <div class=""stimulus-container"">
                        <img src=""images/causal_sequence/saving_a_cat_causal/saving_a_cat_causal_7.png"" class=""exp-image"">
                        <div class=""question-area"">
                            <p style=""font-size: 20px; font-weight: bold; margin: 0;"">Is there a person in this image?</p>
                        </div>
                    </div>","0","main_causal_task","7","saving_a_cat_causal","","","","",""
"","","","","","html-keyboard-response","125","468956","0.0-125.0","9C7FBD6E05584C4CA5FC05577701FC5F","019ce87d-fc43-76a0-8f8e-715bbd47df24","019ce875-66c2-7f0b-b5e8-086c75889f84","","null","
                    <div class=""stimulus-container"">
                        <img src=""images/causal_sequence/saving_a_cat_causal/saving_a_cat_causal_8.png"" class=""exp-image"">
                        <div class=""question-area""></div> 
                    </div>","null","","","","","","","",""
"","","","","","html-button-response","126","470656","0.0-126.0","9C7FBD6E05584C4CA5FC05577701FC5F","019ce87d-fc43-76a0-8f8e-715bbd47df24","019ce875-66c2-7f0b-b5e8-086c75889f84","","1699","
                    <div class=""stimulus-container"">
                        <img src=""images/causal_sequence/saving_a_cat_causal/saving_a_cat_causal_8.png"" class=""exp-image"">
                        <div class=""question-area"">
                            <p style=""font-size: 20px; font-weight: bold; margin: 0;"">Is there a person in this image?</p>
                        </div>
                    </div>","0","main_causal_task","8","saving_a_cat_causal","","","","",""
"","","","","","html-keyboard-response","127","475658","0.0-127.0","9C7FBD6E05584C4CA5FC05577701FC5F","019ce87d-fc43-76a0-8f8e-715bbd47df24","019ce875-66c2-7f0b-b5e8-086c75889f84","","null","
                    <div class=""stimulus-container"">
                        <img src=""images/causal_sequence/saving_a_cat_causal/saving_a_cat_causal_9.png"" class=""exp-image"">
                        <div class=""question-area""></div> 
                    </div>","null","","","","","","","",""
"","","","","","html-button-response","128","476919","0.0-128.0","9C7FBD6E05584C4CA5FC05577701FC5F","019ce87d-fc43-76a0-8f8e-715bbd47df24","019ce875-66c2-7f0b-b5e8-086c75889f84","","1260","
                    <div class=""stimulus-container"">
                        <img src=""images/causal_sequence/saving_a_cat_causal/saving_a_cat_causal_9.png"" class=""exp-image"">
                        <div class=""question-area"">
                            <p style=""font-size: 20px; font-weight: bold; margin: 0;"">Is there a person in this image?</p>
                        </div>
                    </div>","0","main_causal_task","9","saving_a_cat_causal","","","","",""
"","","","","","instructions","129","479976","0.0-129.0","9C7FBD6E05584C4CA5FC05577701FC5F","019ce87d-fc43-76a0-8f8e-715bbd47df24","019ce875-66c2-7f0b-b5e8-086c75889f84","[{""page_index"":0,""viewing_time"":3057}]","3057","","","","","","","","","",""
"","","","","","instructions","130","500286","0.0-130.0","9C7FBD6E05584C4CA5FC05577701FC5F","019ce87d-fc43-76a0-8f8e-715bbd47df24","019ce875-66c2-7f0b-b5e8-086c75889f84","[{""page_index"":0,""viewing_time"":20309}]","20310","","","","","","","","","",""
"","","","","","html-button-response","131","507661","0.0-131.0-0.0","9C7FBD6E05584C4CA5FC05577701FC5F","019ce87d-fc43-76a0-8f8e-715bbd47df24","019ce875-66c2-7f0b-b5e8-086c75889f84","","7374","
                <div style=""margin-bottom:20px;""><h3>Example: Valuable Image</h3></div>
                <div class=""stimulus-container"" style=""display: flex; align-items: center; justify-content: center; gap: 30px;"">
                    <img src=""images/instructions/movie_1.png"" class=""exp-image"">
                    <div style=""font-size: 35px; font-weight: bold; color: green; border: 5px solid green; padding: 20px; border-radius: 15px; background-color: #f0fff0;"">
                        WORTH<br>$1
                    </div>
                </div>
                <div class=""question-area""><p>Was there a person in this image?</p></div>","0","","","","","","","",""
"","","","","","html-button-response","132","512078","0.0-131.0-1.0","9C7FBD6E05584C4CA5FC05577701FC5F","019ce87d-fc43-76a0-8f8e-715bbd47df24","019ce875-66c2-7f0b-b5e8-086c75889f84","","4417","
                <div style=""margin-bottom:20px;""><h3>Example: Neutral Image</h3></div>
                <div class=""stimulus-container"" style=""display: flex; align-items: center; justify-content: center; gap: 30px;"">
                    <img src=""images/instructions/movie_2.png"" class=""exp-image"">
                    <div style=""font-size: 35px; font-weight: bold; color: grey; border: 5px solid grey; padding: 20px; border-radius: 15px; background-color: #f0f0f0;"">
                        NEUTRAL<br>VALUE
                    </div>
                </div>
                <div class=""question-area""><p>Was there a person in this image?</p></div>","0","","","","","","","",""
"","","","","","html-keyboard-response","133","520081","0.0-132.0","9C7FBD6E05584C4CA5FC05577701FC5F","019ce87d-fc43-76a0-8f8e-715bbd47df24","019ce875-66c2-7f0b-b5e8-086c75889f84","","null","
            <div class=""stimulus-container"" style=""display: flex; align-items: center; justify-content: center; gap: 30px;"">
                <img src=""images/causal_sequence/package_causal/package_causal_6.png"" class=""exp-image"">
                <div style=""font-size: 40px; font-weight: bold; color: green; border: 5px solid green; padding: 25px; border-radius: 15px; background-color: #f0fff0;"">
                    WORTH<br>$1
                </div>
            </div>
            <div class=""question-area""></div>","null","","","","","","","",""
"","","","","","html-button-response","134","523084","0.0-133.0","9C7FBD6E05584C4CA5FC05577701FC5F","019ce87d-fc43-76a0-8f8e-715bbd47df24","019ce875-66c2-7f0b-b5e8-086c75889f84","","null","
            <div class=""stimulus-container"" style=""display: flex; align-items: center; justify-content: center; gap: 30px;"">
                <img src=""images/causal_sequence/package_causal/package_causal_6.png"" class=""exp-image"">
                <div style=""font-size: 40px; font-weight: bold; color: green; border: 5px solid green; padding: 25px; border-radius: 15px; background-color: #f0fff0;"">
                    WORTH<br>$1
                </div>
            </div>
            <div class=""question-area"">
                <p style=""font-size: 20px; font-weight: bold; margin: 0;"">Was there a person in this image?</p>
            </div>","null","part2_value_learning","","package_causal","6","valuable","","",""
"","","","","","html-keyboard-response","135","531085","0.0-134.0","9C7FBD6E05584C4CA5FC05577701FC5F","019ce87d-fc43-76a0-8f8e-715bbd47df24","019ce875-66c2-7f0b-b5e8-086c75889f84","","null","
            <div class=""stimulus-container"" style=""display: flex; align-items: center; justify-content: center; gap: 30px;"">
                <img src=""images/causal_sequence/coin_causal/coin_causal_6.png"" class=""exp-image"">
                <div style=""font-size: 40px; font-weight: bold; color: green; border: 5px solid green; padding: 25px; border-radius: 15px; background-color: #f0fff0;"">
                    WORTH<br>$1
                </div>
            </div>
            <div class=""question-area""></div>","null","","","","","","","",""
"","","","","","html-button-response","136","532052","0.0-135.0","9C7FBD6E05584C4CA5FC05577701FC5F","019ce87d-fc43-76a0-8f8e-715bbd47df24","019ce875-66c2-7f0b-b5e8-086c75889f84","","966","
            <div class=""stimulus-container"" style=""display: flex; align-items: center; justify-content: center; gap: 30px;"">
                <img src=""images/causal_sequence/coin_causal/coin_causal_6.png"" class=""exp-image"">
                <div style=""font-size: 40px; font-weight: bold; color: green; border: 5px solid green; padding: 25px; border-radius: 15px; background-color: #f0fff0;"">
                    WORTH<br>$1
                </div>
            </div>
            <div class=""question-area"">
                <p style=""font-size: 20px; font-weight: bold; margin: 0;"">Was there a person in this image?</p>
            </div>","0","part2_value_learning","","coin_causal","6","valuable","","",""
"","","","","","html-keyboard-response","137","540055","0.0-136.0","9C7FBD6E05584C4CA5FC05577701FC5F","019ce87d-fc43-76a0-8f8e-715bbd47df24","019ce875-66c2-7f0b-b5e8-086c75889f84","","null","
            <div class=""stimulus-container"" style=""display: flex; align-items: center; justify-content: center; gap: 30px;"">
                <img src=""images/causal_sequence/saving_a_cat_causal/saving_a_cat_causal_3.png"" class=""exp-image"">
                <div style=""font-size: 40px; font-weight: bold; color: green; border: 5px solid green; padding: 25px; border-radius: 15px; background-color: #f0fff0;"">
                    WORTH<br>$1
                </div>
            </div>
            <div class=""question-area""></div>","null","","","","","","","",""
"","","","","","html-button-response","138","541195","0.0-137.0","9C7FBD6E05584C4CA5FC05577701FC5F","019ce87d-fc43-76a0-8f8e-715bbd47df24","019ce875-66c2-7f0b-b5e8-086c75889f84","","1139","
            <div class=""stimulus-container"" style=""display: flex; align-items: center; justify-content: center; gap: 30px;"">
                <img src=""images/causal_sequence/saving_a_cat_causal/saving_a_cat_causal_3.png"" class=""exp-image"">
                <div style=""font-size: 40px; font-weight: bold; color: green; border: 5px solid green; padding: 25px; border-radius: 15px; background-color: #f0fff0;"">
                    WORTH<br>$1
                </div>
            </div>
            <div class=""question-area"">
                <p style=""font-size: 20px; font-weight: bold; margin: 0;"">Was there a person in this image?</p>
            </div>","1","part2_value_learning","","saving_a_cat_causal","3","valuable","","",""
"","","","","","html-keyboard-response","139","549198","0.0-138.0","9C7FBD6E05584C4CA5FC05577701FC5F","019ce87d-fc43-76a0-8f8e-715bbd47df24","019ce875-66c2-7f0b-b5e8-086c75889f84","","null","
            <div class=""stimulus-container"" style=""display: flex; align-items: center; justify-content: center; gap: 30px;"">
                <img src=""images/causal_sequence/the_performance_causal/the_performance_causal_7.png"" class=""exp-image"">
                <div style=""font-size: 40px; font-weight: bold; color: grey; border: 5px solid grey; padding: 25px; border-radius: 15px; background-color: #f0f0f0;"">
                    NEUTRAL<br>VALUE
                </div>
            </div>
            <div class=""question-area""></div>","null","","","","","","","",""
"","","","","","html-button-response","140","551390","0.0-139.0","9C7FBD6E05584C4CA5FC05577701FC5F","019ce87d-fc43-76a0-8f8e-715bbd47df24","019ce875-66c2-7f0b-b5e8-086c75889f84","","2192","
            <div class=""stimulus-container"" style=""display: flex; align-items: center; justify-content: center; gap: 30px;"">
                <img src=""images/causal_sequence/the_performance_causal/the_performance_causal_7.png"" class=""exp-image"">
                <div style=""font-size: 40px; font-weight: bold; color: grey; border: 5px solid grey; padding: 25px; border-radius: 15px; background-color: #f0f0f0;"">
                    NEUTRAL<br>VALUE
                </div>
            </div>
            <div class=""question-area"">
                <p style=""font-size: 20px; font-weight: bold; margin: 0;"">Was there a person in this image?</p>
            </div>","0","part2_value_learning","","the_performance_causal","7","neutral","","",""
"","","","","","html-keyboard-response","141","559392","0.0-140.0","9C7FBD6E05584C4CA5FC05577701FC5F","019ce87d-fc43-76a0-8f8e-715bbd47df24","019ce875-66c2-7f0b-b5e8-086c75889f84","","null","
            <div class=""stimulus-container"" style=""display: flex; align-items: center; justify-content: center; gap: 30px;"">
                <img src=""images/causal_sequence/dog_causal/dog_causal_4.png"" class=""exp-image"">
                <div style=""font-size: 40px; font-weight: bold; color: grey; border: 5px solid grey; padding: 25px; border-radius: 15px; background-color: #f0f0f0;"">
                    NEUTRAL<br>VALUE
                </div>
            </div>
            <div class=""question-area""></div>","null","","","","","","","",""
"","","","","","html-button-response","142","560926","0.0-141.0","9C7FBD6E05584C4CA5FC05577701FC5F","019ce87d-fc43-76a0-8f8e-715bbd47df24","019ce875-66c2-7f0b-b5e8-086c75889f84","","1534","
            <div class=""stimulus-container"" style=""display: flex; align-items: center; justify-content: center; gap: 30px;"">
                <img src=""images/causal_sequence/dog_causal/dog_causal_4.png"" class=""exp-image"">
                <div style=""font-size: 40px; font-weight: bold; color: grey; border: 5px solid grey; padding: 25px; border-radius: 15px; background-color: #f0f0f0;"">
                    NEUTRAL<br>VALUE
                </div>
            </div>
            <div class=""question-area"">
                <p style=""font-size: 20px; font-weight: bold; margin: 0;"">Was there a person in this image?</p>
            </div>","0","part2_value_learning","","dog_causal","4","neutral","","",""
"","","","","","html-keyboard-response","143","568928","0.0-142.0","9C7FBD6E05584C4CA5FC05577701FC5F","019ce87d-fc43-76a0-8f8e-715bbd47df24","019ce875-66c2-7f0b-b5e8-086c75889f84","","null","
            <div class=""stimulus-container"" style=""display: flex; align-items: center; justify-content: center; gap: 30px;"">
                <img src=""images/causal_sequence/museum_causal/museum_causal_3.png"" class=""exp-image"">
                <div style=""font-size: 40px; font-weight: bold; color: grey; border: 5px solid grey; padding: 25px; border-radius: 15px; background-color: #f0f0f0;"">
                    NEUTRAL<br>VALUE
                </div>
            </div>
            <div class=""question-area""></div>","null","","","","","","","",""
"","","","","","html-button-response","144","570231","0.0-143.0","9C7FBD6E05584C4CA5FC05577701FC5F","019ce87d-fc43-76a0-8f8e-715bbd47df24","019ce875-66c2-7f0b-b5e8-086c75889f84","","1302","
            <div class=""stimulus-container"" style=""display: flex; align-items: center; justify-content: center; gap: 30px;"">
                <img src=""images/causal_sequence/museum_causal/museum_causal_3.png"" class=""exp-image"">
                <div style=""font-size: 40px; font-weight: bold; color: grey; border: 5px solid grey; padding: 25px; border-radius: 15px; background-color: #f0f0f0;"">
                    NEUTRAL<br>VALUE
                </div>
            </div>
            <div class=""question-area"">
                <p style=""font-size: 20px; font-weight: bold; margin: 0;"">Was there a person in this image?</p>
            </div>","0","part2_value_learning","","museum_causal","3","neutral","","",""
"","","","","","instructions","145","574544","0.0-144.0","9C7FBD6E05584C4CA5FC05577701FC5F","019ce87d-fc43-76a0-8f8e-715bbd47df24","019ce875-66c2-7f0b-b5e8-086c75889f84","[{""page_index"":0,""viewing_time"":4312}]","4312","","","","","","","","","",""
"","","","","","html-keyboard-response","146","584547","0.0-145.0-0.0","9C7FBD6E05584C4CA5FC05577701FC5F","019ce87d-fc43-76a0-8f8e-715bbd47df24","019ce875-66c2-7f0b-b5e8-086c75889f84","","null","
                        <div style=""font-family: Arial; margin-bottom: 20px;""><h3>Which image is more valuable?</h3></div>
                        <div class=""stimulus-container"" style=""display: flex; width: 1100px; justify-content: center; gap: 50px;"">
                            <img src=""images/causal_sequence/the_performance_causal/the_performance_causal_6.png"" class=""exp-image"">
                            <img src=""images/causal_sequence/the_performance_causal/the_performance_causal_8.png"" class=""exp-image"">
                        </div>","null","","","","","","","",""
"","","","","","html-button-response","147","586075","0.0-145.0-1.0","9C7FBD6E05584C4CA5FC05577701FC5F","019ce87d-fc43-76a0-8f8e-715bbd47df24","019ce875-66c2-7f0b-b5e8-086c75889f84","","1527","
                        <div style=""font-family: Arial; margin-bottom: 20px;""><h3>Which image is more valuable?</h3></div>
                        <div class=""stimulus-container"" style=""display: flex; width: 1100px; justify-content: center; gap: 50px;"">
                            <img src=""images/causal_sequence/the_performance_causal/the_performance_causal_6.png"" class=""exp-image"">
                            <img src=""images/causal_sequence/the_performance_causal/the_performance_causal_8.png"" class=""exp-image"">
                        </div>","1","part3_final_choice","","the_performance_causal","","neutral","7","8","1"
"","","","","","html-keyboard-response","148","596078","0.0-146.0-0.0","9C7FBD6E05584C4CA5FC05577701FC5F","019ce87d-fc43-76a0-8f8e-715bbd47df24","019ce875-66c2-7f0b-b5e8-086c75889f84","","null","
                        <div style=""font-family: Arial; margin-bottom: 20px;""><h3>Which image is more valuable?</h3></div>
                        <div class=""stimulus-container"" style=""display: flex; width: 1100px; justify-content: center; gap: 50px;"">
                            <img src=""images/causal_sequence/coin_causal/coin_causal_7.png"" class=""exp-image"">
                            <img src=""images/causal_sequence/coin_causal/coin_causal_5.png"" class=""exp-image"">
                        </div>","null","","","","","","","",""
"","","","","","html-button-response","149","597636","0.0-146.0-1.0","9C7FBD6E05584C4CA5FC05577701FC5F","019ce87d-fc43-76a0-8f8e-715bbd47df24","019ce875-66c2-7f0b-b5e8-086c75889f84","","1557","
                        <div style=""font-family: Arial; margin-bottom: 20px;""><h3>Which image is more valuable?</h3></div>
                        <div class=""stimulus-container"" style=""display: flex; width: 1100px; justify-content: center; gap: 50px;"">
                            <img src=""images/causal_sequence/coin_causal/coin_causal_7.png"" class=""exp-image"">
                            <img src=""images/causal_sequence/coin_causal/coin_causal_5.png"" class=""exp-image"">
                        </div>","0","part3_final_choice","","coin_causal","","valuable","6","7","1"
"","","","","","html-keyboard-response","150","607638","0.0-147.0-0.0","9C7FBD6E05584C4CA5FC05577701FC5F","019ce87d-fc43-76a0-8f8e-715bbd47df24","019ce875-66c2-7f0b-b5e8-086c75889f84","","null","
                        <div style=""font-family: Arial; margin-bottom: 20px;""><h3>Which image is more valuable?</h3></div>
                        <div class=""stimulus-container"" style=""display: flex; width: 1100px; justify-content: center; gap: 50px;"">
                            <img src=""images/causal_sequence/museum_causal/museum_causal_4.png"" class=""exp-image"">
                            <img src=""images/causal_sequence/museum_causal/museum_causal_2.png"" class=""exp-image"">
                        </div>","null","","","","","","","",""
"","","","","","html-button-response","151","609368","0.0-147.0-1.0","9C7FBD6E05584C4CA5FC05577701FC5F","019ce87d-fc43-76a0-8f8e-715bbd47df24","019ce875-66c2-7f0b-b5e8-086c75889f84","","1729","
                        <div style=""font-family: Arial; margin-bottom: 20px;""><h3>Which image is more valuable?</h3></div>
                        <div class=""stimulus-container"" style=""display: flex; width: 1100px; justify-content: center; gap: 50px;"">
                            <img src=""images/causal_sequence/museum_causal/museum_causal_4.png"" class=""exp-image"">
                            <img src=""images/causal_sequence/museum_causal/museum_causal_2.png"" class=""exp-image"">
                        </div>","1","part3_final_choice","","museum_causal","","neutral","3","2","-1"
"","","","","","html-keyboard-response","152","619370","0.0-148.0-0.0","9C7FBD6E05584C4CA5FC05577701FC5F","019ce87d-fc43-76a0-8f8e-715bbd47df24","019ce875-66c2-7f0b-b5e8-086c75889f84","","null","
                        <div style=""font-family: Arial; margin-bottom: 20px;""><h3>Which image is more valuable?</h3></div>
                        <div class=""stimulus-container"" style=""display: flex; width: 1100px; justify-content: center; gap: 50px;"">
                            <img src=""images/causal_sequence/package_causal/package_causal_5.png"" class=""exp-image"">
                            <img src=""images/causal_sequence/package_causal/package_causal_7.png"" class=""exp-image"">
                        </div>","null","","","","","","","",""
"","","","","","html-button-response","153","620267","0.0-148.0-1.0","9C7FBD6E05584C4CA5FC05577701FC5F","019ce87d-fc43-76a0-8f8e-715bbd47df24","019ce875-66c2-7f0b-b5e8-086c75889f84","","896","
                        <div style=""font-family: Arial; margin-bottom: 20px;""><h3>Which image is more valuable?</h3></div>
                        <div class=""stimulus-container"" style=""display: flex; width: 1100px; justify-content: center; gap: 50px;"">
                            <img src=""images/causal_sequence/package_causal/package_causal_5.png"" class=""exp-image"">
                            <img src=""images/causal_sequence/package_causal/package_causal_7.png"" class=""exp-image"">
                        </div>","0","part3_final_choice","","package_causal","","valuable","6","5","-1"
"","","","","","html-keyboard-response","154","630269","0.0-149.0-0.0","9C7FBD6E05584C4CA5FC05577701FC5F","019ce87d-fc43-76a0-8f8e-715bbd47df24","019ce875-66c2-7f0b-b5e8-086c75889f84","","null","
                        <div style=""font-family: Arial; margin-bottom: 20px;""><h3>Which image is more valuable?</h3></div>
                        <div class=""stimulus-container"" style=""display: flex; width: 1100px; justify-content: center; gap: 50px;"">
                            <img src=""images/causal_sequence/dog_causal/dog_causal_3.png"" class=""exp-image"">
                            <img src=""images/causal_sequence/dog_causal/dog_causal_5.png"" class=""exp-image"">
                        </div>","null","","","","","","","",""
"","","","","","html-button-response","155","634032","0.0-149.0-1.0","9C7FBD6E05584C4CA5FC05577701FC5F","019ce87d-fc43-76a0-8f8e-715bbd47df24","019ce875-66c2-7f0b-b5e8-086c75889f84","","3762","
                        <div style=""font-family: Arial; margin-bottom: 20px;""><h3>Which image is more valuable?</h3></div>
                        <div class=""stimulus-container"" style=""display: flex; width: 1100px; justify-content: center; gap: 50px;"">
                            <img src=""images/causal_sequence/dog_causal/dog_causal_3.png"" class=""exp-image"">
                            <img src=""images/causal_sequence/dog_causal/dog_causal_5.png"" class=""exp-image"">
                        </div>","1","part3_final_choice","","dog_causal","","neutral","4","5","1"
"","","","","","html-keyboard-response","156","644035","0.0-150.0-0.0","9C7FBD6E05584C4CA5FC05577701FC5F","019ce87d-fc43-76a0-8f8e-715bbd47df24","019ce875-66c2-7f0b-b5e8-086c75889f84","","null","
                        <div style=""font-family: Arial; margin-bottom: 20px;""><h3>Which image is more valuable?</h3></div>
                        <div class=""stimulus-container"" style=""display: flex; width: 1100px; justify-content: center; gap: 50px;"">
                            <img src=""images/causal_sequence/saving_a_cat_causal/saving_a_cat_causal_4.png"" class=""exp-image"">
                            <img src=""images/causal_sequence/saving_a_cat_causal/saving_a_cat_causal_2.png"" class=""exp-image"">
                        </div>","null","","","","","","","",""
"","","","","","html-button-response","157","645859","0.0-150.0-1.0","9C7FBD6E05584C4CA5FC05577701FC5F","019ce87d-fc43-76a0-8f8e-715bbd47df24","019ce875-66c2-7f0b-b5e8-086c75889f84","","1824","
                        <div style=""font-family: Arial; margin-bottom: 20px;""><h3>Which image is more valuable?</h3></div>
                        <div class=""stimulus-container"" style=""display: flex; width: 1100px; justify-content: center; gap: 50px;"">
                            <img src=""images/causal_sequence/saving_a_cat_causal/saving_a_cat_causal_4.png"" class=""exp-image"">
                            <img src=""images/causal_sequence/saving_a_cat_causal/saving_a_cat_causal_2.png"" class=""exp-image"">
                        </div>","0","part3_final_choice","","saving_a_cat_causal","","valuable","3","4","1"
"","","","","","survey-text","158","727827","0.0-151.0","9C7FBD6E05584C4CA5FC05577701FC5F","019ce87d-fc43-76a0-8f8e-715bbd47df24","019ce875-66c2-7f0b-b5e8-086c75889f84","","81965","","{""gender"":""MALE"",""age"":""34"",""decision_strategy"":""based on the vales given in sequence of the events"",""consistency_check"":""I used same reasoning ""}","demographics_and_strategy","","","","","","",""
"","","","","","instructions","159","733005","0.0-152.0","9C7FBD6E05584C4CA5FC05577701FC5F","019ce87d-fc43-76a0-8f8e-715bbd47df24","019ce875-66c2-7f0b-b5e8-086c75889f84","[{""page_index"":0,""viewing_time"":5177}]","5177","","","","","","","","","",""
