"success","timeout","failed_images","failed_audio","failed_video","trial_type","trial_index","time_elapsed","internal_node_id","subject_id","study_id","session_id","view_history","rt","stimulus","response","task","image_index","folder","sequence_type","presentation_order","valuable_image_index","reward_type","distance_from_x","target_X","chosen_image_index","is_x_plus_dist","correct_choice"
"true","false","[]","[]","[]","preload","0","5575","0.0-0.0","8EA7FA2D5D9A45CF8DE35D50ECF804EB","019cfc81-7780-75ad-adbd-eaaf801be502","019cfc7b-6c7b-7b1b-afe7-acad8efc6711","","","","","","","","","","","","","","","",""
"","","","","","instructions","1","23408","0.0-1.0","8EA7FA2D5D9A45CF8DE35D50ECF804EB","019cfc81-7780-75ad-adbd-eaaf801be502","019cfc7b-6c7b-7b1b-afe7-acad8efc6711","[{""page_index"":0,""viewing_time"":17832}]","17832","","","","","","","","","","","","","",""
"","","","","","instructions","2","25429","0.0-2.0","8EA7FA2D5D9A45CF8DE35D50ECF804EB","019cfc81-7780-75ad-adbd-eaaf801be502","019cfc7b-6c7b-7b1b-afe7-acad8efc6711","[{""page_index"":0,""viewing_time"":2019}]","2020","","","","","","","","","","","","","",""
"true","","","","","fullscreen","3","31452","0.0-3.0","8EA7FA2D5D9A45CF8DE35D50ECF804EB","019cfc81-7780-75ad-adbd-eaaf801be502","019cfc7b-6c7b-7b1b-afe7-acad8efc6711","","5020","","","","","","","","","","","","","",""
"","","","","","instructions","4","34138","0.0-4.0","8EA7FA2D5D9A45CF8DE35D50ECF804EB","019cfc81-7780-75ad-adbd-eaaf801be502","019cfc7b-6c7b-7b1b-afe7-acad8efc6711","[{""page_index"":0,""viewing_time"":2686}]","2686","","","","","","","","","","","","","",""
"","","","","","instructions","5","35731","0.0-5.0","8EA7FA2D5D9A45CF8DE35D50ECF804EB","019cfc81-7780-75ad-adbd-eaaf801be502","019cfc7b-6c7b-7b1b-afe7-acad8efc6711","[{""page_index"":0,""viewing_time"":1592}]","1592","","","","","","","","","","","","","",""
"","","","","","html-keyboard-response","6","39733","0.0-6.0","8EA7FA2D5D9A45CF8DE35D50ECF804EB","019cfc81-7780-75ad-adbd-eaaf801be502","019cfc7b-6c7b-7b1b-afe7-acad8efc6711","","null","
                <div class=""stimulus-container"">
                    <img src=""images/instructions/movie_1.png"" class=""exp-image"">
                    <div class=""question-area""></div> 
                </div>","null","","","","","","","","","","","",""
"","","","","","html-button-response","7","42340","0.0-7.0","8EA7FA2D5D9A45CF8DE35D50ECF804EB","019cfc81-7780-75ad-adbd-eaaf801be502","019cfc7b-6c7b-7b1b-afe7-acad8efc6711","","2604","
                <div class=""stimulus-container"">
                    <img src=""images/instructions/movie_1.png"" class=""exp-image"">
                    <div class=""question-area"">
                        <p style=""font-size: 20px; font-weight: bold; margin: 0;"">Was there a person in this image?</p>
                    </div>
                </div>","0","example_question","1","","","","","","","","","",""
"","","","","","html-keyboard-response","8","46341","0.0-8.0","8EA7FA2D5D9A45CF8DE35D50ECF804EB","019cfc81-7780-75ad-adbd-eaaf801be502","019cfc7b-6c7b-7b1b-afe7-acad8efc6711","","null","
                <div class=""stimulus-container"">
                    <img src=""images/instructions/movie_2.png"" class=""exp-image"">
                    <div class=""question-area""></div> 
                </div>","null","","","","","","","","","","","",""
"","","","","","html-button-response","9","49343","0.0-9.0","8EA7FA2D5D9A45CF8DE35D50ECF804EB","019cfc81-7780-75ad-adbd-eaaf801be502","019cfc7b-6c7b-7b1b-afe7-acad8efc6711","","null","
                <div class=""stimulus-container"">
                    <img src=""images/instructions/movie_2.png"" class=""exp-image"">
                    <div class=""question-area"">
                        <p style=""font-size: 20px; font-weight: bold; margin: 0;"">Was there a person in this image?</p>
                    </div>
                </div>","null","example_question","2","","","","","","","","","",""
"","","","","","html-keyboard-response","10","53344","0.0-10.0","8EA7FA2D5D9A45CF8DE35D50ECF804EB","019cfc81-7780-75ad-adbd-eaaf801be502","019cfc7b-6c7b-7b1b-afe7-acad8efc6711","","null","
                <div class=""stimulus-container"">
                    <img src=""images/instructions/movie_3.png"" class=""exp-image"">
                    <div class=""question-area""></div> 
                </div>","null","","","","","","","","","","","",""
"","","","","","html-button-response","11","54839","0.0-11.0","8EA7FA2D5D9A45CF8DE35D50ECF804EB","019cfc81-7780-75ad-adbd-eaaf801be502","019cfc7b-6c7b-7b1b-afe7-acad8efc6711","","1493","
                <div class=""stimulus-container"">
                    <img src=""images/instructions/movie_3.png"" class=""exp-image"">
                    <div class=""question-area"">
                        <p style=""font-size: 20px; font-weight: bold; margin: 0;"">Was there a person in this image?</p>
                    </div>
                </div>","0","example_question","3","","","","","","","","","",""
"","","","","","html-keyboard-response","12","58841","0.0-12.0","8EA7FA2D5D9A45CF8DE35D50ECF804EB","019cfc81-7780-75ad-adbd-eaaf801be502","019cfc7b-6c7b-7b1b-afe7-acad8efc6711","","null","
                <div class=""stimulus-container"">
                    <img src=""images/instructions/movie_4.png"" class=""exp-image"">
                    <div class=""question-area""></div> 
                </div>","null","","","","","","","","","","","",""
"","","","","","html-button-response","13","59616","0.0-13.0","8EA7FA2D5D9A45CF8DE35D50ECF804EB","019cfc81-7780-75ad-adbd-eaaf801be502","019cfc7b-6c7b-7b1b-afe7-acad8efc6711","","773","
                <div class=""stimulus-container"">
                    <img src=""images/instructions/movie_4.png"" class=""exp-image"">
                    <div class=""question-area"">
                        <p style=""font-size: 20px; font-weight: bold; margin: 0;"">Was there a person in this image?</p>
                    </div>
                </div>","0","example_question","4","","","","","","","","","",""
"","","","","","instructions","14","61392","0.0-14.0","8EA7FA2D5D9A45CF8DE35D50ECF804EB","019cfc81-7780-75ad-adbd-eaaf801be502","019cfc7b-6c7b-7b1b-afe7-acad8efc6711","[{""page_index"":0,""viewing_time"":1775}]","1775","","","","","","","","","","","","","",""
"","","","","","instructions","15","64528","0.0-15.0","8EA7FA2D5D9A45CF8DE35D50ECF804EB","019cfc81-7780-75ad-adbd-eaaf801be502","019cfc7b-6c7b-7b1b-afe7-acad8efc6711","[{""page_index"":0,""viewing_time"":3136}]","3136","","","","","","","","","","","","","",""
"","","","","","html-keyboard-response","16","69530","0.0-16.0","8EA7FA2D5D9A45CF8DE35D50ECF804EB","019cfc81-7780-75ad-adbd-eaaf801be502","019cfc7b-6c7b-7b1b-afe7-acad8efc6711","","null","<div style=""background-color: white; width: 100vw; height: 100vh;""></div>","null","","","","","","","","","","","",""
"","","","","","html-keyboard-response","17","74531","0.0-17.0","8EA7FA2D5D9A45CF8DE35D50ECF804EB","019cfc81-7780-75ad-adbd-eaaf801be502","019cfc7b-6c7b-7b1b-afe7-acad8efc6711","","null","
                <div class=""stimulus-container"">
                    <img src=""images/causal_sequence/saving_a_cat_causal/saving_a_cat_causal_1.png"" class=""exp-image"">
                    <div class=""question-area""></div> 
                </div>","null","","","","","","","","","","","",""
"","","","","","html-button-response","18","75601","0.0-18.0","8EA7FA2D5D9A45CF8DE35D50ECF804EB","019cfc81-7780-75ad-adbd-eaaf801be502","019cfc7b-6c7b-7b1b-afe7-acad8efc6711","","1069","
                <div class=""stimulus-container"">
                    <img src=""images/causal_sequence/saving_a_cat_causal/saving_a_cat_causal_1.png"" class=""exp-image"">
                    <div class=""question-area"">
                        <p style=""font-size: 20px; font-weight: bold; margin: 0;"">Is there a person in this image?</p>
                    </div>
                </div>","0","main_experiment_trial","1","saving_a_cat_causal","causal_sequence","chronological","","","","","","",""
"","","","","","html-keyboard-response","19","80603","0.0-19.0","8EA7FA2D5D9A45CF8DE35D50ECF804EB","019cfc81-7780-75ad-adbd-eaaf801be502","019cfc7b-6c7b-7b1b-afe7-acad8efc6711","","null","
                <div class=""stimulus-container"">
                    <img src=""images/causal_sequence/saving_a_cat_causal/saving_a_cat_causal_2.png"" class=""exp-image"">
                    <div class=""question-area""></div> 
                </div>","null","","","","","","","","","","","",""
"","","","","","html-button-response","20","82204","0.0-20.0","8EA7FA2D5D9A45CF8DE35D50ECF804EB","019cfc81-7780-75ad-adbd-eaaf801be502","019cfc7b-6c7b-7b1b-afe7-acad8efc6711","","1599","
                <div class=""stimulus-container"">
                    <img src=""images/causal_sequence/saving_a_cat_causal/saving_a_cat_causal_2.png"" class=""exp-image"">
                    <div class=""question-area"">
                        <p style=""font-size: 20px; font-weight: bold; margin: 0;"">Is there a person in this image?</p>
                    </div>
                </div>","1","main_experiment_trial","2","saving_a_cat_causal","causal_sequence","chronological","","","","","","",""
"","","","","","html-keyboard-response","21","87205","0.0-21.0","8EA7FA2D5D9A45CF8DE35D50ECF804EB","019cfc81-7780-75ad-adbd-eaaf801be502","019cfc7b-6c7b-7b1b-afe7-acad8efc6711","","null","
                <div class=""stimulus-container"">
                    <img src=""images/causal_sequence/saving_a_cat_causal/saving_a_cat_causal_3.png"" class=""exp-image"">
                    <div class=""question-area""></div> 
                </div>","null","","","","","","","","","","","",""
"","","","","","html-button-response","22","88430","0.0-22.0","8EA7FA2D5D9A45CF8DE35D50ECF804EB","019cfc81-7780-75ad-adbd-eaaf801be502","019cfc7b-6c7b-7b1b-afe7-acad8efc6711","","1223","
                <div class=""stimulus-container"">
                    <img src=""images/causal_sequence/saving_a_cat_causal/saving_a_cat_causal_3.png"" class=""exp-image"">
                    <div class=""question-area"">
                        <p style=""font-size: 20px; font-weight: bold; margin: 0;"">Is there a person in this image?</p>
                    </div>
                </div>","1","main_experiment_trial","3","saving_a_cat_causal","causal_sequence","chronological","","","","","","",""
"","","","","","html-keyboard-response","23","93431","0.0-23.0","8EA7FA2D5D9A45CF8DE35D50ECF804EB","019cfc81-7780-75ad-adbd-eaaf801be502","019cfc7b-6c7b-7b1b-afe7-acad8efc6711","","null","
                <div class=""stimulus-container"">
                    <img src=""images/causal_sequence/saving_a_cat_causal/saving_a_cat_causal_4.png"" class=""exp-image"">
                    <div class=""question-area""></div> 
                </div>","null","","","","","","","","","","","",""
"","","","","","html-button-response","24","94201","0.0-24.0","8EA7FA2D5D9A45CF8DE35D50ECF804EB","019cfc81-7780-75ad-adbd-eaaf801be502","019cfc7b-6c7b-7b1b-afe7-acad8efc6711","","768","
                <div class=""stimulus-container"">
                    <img src=""images/causal_sequence/saving_a_cat_causal/saving_a_cat_causal_4.png"" class=""exp-image"">
                    <div class=""question-area"">
                        <p style=""font-size: 20px; font-weight: bold; margin: 0;"">Is there a person in this image?</p>
                    </div>
                </div>","0","main_experiment_trial","4","saving_a_cat_causal","causal_sequence","chronological","","","","","","",""
"","","","","","html-keyboard-response","25","99202","0.0-25.0","8EA7FA2D5D9A45CF8DE35D50ECF804EB","019cfc81-7780-75ad-adbd-eaaf801be502","019cfc7b-6c7b-7b1b-afe7-acad8efc6711","","null","
                <div class=""stimulus-container"">
                    <img src=""images/causal_sequence/saving_a_cat_causal/saving_a_cat_causal_5.png"" class=""exp-image"">
                    <div class=""question-area""></div> 
                </div>","null","","","","","","","","","","","",""
"","","","","","html-button-response","26","99917","0.0-26.0","8EA7FA2D5D9A45CF8DE35D50ECF804EB","019cfc81-7780-75ad-adbd-eaaf801be502","019cfc7b-6c7b-7b1b-afe7-acad8efc6711","","714","
                <div class=""stimulus-container"">
                    <img src=""images/causal_sequence/saving_a_cat_causal/saving_a_cat_causal_5.png"" class=""exp-image"">
                    <div class=""question-area"">
                        <p style=""font-size: 20px; font-weight: bold; margin: 0;"">Is there a person in this image?</p>
                    </div>
                </div>","0","main_experiment_trial","5","saving_a_cat_causal","causal_sequence","chronological","","","","","","",""
"","","","","","html-keyboard-response","27","104918","0.0-27.0","8EA7FA2D5D9A45CF8DE35D50ECF804EB","019cfc81-7780-75ad-adbd-eaaf801be502","019cfc7b-6c7b-7b1b-afe7-acad8efc6711","","null","
                <div class=""stimulus-container"">
                    <img src=""images/causal_sequence/saving_a_cat_causal/saving_a_cat_causal_6.png"" class=""exp-image"">
                    <div class=""question-area""></div> 
                </div>","null","","","","","","","","","","","",""
"","","","","","html-button-response","28","105593","0.0-28.0","8EA7FA2D5D9A45CF8DE35D50ECF804EB","019cfc81-7780-75ad-adbd-eaaf801be502","019cfc7b-6c7b-7b1b-afe7-acad8efc6711","","673","
                <div class=""stimulus-container"">
                    <img src=""images/causal_sequence/saving_a_cat_causal/saving_a_cat_causal_6.png"" class=""exp-image"">
                    <div class=""question-area"">
                        <p style=""font-size: 20px; font-weight: bold; margin: 0;"">Is there a person in this image?</p>
                    </div>
                </div>","0","main_experiment_trial","6","saving_a_cat_causal","causal_sequence","chronological","","","","","","",""
"","","","","","html-keyboard-response","29","110594","0.0-29.0","8EA7FA2D5D9A45CF8DE35D50ECF804EB","019cfc81-7780-75ad-adbd-eaaf801be502","019cfc7b-6c7b-7b1b-afe7-acad8efc6711","","null","
                <div class=""stimulus-container"">
                    <img src=""images/causal_sequence/saving_a_cat_causal/saving_a_cat_causal_7.png"" class=""exp-image"">
                    <div class=""question-area""></div> 
                </div>","null","","","","","","","","","","","",""
"","","","","","html-button-response","30","111786","0.0-30.0","8EA7FA2D5D9A45CF8DE35D50ECF804EB","019cfc81-7780-75ad-adbd-eaaf801be502","019cfc7b-6c7b-7b1b-afe7-acad8efc6711","","1190","
                <div class=""stimulus-container"">
                    <img src=""images/causal_sequence/saving_a_cat_causal/saving_a_cat_causal_7.png"" class=""exp-image"">
                    <div class=""question-area"">
                        <p style=""font-size: 20px; font-weight: bold; margin: 0;"">Is there a person in this image?</p>
                    </div>
                </div>","0","main_experiment_trial","7","saving_a_cat_causal","causal_sequence","chronological","","","","","","",""
"","","","","","html-keyboard-response","31","116787","0.0-31.0","8EA7FA2D5D9A45CF8DE35D50ECF804EB","019cfc81-7780-75ad-adbd-eaaf801be502","019cfc7b-6c7b-7b1b-afe7-acad8efc6711","","null","
                <div class=""stimulus-container"">
                    <img src=""images/causal_sequence/saving_a_cat_causal/saving_a_cat_causal_8.png"" class=""exp-image"">
                    <div class=""question-area""></div> 
                </div>","null","","","","","","","","","","","",""
"","","","","","html-button-response","32","117481","0.0-32.0","8EA7FA2D5D9A45CF8DE35D50ECF804EB","019cfc81-7780-75ad-adbd-eaaf801be502","019cfc7b-6c7b-7b1b-afe7-acad8efc6711","","693","
                <div class=""stimulus-container"">
                    <img src=""images/causal_sequence/saving_a_cat_causal/saving_a_cat_causal_8.png"" class=""exp-image"">
                    <div class=""question-area"">
                        <p style=""font-size: 20px; font-weight: bold; margin: 0;"">Is there a person in this image?</p>
                    </div>
                </div>","0","main_experiment_trial","8","saving_a_cat_causal","causal_sequence","chronological","","","","","","",""
"","","","","","html-keyboard-response","33","122483","0.0-33.0","8EA7FA2D5D9A45CF8DE35D50ECF804EB","019cfc81-7780-75ad-adbd-eaaf801be502","019cfc7b-6c7b-7b1b-afe7-acad8efc6711","","null","
                <div class=""stimulus-container"">
                    <img src=""images/causal_sequence/saving_a_cat_causal/saving_a_cat_causal_9.png"" class=""exp-image"">
                    <div class=""question-area""></div> 
                </div>","null","","","","","","","","","","","",""
"","","","","","html-button-response","34","123300","0.0-34.0","8EA7FA2D5D9A45CF8DE35D50ECF804EB","019cfc81-7780-75ad-adbd-eaaf801be502","019cfc7b-6c7b-7b1b-afe7-acad8efc6711","","816","
                <div class=""stimulus-container"">
                    <img src=""images/causal_sequence/saving_a_cat_causal/saving_a_cat_causal_9.png"" class=""exp-image"">
                    <div class=""question-area"">
                        <p style=""font-size: 20px; font-weight: bold; margin: 0;"">Is there a person in this image?</p>
                    </div>
                </div>","0","main_experiment_trial","9","saving_a_cat_causal","causal_sequence","chronological","","","","","","",""
"","","","","","html-keyboard-response","35","128301","0.0-35.0","8EA7FA2D5D9A45CF8DE35D50ECF804EB","019cfc81-7780-75ad-adbd-eaaf801be502","019cfc7b-6c7b-7b1b-afe7-acad8efc6711","","null","
                <div class=""stimulus-container"">
                    <img src=""images/causal_sequence/saving_a_cat_causal/saving_a_cat_causal_ten.png"" class=""exp-image"">
                    <div class=""question-area""></div> 
                </div>","null","","","","","","","","","","","",""
"","","","","","html-button-response","36","129424","0.0-36.0","8EA7FA2D5D9A45CF8DE35D50ECF804EB","019cfc81-7780-75ad-adbd-eaaf801be502","019cfc7b-6c7b-7b1b-afe7-acad8efc6711","","1121","
                <div class=""stimulus-container"">
                    <img src=""images/causal_sequence/saving_a_cat_causal/saving_a_cat_causal_ten.png"" class=""exp-image"">
                    <div class=""question-area"">
                        <p style=""font-size: 20px; font-weight: bold; margin: 0;"">Is there a person in this image?</p>
                    </div>
                </div>","0","main_experiment_trial","ten","saving_a_cat_causal","causal_sequence","chronological","","","","","","",""
"","","","","","html-keyboard-response","37","134425","0.0-37.0","8EA7FA2D5D9A45CF8DE35D50ECF804EB","019cfc81-7780-75ad-adbd-eaaf801be502","019cfc7b-6c7b-7b1b-afe7-acad8efc6711","","null","<div style=""background-color: white; width: 100vw; height: 100vh;""></div>","null","","","","","","","","","","","",""
"","","","","","html-keyboard-response","38","139427","0.0-38.0","8EA7FA2D5D9A45CF8DE35D50ECF804EB","019cfc81-7780-75ad-adbd-eaaf801be502","019cfc7b-6c7b-7b1b-afe7-acad8efc6711","","null","
                <div class=""stimulus-container"">
                    <img src=""images/schematic_sequence/flight_scheme/flight_scheme_1.png"" class=""exp-image"">
                    <div class=""question-area""></div> 
                </div>","null","","","","","","","","","","","",""
"","","","","","html-button-response","39","140889","0.0-39.0","8EA7FA2D5D9A45CF8DE35D50ECF804EB","019cfc81-7780-75ad-adbd-eaaf801be502","019cfc7b-6c7b-7b1b-afe7-acad8efc6711","","1461","
                <div class=""stimulus-container"">
                    <img src=""images/schematic_sequence/flight_scheme/flight_scheme_1.png"" class=""exp-image"">
                    <div class=""question-area"">
                        <p style=""font-size: 20px; font-weight: bold; margin: 0;"">Is there a person in this image?</p>
                    </div>
                </div>","0","main_experiment_trial","1","flight_scheme","schematic_sequence","chronological","","","","","","",""
"","","","","","html-keyboard-response","40","145891","0.0-40.0","8EA7FA2D5D9A45CF8DE35D50ECF804EB","019cfc81-7780-75ad-adbd-eaaf801be502","019cfc7b-6c7b-7b1b-afe7-acad8efc6711","","null","
                <div class=""stimulus-container"">
                    <img src=""images/schematic_sequence/flight_scheme/flight_scheme_2.png"" class=""exp-image"">
                    <div class=""question-area""></div> 
                </div>","null","","","","","","","","","","","",""
"","","","","","html-button-response","41","146985","0.0-41.0","8EA7FA2D5D9A45CF8DE35D50ECF804EB","019cfc81-7780-75ad-adbd-eaaf801be502","019cfc7b-6c7b-7b1b-afe7-acad8efc6711","","1093","
                <div class=""stimulus-container"">
                    <img src=""images/schematic_sequence/flight_scheme/flight_scheme_2.png"" class=""exp-image"">
                    <div class=""question-area"">
                        <p style=""font-size: 20px; font-weight: bold; margin: 0;"">Is there a person in this image?</p>
                    </div>
                </div>","1","main_experiment_trial","2","flight_scheme","schematic_sequence","chronological","","","","","","",""
"","","","","","html-keyboard-response","42","151987","0.0-42.0","8EA7FA2D5D9A45CF8DE35D50ECF804EB","019cfc81-7780-75ad-adbd-eaaf801be502","019cfc7b-6c7b-7b1b-afe7-acad8efc6711","","null","
                <div class=""stimulus-container"">
                    <img src=""images/schematic_sequence/flight_scheme/flight_scheme_3.png"" class=""exp-image"">
                    <div class=""question-area""></div> 
                </div>","null","","","","","","","","","","","",""
"","","","","","html-button-response","43","153014","0.0-43.0","8EA7FA2D5D9A45CF8DE35D50ECF804EB","019cfc81-7780-75ad-adbd-eaaf801be502","019cfc7b-6c7b-7b1b-afe7-acad8efc6711","","1026","
                <div class=""stimulus-container"">
                    <img src=""images/schematic_sequence/flight_scheme/flight_scheme_3.png"" class=""exp-image"">
                    <div class=""question-area"">
                        <p style=""font-size: 20px; font-weight: bold; margin: 0;"">Is there a person in this image?</p>
                    </div>
                </div>","0","main_experiment_trial","3","flight_scheme","schematic_sequence","chronological","","","","","","",""
"","","","","","html-keyboard-response","44","158016","0.0-44.0","8EA7FA2D5D9A45CF8DE35D50ECF804EB","019cfc81-7780-75ad-adbd-eaaf801be502","019cfc7b-6c7b-7b1b-afe7-acad8efc6711","","null","
                <div class=""stimulus-container"">
                    <img src=""images/schematic_sequence/flight_scheme/flight_scheme_4.png"" class=""exp-image"">
                    <div class=""question-area""></div> 
                </div>","null","","","","","","","","","","","",""
"","","","","","html-button-response","45","159227","0.0-45.0","8EA7FA2D5D9A45CF8DE35D50ECF804EB","019cfc81-7780-75ad-adbd-eaaf801be502","019cfc7b-6c7b-7b1b-afe7-acad8efc6711","","1210","
                <div class=""stimulus-container"">
                    <img src=""images/schematic_sequence/flight_scheme/flight_scheme_4.png"" class=""exp-image"">
                    <div class=""question-area"">
                        <p style=""font-size: 20px; font-weight: bold; margin: 0;"">Is there a person in this image?</p>
                    </div>
                </div>","0","main_experiment_trial","4","flight_scheme","schematic_sequence","chronological","","","","","","",""
"","","","","","html-keyboard-response","46","164229","0.0-46.0","8EA7FA2D5D9A45CF8DE35D50ECF804EB","019cfc81-7780-75ad-adbd-eaaf801be502","019cfc7b-6c7b-7b1b-afe7-acad8efc6711","","null","
                <div class=""stimulus-container"">
                    <img src=""images/schematic_sequence/flight_scheme/flight_scheme_5.png"" class=""exp-image"">
                    <div class=""question-area""></div> 
                </div>","null","","","","","","","","","","","",""
"","","","","","html-button-response","47","165120","0.0-47.0","8EA7FA2D5D9A45CF8DE35D50ECF804EB","019cfc81-7780-75ad-adbd-eaaf801be502","019cfc7b-6c7b-7b1b-afe7-acad8efc6711","","889","
                <div class=""stimulus-container"">
                    <img src=""images/schematic_sequence/flight_scheme/flight_scheme_5.png"" class=""exp-image"">
                    <div class=""question-area"">
                        <p style=""font-size: 20px; font-weight: bold; margin: 0;"">Is there a person in this image?</p>
                    </div>
                </div>","0","main_experiment_trial","5","flight_scheme","schematic_sequence","chronological","","","","","","",""
"","","","","","html-keyboard-response","48","170121","0.0-48.0","8EA7FA2D5D9A45CF8DE35D50ECF804EB","019cfc81-7780-75ad-adbd-eaaf801be502","019cfc7b-6c7b-7b1b-afe7-acad8efc6711","","null","
                <div class=""stimulus-container"">
                    <img src=""images/schematic_sequence/flight_scheme/flight_scheme_6.png"" class=""exp-image"">
                    <div class=""question-area""></div> 
                </div>","null","","","","","","","","","","","",""
"","","","","","html-button-response","49","171047","0.0-49.0","8EA7FA2D5D9A45CF8DE35D50ECF804EB","019cfc81-7780-75ad-adbd-eaaf801be502","019cfc7b-6c7b-7b1b-afe7-acad8efc6711","","925","
                <div class=""stimulus-container"">
                    <img src=""images/schematic_sequence/flight_scheme/flight_scheme_6.png"" class=""exp-image"">
                    <div class=""question-area"">
                        <p style=""font-size: 20px; font-weight: bold; margin: 0;"">Is there a person in this image?</p>
                    </div>
                </div>","1","main_experiment_trial","6","flight_scheme","schematic_sequence","chronological","","","","","","",""
"","","","","","html-keyboard-response","50","176049","0.0-50.0","8EA7FA2D5D9A45CF8DE35D50ECF804EB","019cfc81-7780-75ad-adbd-eaaf801be502","019cfc7b-6c7b-7b1b-afe7-acad8efc6711","","null","
                <div class=""stimulus-container"">
                    <img src=""images/schematic_sequence/flight_scheme/flight_scheme_7.png"" class=""exp-image"">
                    <div class=""question-area""></div> 
                </div>","null","","","","","","","","","","","",""
"","","","","","html-button-response","51","176893","0.0-51.0","8EA7FA2D5D9A45CF8DE35D50ECF804EB","019cfc81-7780-75ad-adbd-eaaf801be502","019cfc7b-6c7b-7b1b-afe7-acad8efc6711","","843","
                <div class=""stimulus-container"">
                    <img src=""images/schematic_sequence/flight_scheme/flight_scheme_7.png"" class=""exp-image"">
                    <div class=""question-area"">
                        <p style=""font-size: 20px; font-weight: bold; margin: 0;"">Is there a person in this image?</p>
                    </div>
                </div>","0","main_experiment_trial","7","flight_scheme","schematic_sequence","chronological","","","","","","",""
"","","","","","html-keyboard-response","52","181894","0.0-52.0","8EA7FA2D5D9A45CF8DE35D50ECF804EB","019cfc81-7780-75ad-adbd-eaaf801be502","019cfc7b-6c7b-7b1b-afe7-acad8efc6711","","null","
                <div class=""stimulus-container"">
                    <img src=""images/schematic_sequence/flight_scheme/flight_scheme_8.png"" class=""exp-image"">
                    <div class=""question-area""></div> 
                </div>","null","","","","","","","","","","","",""
"","","","","","html-button-response","53","182805","0.0-53.0","8EA7FA2D5D9A45CF8DE35D50ECF804EB","019cfc81-7780-75ad-adbd-eaaf801be502","019cfc7b-6c7b-7b1b-afe7-acad8efc6711","","910","
                <div class=""stimulus-container"">
                    <img src=""images/schematic_sequence/flight_scheme/flight_scheme_8.png"" class=""exp-image"">
                    <div class=""question-area"">
                        <p style=""font-size: 20px; font-weight: bold; margin: 0;"">Is there a person in this image?</p>
                    </div>
                </div>","1","main_experiment_trial","8","flight_scheme","schematic_sequence","chronological","","","","","","",""
"","","","","","html-keyboard-response","54","187807","0.0-54.0","8EA7FA2D5D9A45CF8DE35D50ECF804EB","019cfc81-7780-75ad-adbd-eaaf801be502","019cfc7b-6c7b-7b1b-afe7-acad8efc6711","","null","
                <div class=""stimulus-container"">
                    <img src=""images/schematic_sequence/flight_scheme/flight_scheme_9.png"" class=""exp-image"">
                    <div class=""question-area""></div> 
                </div>","null","","","","","","","","","","","",""
"","","","","","html-button-response","55","188548","0.0-55.0","8EA7FA2D5D9A45CF8DE35D50ECF804EB","019cfc81-7780-75ad-adbd-eaaf801be502","019cfc7b-6c7b-7b1b-afe7-acad8efc6711","","740","
                <div class=""stimulus-container"">
                    <img src=""images/schematic_sequence/flight_scheme/flight_scheme_9.png"" class=""exp-image"">
                    <div class=""question-area"">
                        <p style=""font-size: 20px; font-weight: bold; margin: 0;"">Is there a person in this image?</p>
                    </div>
                </div>","0","main_experiment_trial","9","flight_scheme","schematic_sequence","chronological","","","","","","",""
"","","","","","html-keyboard-response","56","193549","0.0-56.0","8EA7FA2D5D9A45CF8DE35D50ECF804EB","019cfc81-7780-75ad-adbd-eaaf801be502","019cfc7b-6c7b-7b1b-afe7-acad8efc6711","","null","
                <div class=""stimulus-container"">
                    <img src=""images/schematic_sequence/flight_scheme/flight_scheme_ten.png"" class=""exp-image"">
                    <div class=""question-area""></div> 
                </div>","null","","","","","","","","","","","",""
"","","","","","html-button-response","57","194256","0.0-57.0","8EA7FA2D5D9A45CF8DE35D50ECF804EB","019cfc81-7780-75ad-adbd-eaaf801be502","019cfc7b-6c7b-7b1b-afe7-acad8efc6711","","705","
                <div class=""stimulus-container"">
                    <img src=""images/schematic_sequence/flight_scheme/flight_scheme_ten.png"" class=""exp-image"">
                    <div class=""question-area"">
                        <p style=""font-size: 20px; font-weight: bold; margin: 0;"">Is there a person in this image?</p>
                    </div>
                </div>","0","main_experiment_trial","ten","flight_scheme","schematic_sequence","chronological","","","","","","",""
"","","","","","html-keyboard-response","58","199258","0.0-58.0","8EA7FA2D5D9A45CF8DE35D50ECF804EB","019cfc81-7780-75ad-adbd-eaaf801be502","019cfc7b-6c7b-7b1b-afe7-acad8efc6711","","null","<div style=""background-color: white; width: 100vw; height: 100vh;""></div>","null","","","","","","","","","","","",""
"","","","","","html-keyboard-response","59","204259","0.0-59.0","8EA7FA2D5D9A45CF8DE35D50ECF804EB","019cfc81-7780-75ad-adbd-eaaf801be502","019cfc7b-6c7b-7b1b-afe7-acad8efc6711","","null","
                <div class=""stimulus-container"">
                    <img src=""images/schematic_sequence/hotel_scheme/hotel_scheme_1.png"" class=""exp-image"">
                    <div class=""question-area""></div> 
                </div>","null","","","","","","","","","","","",""
"","","","","","html-button-response","60","205074","0.0-60.0","8EA7FA2D5D9A45CF8DE35D50ECF804EB","019cfc81-7780-75ad-adbd-eaaf801be502","019cfc7b-6c7b-7b1b-afe7-acad8efc6711","","814","
                <div class=""stimulus-container"">
                    <img src=""images/schematic_sequence/hotel_scheme/hotel_scheme_1.png"" class=""exp-image"">
                    <div class=""question-area"">
                        <p style=""font-size: 20px; font-weight: bold; margin: 0;"">Is there a person in this image?</p>
                    </div>
                </div>","1","main_experiment_trial","1","hotel_scheme","schematic_sequence","chronological","","","","","","",""
"","","","","","html-keyboard-response","61","210075","0.0-61.0","8EA7FA2D5D9A45CF8DE35D50ECF804EB","019cfc81-7780-75ad-adbd-eaaf801be502","019cfc7b-6c7b-7b1b-afe7-acad8efc6711","","null","
                <div class=""stimulus-container"">
                    <img src=""images/schematic_sequence/hotel_scheme/hotel_scheme_2.png"" class=""exp-image"">
                    <div class=""question-area""></div> 
                </div>","null","","","","","","","","","","","",""
"","","","","","html-button-response","62","210946","0.0-62.0","8EA7FA2D5D9A45CF8DE35D50ECF804EB","019cfc81-7780-75ad-adbd-eaaf801be502","019cfc7b-6c7b-7b1b-afe7-acad8efc6711","","869","
                <div class=""stimulus-container"">
                    <img src=""images/schematic_sequence/hotel_scheme/hotel_scheme_2.png"" class=""exp-image"">
                    <div class=""question-area"">
                        <p style=""font-size: 20px; font-weight: bold; margin: 0;"">Is there a person in this image?</p>
                    </div>
                </div>","0","main_experiment_trial","2","hotel_scheme","schematic_sequence","chronological","","","","","","",""
"","","","","","html-keyboard-response","63","215947","0.0-63.0","8EA7FA2D5D9A45CF8DE35D50ECF804EB","019cfc81-7780-75ad-adbd-eaaf801be502","019cfc7b-6c7b-7b1b-afe7-acad8efc6711","","null","
                <div class=""stimulus-container"">
                    <img src=""images/schematic_sequence/hotel_scheme/hotel_scheme_3.png"" class=""exp-image"">
                    <div class=""question-area""></div> 
                </div>","null","","","","","","","","","","","",""
"","","","","","html-button-response","64","216634","0.0-64.0","8EA7FA2D5D9A45CF8DE35D50ECF804EB","019cfc81-7780-75ad-adbd-eaaf801be502","019cfc7b-6c7b-7b1b-afe7-acad8efc6711","","686","
                <div class=""stimulus-container"">
                    <img src=""images/schematic_sequence/hotel_scheme/hotel_scheme_3.png"" class=""exp-image"">
                    <div class=""question-area"">
                        <p style=""font-size: 20px; font-weight: bold; margin: 0;"">Is there a person in this image?</p>
                    </div>
                </div>","0","main_experiment_trial","3","hotel_scheme","schematic_sequence","chronological","","","","","","",""
"","","","","","html-keyboard-response","65","221635","0.0-65.0","8EA7FA2D5D9A45CF8DE35D50ECF804EB","019cfc81-7780-75ad-adbd-eaaf801be502","019cfc7b-6c7b-7b1b-afe7-acad8efc6711","","null","
                <div class=""stimulus-container"">
                    <img src=""images/schematic_sequence/hotel_scheme/hotel_scheme_4.png"" class=""exp-image"">
                    <div class=""question-area""></div> 
                </div>","null","","","","","","","","","","","",""
"","","","","","html-button-response","66","223056","0.0-66.0","8EA7FA2D5D9A45CF8DE35D50ECF804EB","019cfc81-7780-75ad-adbd-eaaf801be502","019cfc7b-6c7b-7b1b-afe7-acad8efc6711","","1420","
                <div class=""stimulus-container"">
                    <img src=""images/schematic_sequence/hotel_scheme/hotel_scheme_4.png"" class=""exp-image"">
                    <div class=""question-area"">
                        <p style=""font-size: 20px; font-weight: bold; margin: 0;"">Is there a person in this image?</p>
                    </div>
                </div>","1","main_experiment_trial","4","hotel_scheme","schematic_sequence","chronological","","","","","","",""
"","","","","","html-keyboard-response","67","228058","0.0-67.0","8EA7FA2D5D9A45CF8DE35D50ECF804EB","019cfc81-7780-75ad-adbd-eaaf801be502","019cfc7b-6c7b-7b1b-afe7-acad8efc6711","","null","
                <div class=""stimulus-container"">
                    <img src=""images/schematic_sequence/hotel_scheme/hotel_scheme_5.png"" class=""exp-image"">
                    <div class=""question-area""></div> 
                </div>","null","","","","","","","","","","","",""
"","","","","","html-button-response","68","229601","0.0-68.0","8EA7FA2D5D9A45CF8DE35D50ECF804EB","019cfc81-7780-75ad-adbd-eaaf801be502","019cfc7b-6c7b-7b1b-afe7-acad8efc6711","","1542","
                <div class=""stimulus-container"">
                    <img src=""images/schematic_sequence/hotel_scheme/hotel_scheme_5.png"" class=""exp-image"">
                    <div class=""question-area"">
                        <p style=""font-size: 20px; font-weight: bold; margin: 0;"">Is there a person in this image?</p>
                    </div>
                </div>","0","main_experiment_trial","5","hotel_scheme","schematic_sequence","chronological","","","","","","",""
"","","","","","html-keyboard-response","69","234602","0.0-69.0","8EA7FA2D5D9A45CF8DE35D50ECF804EB","019cfc81-7780-75ad-adbd-eaaf801be502","019cfc7b-6c7b-7b1b-afe7-acad8efc6711","","null","
                <div class=""stimulus-container"">
                    <img src=""images/schematic_sequence/hotel_scheme/hotel_scheme_6.png"" class=""exp-image"">
                    <div class=""question-area""></div> 
                </div>","null","","","","","","","","","","","",""
"","","","","","html-button-response","70","237093","0.0-70.0","8EA7FA2D5D9A45CF8DE35D50ECF804EB","019cfc81-7780-75ad-adbd-eaaf801be502","019cfc7b-6c7b-7b1b-afe7-acad8efc6711","","2489","
                <div class=""stimulus-container"">
                    <img src=""images/schematic_sequence/hotel_scheme/hotel_scheme_6.png"" class=""exp-image"">
                    <div class=""question-area"">
                        <p style=""font-size: 20px; font-weight: bold; margin: 0;"">Is there a person in this image?</p>
                    </div>
                </div>","0","main_experiment_trial","6","hotel_scheme","schematic_sequence","chronological","","","","","","",""
"","","","","","html-keyboard-response","71","242094","0.0-71.0","8EA7FA2D5D9A45CF8DE35D50ECF804EB","019cfc81-7780-75ad-adbd-eaaf801be502","019cfc7b-6c7b-7b1b-afe7-acad8efc6711","","null","
                <div class=""stimulus-container"">
                    <img src=""images/schematic_sequence/hotel_scheme/hotel_scheme_7.png"" class=""exp-image"">
                    <div class=""question-area""></div> 
                </div>","null","","","","","","","","","","","",""
"","","","","","html-button-response","72","243658","0.0-72.0","8EA7FA2D5D9A45CF8DE35D50ECF804EB","019cfc81-7780-75ad-adbd-eaaf801be502","019cfc7b-6c7b-7b1b-afe7-acad8efc6711","","1563","
                <div class=""stimulus-container"">
                    <img src=""images/schematic_sequence/hotel_scheme/hotel_scheme_7.png"" class=""exp-image"">
                    <div class=""question-area"">
                        <p style=""font-size: 20px; font-weight: bold; margin: 0;"">Is there a person in this image?</p>
                    </div>
                </div>","0","main_experiment_trial","7","hotel_scheme","schematic_sequence","chronological","","","","","","",""
"","","","","","html-keyboard-response","73","248659","0.0-73.0","8EA7FA2D5D9A45CF8DE35D50ECF804EB","019cfc81-7780-75ad-adbd-eaaf801be502","019cfc7b-6c7b-7b1b-afe7-acad8efc6711","","null","
                <div class=""stimulus-container"">
                    <img src=""images/schematic_sequence/hotel_scheme/hotel_scheme_8.png"" class=""exp-image"">
                    <div class=""question-area""></div> 
                </div>","null","","","","","","","","","","","",""
"","","","","","html-button-response","74","249551","0.0-74.0","8EA7FA2D5D9A45CF8DE35D50ECF804EB","019cfc81-7780-75ad-adbd-eaaf801be502","019cfc7b-6c7b-7b1b-afe7-acad8efc6711","","891","
                <div class=""stimulus-container"">
                    <img src=""images/schematic_sequence/hotel_scheme/hotel_scheme_8.png"" class=""exp-image"">
                    <div class=""question-area"">
                        <p style=""font-size: 20px; font-weight: bold; margin: 0;"">Is there a person in this image?</p>
                    </div>
                </div>","0","main_experiment_trial","8","hotel_scheme","schematic_sequence","chronological","","","","","","",""
"","","","","","html-keyboard-response","75","254552","0.0-75.0","8EA7FA2D5D9A45CF8DE35D50ECF804EB","019cfc81-7780-75ad-adbd-eaaf801be502","019cfc7b-6c7b-7b1b-afe7-acad8efc6711","","null","
                <div class=""stimulus-container"">
                    <img src=""images/schematic_sequence/hotel_scheme/hotel_scheme_9.png"" class=""exp-image"">
                    <div class=""question-area""></div> 
                </div>","null","","","","","","","","","","","",""
"","","","","","html-button-response","76","255470","0.0-76.0","8EA7FA2D5D9A45CF8DE35D50ECF804EB","019cfc81-7780-75ad-adbd-eaaf801be502","019cfc7b-6c7b-7b1b-afe7-acad8efc6711","","917","
                <div class=""stimulus-container"">
                    <img src=""images/schematic_sequence/hotel_scheme/hotel_scheme_9.png"" class=""exp-image"">
                    <div class=""question-area"">
                        <p style=""font-size: 20px; font-weight: bold; margin: 0;"">Is there a person in this image?</p>
                    </div>
                </div>","0","main_experiment_trial","9","hotel_scheme","schematic_sequence","chronological","","","","","","",""
"","","","","","html-keyboard-response","77","260472","0.0-77.0","8EA7FA2D5D9A45CF8DE35D50ECF804EB","019cfc81-7780-75ad-adbd-eaaf801be502","019cfc7b-6c7b-7b1b-afe7-acad8efc6711","","null","
                <div class=""stimulus-container"">
                    <img src=""images/schematic_sequence/hotel_scheme/hotel_scheme_ten.png"" class=""exp-image"">
                    <div class=""question-area""></div> 
                </div>","null","","","","","","","","","","","",""
"","","","","","html-button-response","78","261309","0.0-78.0","8EA7FA2D5D9A45CF8DE35D50ECF804EB","019cfc81-7780-75ad-adbd-eaaf801be502","019cfc7b-6c7b-7b1b-afe7-acad8efc6711","","836","
                <div class=""stimulus-container"">
                    <img src=""images/schematic_sequence/hotel_scheme/hotel_scheme_ten.png"" class=""exp-image"">
                    <div class=""question-area"">
                        <p style=""font-size: 20px; font-weight: bold; margin: 0;"">Is there a person in this image?</p>
                    </div>
                </div>","0","main_experiment_trial","ten","hotel_scheme","schematic_sequence","chronological","","","","","","",""
"","","","","","html-keyboard-response","79","266310","0.0-79.0","8EA7FA2D5D9A45CF8DE35D50ECF804EB","019cfc81-7780-75ad-adbd-eaaf801be502","019cfc7b-6c7b-7b1b-afe7-acad8efc6711","","null","<div style=""background-color: white; width: 100vw; height: 100vh;""></div>","null","","","","","","","","","","","",""
"","","","","","html-keyboard-response","80","271311","0.0-80.0","8EA7FA2D5D9A45CF8DE35D50ECF804EB","019cfc81-7780-75ad-adbd-eaaf801be502","019cfc7b-6c7b-7b1b-afe7-acad8efc6711","","null","
                <div class=""stimulus-container"">
                    <img src=""images/semantic_sequence/maintaining_a_car_semantic/maintaining_a_car_semantic_1.png"" class=""exp-image"">
                    <div class=""question-area""></div> 
                </div>","null","","","","","","","","","","","",""
"","","","","","html-button-response","81","272610","0.0-81.0","8EA7FA2D5D9A45CF8DE35D50ECF804EB","019cfc81-7780-75ad-adbd-eaaf801be502","019cfc7b-6c7b-7b1b-afe7-acad8efc6711","","1298","
                <div class=""stimulus-container"">
                    <img src=""images/semantic_sequence/maintaining_a_car_semantic/maintaining_a_car_semantic_1.png"" class=""exp-image"">
                    <div class=""question-area"">
                        <p style=""font-size: 20px; font-weight: bold; margin: 0;"">Is there a person in this image?</p>
                    </div>
                </div>","0","main_experiment_trial","1","maintaining_a_car_semantic","semantic_sequence","chronological","","","","","","",""
"","","","","","html-keyboard-response","82","277611","0.0-82.0","8EA7FA2D5D9A45CF8DE35D50ECF804EB","019cfc81-7780-75ad-adbd-eaaf801be502","019cfc7b-6c7b-7b1b-afe7-acad8efc6711","","null","
                <div class=""stimulus-container"">
                    <img src=""images/semantic_sequence/maintaining_a_car_semantic/maintaining_a_car_semantic_2.png"" class=""exp-image"">
                    <div class=""question-area""></div> 
                </div>","null","","","","","","","","","","","",""
"","","","","","html-button-response","83","278932","0.0-83.0","8EA7FA2D5D9A45CF8DE35D50ECF804EB","019cfc81-7780-75ad-adbd-eaaf801be502","019cfc7b-6c7b-7b1b-afe7-acad8efc6711","","1319","
                <div class=""stimulus-container"">
                    <img src=""images/semantic_sequence/maintaining_a_car_semantic/maintaining_a_car_semantic_2.png"" class=""exp-image"">
                    <div class=""question-area"">
                        <p style=""font-size: 20px; font-weight: bold; margin: 0;"">Is there a person in this image?</p>
                    </div>
                </div>","0","main_experiment_trial","2","maintaining_a_car_semantic","semantic_sequence","chronological","","","","","","",""
"","","","","","html-keyboard-response","84","283933","0.0-84.0","8EA7FA2D5D9A45CF8DE35D50ECF804EB","019cfc81-7780-75ad-adbd-eaaf801be502","019cfc7b-6c7b-7b1b-afe7-acad8efc6711","","null","
                <div class=""stimulus-container"">
                    <img src=""images/semantic_sequence/maintaining_a_car_semantic/maintaining_a_car_semantic_3.png"" class=""exp-image"">
                    <div class=""question-area""></div> 
                </div>","null","","","","","","","","","","","",""
"","","","","","html-button-response","85","286935","0.0-85.0","8EA7FA2D5D9A45CF8DE35D50ECF804EB","019cfc81-7780-75ad-adbd-eaaf801be502","019cfc7b-6c7b-7b1b-afe7-acad8efc6711","","null","
                <div class=""stimulus-container"">
                    <img src=""images/semantic_sequence/maintaining_a_car_semantic/maintaining_a_car_semantic_3.png"" class=""exp-image"">
                    <div class=""question-area"">
                        <p style=""font-size: 20px; font-weight: bold; margin: 0;"">Is there a person in this image?</p>
                    </div>
                </div>","null","main_experiment_trial","3","maintaining_a_car_semantic","semantic_sequence","chronological","","","","","","",""
"","","","","","html-keyboard-response","86","291936","0.0-86.0","8EA7FA2D5D9A45CF8DE35D50ECF804EB","019cfc81-7780-75ad-adbd-eaaf801be502","019cfc7b-6c7b-7b1b-afe7-acad8efc6711","","null","
                <div class=""stimulus-container"">
                    <img src=""images/semantic_sequence/maintaining_a_car_semantic/maintaining_a_car_semantic_4.png"" class=""exp-image"">
                    <div class=""question-area""></div> 
                </div>","null","","","","","","","","","","","",""
"","","","","","html-button-response","87","292527","0.0-87.0","8EA7FA2D5D9A45CF8DE35D50ECF804EB","019cfc81-7780-75ad-adbd-eaaf801be502","019cfc7b-6c7b-7b1b-afe7-acad8efc6711","","589","
                <div class=""stimulus-container"">
                    <img src=""images/semantic_sequence/maintaining_a_car_semantic/maintaining_a_car_semantic_4.png"" class=""exp-image"">
                    <div class=""question-area"">
                        <p style=""font-size: 20px; font-weight: bold; margin: 0;"">Is there a person in this image?</p>
                    </div>
                </div>","0","main_experiment_trial","4","maintaining_a_car_semantic","semantic_sequence","chronological","","","","","","",""
"","","","","","html-keyboard-response","88","297528","0.0-88.0","8EA7FA2D5D9A45CF8DE35D50ECF804EB","019cfc81-7780-75ad-adbd-eaaf801be502","019cfc7b-6c7b-7b1b-afe7-acad8efc6711","","null","
                <div class=""stimulus-container"">
                    <img src=""images/semantic_sequence/maintaining_a_car_semantic/maintaining_a_car_semantic_5.png"" class=""exp-image"">
                    <div class=""question-area""></div> 
                </div>","null","","","","","","","","","","","",""
"","","","","","html-button-response","89","298112","0.0-89.0","8EA7FA2D5D9A45CF8DE35D50ECF804EB","019cfc81-7780-75ad-adbd-eaaf801be502","019cfc7b-6c7b-7b1b-afe7-acad8efc6711","","583","
                <div class=""stimulus-container"">
                    <img src=""images/semantic_sequence/maintaining_a_car_semantic/maintaining_a_car_semantic_5.png"" class=""exp-image"">
                    <div class=""question-area"">
                        <p style=""font-size: 20px; font-weight: bold; margin: 0;"">Is there a person in this image?</p>
                    </div>
                </div>","0","main_experiment_trial","5","maintaining_a_car_semantic","semantic_sequence","chronological","","","","","","",""
"","","","","","html-keyboard-response","90","303113","0.0-90.0","8EA7FA2D5D9A45CF8DE35D50ECF804EB","019cfc81-7780-75ad-adbd-eaaf801be502","019cfc7b-6c7b-7b1b-afe7-acad8efc6711","","null","
                <div class=""stimulus-container"">
                    <img src=""images/semantic_sequence/maintaining_a_car_semantic/maintaining_a_car_semantic_6.png"" class=""exp-image"">
                    <div class=""question-area""></div> 
                </div>","null","","","","","","","","","","","",""
"","","","","","html-button-response","91","303644","0.0-91.0","8EA7FA2D5D9A45CF8DE35D50ECF804EB","019cfc81-7780-75ad-adbd-eaaf801be502","019cfc7b-6c7b-7b1b-afe7-acad8efc6711","","529","
                <div class=""stimulus-container"">
                    <img src=""images/semantic_sequence/maintaining_a_car_semantic/maintaining_a_car_semantic_6.png"" class=""exp-image"">
                    <div class=""question-area"">
                        <p style=""font-size: 20px; font-weight: bold; margin: 0;"">Is there a person in this image?</p>
                    </div>
                </div>","0","main_experiment_trial","6","maintaining_a_car_semantic","semantic_sequence","chronological","","","","","","",""
"","","","","","html-keyboard-response","92","308645","0.0-92.0","8EA7FA2D5D9A45CF8DE35D50ECF804EB","019cfc81-7780-75ad-adbd-eaaf801be502","019cfc7b-6c7b-7b1b-afe7-acad8efc6711","","null","
                <div class=""stimulus-container"">
                    <img src=""images/semantic_sequence/maintaining_a_car_semantic/maintaining_a_car_semantic_7.png"" class=""exp-image"">
                    <div class=""question-area""></div> 
                </div>","null","","","","","","","","","","","",""
"","","","","","html-button-response","93","309237","0.0-93.0","8EA7FA2D5D9A45CF8DE35D50ECF804EB","019cfc81-7780-75ad-adbd-eaaf801be502","019cfc7b-6c7b-7b1b-afe7-acad8efc6711","","590","
                <div class=""stimulus-container"">
                    <img src=""images/semantic_sequence/maintaining_a_car_semantic/maintaining_a_car_semantic_7.png"" class=""exp-image"">
                    <div class=""question-area"">
                        <p style=""font-size: 20px; font-weight: bold; margin: 0;"">Is there a person in this image?</p>
                    </div>
                </div>","0","main_experiment_trial","7","maintaining_a_car_semantic","semantic_sequence","chronological","","","","","","",""
"","","","","","html-keyboard-response","94","314238","0.0-94.0","8EA7FA2D5D9A45CF8DE35D50ECF804EB","019cfc81-7780-75ad-adbd-eaaf801be502","019cfc7b-6c7b-7b1b-afe7-acad8efc6711","","null","
                <div class=""stimulus-container"">
                    <img src=""images/semantic_sequence/maintaining_a_car_semantic/maintaining_a_car_semantic_8.png"" class=""exp-image"">
                    <div class=""question-area""></div> 
                </div>","null","","","","","","","","","","","",""
"","","","","","html-button-response","95","314733","0.0-95.0","8EA7FA2D5D9A45CF8DE35D50ECF804EB","019cfc81-7780-75ad-adbd-eaaf801be502","019cfc7b-6c7b-7b1b-afe7-acad8efc6711","","494","
                <div class=""stimulus-container"">
                    <img src=""images/semantic_sequence/maintaining_a_car_semantic/maintaining_a_car_semantic_8.png"" class=""exp-image"">
                    <div class=""question-area"">
                        <p style=""font-size: 20px; font-weight: bold; margin: 0;"">Is there a person in this image?</p>
                    </div>
                </div>","0","main_experiment_trial","8","maintaining_a_car_semantic","semantic_sequence","chronological","","","","","","",""
"","","","","","html-keyboard-response","96","319735","0.0-96.0","8EA7FA2D5D9A45CF8DE35D50ECF804EB","019cfc81-7780-75ad-adbd-eaaf801be502","019cfc7b-6c7b-7b1b-afe7-acad8efc6711","","null","
                <div class=""stimulus-container"">
                    <img src=""images/semantic_sequence/maintaining_a_car_semantic/maintaining_a_car_semantic_9.png"" class=""exp-image"">
                    <div class=""question-area""></div> 
                </div>","null","","","","","","","","","","","",""
"","","","","","html-button-response","97","320326","0.0-97.0","8EA7FA2D5D9A45CF8DE35D50ECF804EB","019cfc81-7780-75ad-adbd-eaaf801be502","019cfc7b-6c7b-7b1b-afe7-acad8efc6711","","590","
                <div class=""stimulus-container"">
                    <img src=""images/semantic_sequence/maintaining_a_car_semantic/maintaining_a_car_semantic_9.png"" class=""exp-image"">
                    <div class=""question-area"">
                        <p style=""font-size: 20px; font-weight: bold; margin: 0;"">Is there a person in this image?</p>
                    </div>
                </div>","0","main_experiment_trial","9","maintaining_a_car_semantic","semantic_sequence","chronological","","","","","","",""
"","","","","","html-keyboard-response","98","325327","0.0-98.0","8EA7FA2D5D9A45CF8DE35D50ECF804EB","019cfc81-7780-75ad-adbd-eaaf801be502","019cfc7b-6c7b-7b1b-afe7-acad8efc6711","","null","
                <div class=""stimulus-container"">
                    <img src=""images/semantic_sequence/maintaining_a_car_semantic/maintaining_a_car_semantic_ten.png"" class=""exp-image"">
                    <div class=""question-area""></div> 
                </div>","null","","","","","","","","","","","",""
"","","","","","html-button-response","99","325967","0.0-99.0","8EA7FA2D5D9A45CF8DE35D50ECF804EB","019cfc81-7780-75ad-adbd-eaaf801be502","019cfc7b-6c7b-7b1b-afe7-acad8efc6711","","638","
                <div class=""stimulus-container"">
                    <img src=""images/semantic_sequence/maintaining_a_car_semantic/maintaining_a_car_semantic_ten.png"" class=""exp-image"">
                    <div class=""question-area"">
                        <p style=""font-size: 20px; font-weight: bold; margin: 0;"">Is there a person in this image?</p>
                    </div>
                </div>","0","main_experiment_trial","ten","maintaining_a_car_semantic","semantic_sequence","chronological","","","","","","",""
"","","","","","html-keyboard-response","100","330968","0.0-100.0","8EA7FA2D5D9A45CF8DE35D50ECF804EB","019cfc81-7780-75ad-adbd-eaaf801be502","019cfc7b-6c7b-7b1b-afe7-acad8efc6711","","null","<div style=""background-color: white; width: 100vw; height: 100vh;""></div>","null","","","","","","","","","","","",""
"","","","","","html-keyboard-response","101","335969","0.0-101.0","8EA7FA2D5D9A45CF8DE35D50ECF804EB","019cfc81-7780-75ad-adbd-eaaf801be502","019cfc7b-6c7b-7b1b-afe7-acad8efc6711","","null","
                <div class=""stimulus-container"">
                    <img src=""images/causal_sequence/the_performance_causal/the_performance_causal_1.png"" class=""exp-image"">
                    <div class=""question-area""></div> 
                </div>","null","","","","","","","","","","","",""
"","","","","","html-button-response","102","337126","0.0-102.0","8EA7FA2D5D9A45CF8DE35D50ECF804EB","019cfc81-7780-75ad-adbd-eaaf801be502","019cfc7b-6c7b-7b1b-afe7-acad8efc6711","","1155","
                <div class=""stimulus-container"">
                    <img src=""images/causal_sequence/the_performance_causal/the_performance_causal_1.png"" class=""exp-image"">
                    <div class=""question-area"">
                        <p style=""font-size: 20px; font-weight: bold; margin: 0;"">Is there a person in this image?</p>
                    </div>
                </div>","0","main_experiment_trial","1","the_performance_causal","causal_sequence","chronological","","","","","","",""
"","","","","","html-keyboard-response","103","342128","0.0-103.0","8EA7FA2D5D9A45CF8DE35D50ECF804EB","019cfc81-7780-75ad-adbd-eaaf801be502","019cfc7b-6c7b-7b1b-afe7-acad8efc6711","","null","
                <div class=""stimulus-container"">
                    <img src=""images/causal_sequence/the_performance_causal/the_performance_causal_2.png"" class=""exp-image"">
                    <div class=""question-area""></div> 
                </div>","null","","","","","","","","","","","",""
"","","","","","html-button-response","104","342731","0.0-104.0","8EA7FA2D5D9A45CF8DE35D50ECF804EB","019cfc81-7780-75ad-adbd-eaaf801be502","019cfc7b-6c7b-7b1b-afe7-acad8efc6711","","602","
                <div class=""stimulus-container"">
                    <img src=""images/causal_sequence/the_performance_causal/the_performance_causal_2.png"" class=""exp-image"">
                    <div class=""question-area"">
                        <p style=""font-size: 20px; font-weight: bold; margin: 0;"">Is there a person in this image?</p>
                    </div>
                </div>","0","main_experiment_trial","2","the_performance_causal","causal_sequence","chronological","","","","","","",""
"","","","","","html-keyboard-response","105","347733","0.0-105.0","8EA7FA2D5D9A45CF8DE35D50ECF804EB","019cfc81-7780-75ad-adbd-eaaf801be502","019cfc7b-6c7b-7b1b-afe7-acad8efc6711","","null","
                <div class=""stimulus-container"">
                    <img src=""images/causal_sequence/the_performance_causal/the_performance_causal_3.png"" class=""exp-image"">
                    <div class=""question-area""></div> 
                </div>","null","","","","","","","","","","","",""
"","","","","","html-button-response","106","348643","0.0-106.0","8EA7FA2D5D9A45CF8DE35D50ECF804EB","019cfc81-7780-75ad-adbd-eaaf801be502","019cfc7b-6c7b-7b1b-afe7-acad8efc6711","","908","
                <div class=""stimulus-container"">
                    <img src=""images/causal_sequence/the_performance_causal/the_performance_causal_3.png"" class=""exp-image"">
                    <div class=""question-area"">
                        <p style=""font-size: 20px; font-weight: bold; margin: 0;"">Is there a person in this image?</p>
                    </div>
                </div>","0","main_experiment_trial","3","the_performance_causal","causal_sequence","chronological","","","","","","",""
"","","","","","html-keyboard-response","107","353644","0.0-107.0","8EA7FA2D5D9A45CF8DE35D50ECF804EB","019cfc81-7780-75ad-adbd-eaaf801be502","019cfc7b-6c7b-7b1b-afe7-acad8efc6711","","null","
                <div class=""stimulus-container"">
                    <img src=""images/causal_sequence/the_performance_causal/the_performance_causal_4.png"" class=""exp-image"">
                    <div class=""question-area""></div> 
                </div>","null","","","","","","","","","","","",""
"","","","","","html-button-response","108","354236","0.0-108.0","8EA7FA2D5D9A45CF8DE35D50ECF804EB","019cfc81-7780-75ad-adbd-eaaf801be502","019cfc7b-6c7b-7b1b-afe7-acad8efc6711","","590","
                <div class=""stimulus-container"">
                    <img src=""images/causal_sequence/the_performance_causal/the_performance_causal_4.png"" class=""exp-image"">
                    <div class=""question-area"">
                        <p style=""font-size: 20px; font-weight: bold; margin: 0;"">Is there a person in this image?</p>
                    </div>
                </div>","0","main_experiment_trial","4","the_performance_causal","causal_sequence","chronological","","","","","","",""
"","","","","","html-keyboard-response","109","359238","0.0-109.0","8EA7FA2D5D9A45CF8DE35D50ECF804EB","019cfc81-7780-75ad-adbd-eaaf801be502","019cfc7b-6c7b-7b1b-afe7-acad8efc6711","","null","
                <div class=""stimulus-container"">
                    <img src=""images/causal_sequence/the_performance_causal/the_performance_causal_5.png"" class=""exp-image"">
                    <div class=""question-area""></div> 
                </div>","null","","","","","","","","","","","",""
"","","","","","html-button-response","110","360380","0.0-110.0","8EA7FA2D5D9A45CF8DE35D50ECF804EB","019cfc81-7780-75ad-adbd-eaaf801be502","019cfc7b-6c7b-7b1b-afe7-acad8efc6711","","1140","
                <div class=""stimulus-container"">
                    <img src=""images/causal_sequence/the_performance_causal/the_performance_causal_5.png"" class=""exp-image"">
                    <div class=""question-area"">
                        <p style=""font-size: 20px; font-weight: bold; margin: 0;"">Is there a person in this image?</p>
                    </div>
                </div>","0","main_experiment_trial","5","the_performance_causal","causal_sequence","chronological","","","","","","",""
"","","","","","html-keyboard-response","111","365381","0.0-111.0","8EA7FA2D5D9A45CF8DE35D50ECF804EB","019cfc81-7780-75ad-adbd-eaaf801be502","019cfc7b-6c7b-7b1b-afe7-acad8efc6711","","null","
                <div class=""stimulus-container"">
                    <img src=""images/causal_sequence/the_performance_causal/the_performance_causal_6.png"" class=""exp-image"">
                    <div class=""question-area""></div> 
                </div>","null","","","","","","","","","","","",""
"","","","","","html-button-response","112","366149","0.0-112.0","8EA7FA2D5D9A45CF8DE35D50ECF804EB","019cfc81-7780-75ad-adbd-eaaf801be502","019cfc7b-6c7b-7b1b-afe7-acad8efc6711","","766","
                <div class=""stimulus-container"">
                    <img src=""images/causal_sequence/the_performance_causal/the_performance_causal_6.png"" class=""exp-image"">
                    <div class=""question-area"">
                        <p style=""font-size: 20px; font-weight: bold; margin: 0;"">Is there a person in this image?</p>
                    </div>
                </div>","0","main_experiment_trial","6","the_performance_causal","causal_sequence","chronological","","","","","","",""
"","","","","","html-keyboard-response","113","371151","0.0-113.0","8EA7FA2D5D9A45CF8DE35D50ECF804EB","019cfc81-7780-75ad-adbd-eaaf801be502","019cfc7b-6c7b-7b1b-afe7-acad8efc6711","","null","
                <div class=""stimulus-container"">
                    <img src=""images/causal_sequence/the_performance_causal/the_performance_causal_7.png"" class=""exp-image"">
                    <div class=""question-area""></div> 
                </div>","null","","","","","","","","","","","",""
"","","","","","html-button-response","114","371987","0.0-114.0","8EA7FA2D5D9A45CF8DE35D50ECF804EB","019cfc81-7780-75ad-adbd-eaaf801be502","019cfc7b-6c7b-7b1b-afe7-acad8efc6711","","834","
                <div class=""stimulus-container"">
                    <img src=""images/causal_sequence/the_performance_causal/the_performance_causal_7.png"" class=""exp-image"">
                    <div class=""question-area"">
                        <p style=""font-size: 20px; font-weight: bold; margin: 0;"">Is there a person in this image?</p>
                    </div>
                </div>","0","main_experiment_trial","7","the_performance_causal","causal_sequence","chronological","","","","","","",""
"","","","","","html-keyboard-response","115","376988","0.0-115.0","8EA7FA2D5D9A45CF8DE35D50ECF804EB","019cfc81-7780-75ad-adbd-eaaf801be502","019cfc7b-6c7b-7b1b-afe7-acad8efc6711","","null","
                <div class=""stimulus-container"">
                    <img src=""images/causal_sequence/the_performance_causal/the_performance_causal_8.png"" class=""exp-image"">
                    <div class=""question-area""></div> 
                </div>","null","","","","","","","","","","","",""
"","","","","","html-button-response","116","377654","0.0-116.0","8EA7FA2D5D9A45CF8DE35D50ECF804EB","019cfc81-7780-75ad-adbd-eaaf801be502","019cfc7b-6c7b-7b1b-afe7-acad8efc6711","","665","
                <div class=""stimulus-container"">
                    <img src=""images/causal_sequence/the_performance_causal/the_performance_causal_8.png"" class=""exp-image"">
                    <div class=""question-area"">
                        <p style=""font-size: 20px; font-weight: bold; margin: 0;"">Is there a person in this image?</p>
                    </div>
                </div>","0","main_experiment_trial","8","the_performance_causal","causal_sequence","chronological","","","","","","",""
"","","","","","html-keyboard-response","117","382656","0.0-117.0","8EA7FA2D5D9A45CF8DE35D50ECF804EB","019cfc81-7780-75ad-adbd-eaaf801be502","019cfc7b-6c7b-7b1b-afe7-acad8efc6711","","null","
                <div class=""stimulus-container"">
                    <img src=""images/causal_sequence/the_performance_causal/the_performance_causal_9.png"" class=""exp-image"">
                    <div class=""question-area""></div> 
                </div>","null","","","","","","","","","","","",""
"","","","","","html-button-response","118","383363","0.0-118.0","8EA7FA2D5D9A45CF8DE35D50ECF804EB","019cfc81-7780-75ad-adbd-eaaf801be502","019cfc7b-6c7b-7b1b-afe7-acad8efc6711","","705","
                <div class=""stimulus-container"">
                    <img src=""images/causal_sequence/the_performance_causal/the_performance_causal_9.png"" class=""exp-image"">
                    <div class=""question-area"">
                        <p style=""font-size: 20px; font-weight: bold; margin: 0;"">Is there a person in this image?</p>
                    </div>
                </div>","0","main_experiment_trial","9","the_performance_causal","causal_sequence","chronological","","","","","","",""
"","","","","","html-keyboard-response","119","388364","0.0-119.0","8EA7FA2D5D9A45CF8DE35D50ECF804EB","019cfc81-7780-75ad-adbd-eaaf801be502","019cfc7b-6c7b-7b1b-afe7-acad8efc6711","","null","
                <div class=""stimulus-container"">
                    <img src=""images/causal_sequence/the_performance_causal/the_performance_causal_ten.png"" class=""exp-image"">
                    <div class=""question-area""></div> 
                </div>","null","","","","","","","","","","","",""
"","","","","","html-button-response","120","389301","0.0-120.0","8EA7FA2D5D9A45CF8DE35D50ECF804EB","019cfc81-7780-75ad-adbd-eaaf801be502","019cfc7b-6c7b-7b1b-afe7-acad8efc6711","","936","
                <div class=""stimulus-container"">
                    <img src=""images/causal_sequence/the_performance_causal/the_performance_causal_ten.png"" class=""exp-image"">
                    <div class=""question-area"">
                        <p style=""font-size: 20px; font-weight: bold; margin: 0;"">Is there a person in this image?</p>
                    </div>
                </div>","0","main_experiment_trial","ten","the_performance_causal","causal_sequence","chronological","","","","","","",""
"","","","","","html-keyboard-response","121","394303","0.0-121.0","8EA7FA2D5D9A45CF8DE35D50ECF804EB","019cfc81-7780-75ad-adbd-eaaf801be502","019cfc7b-6c7b-7b1b-afe7-acad8efc6711","","null","<div style=""background-color: white; width: 100vw; height: 100vh;""></div>","null","","","","","","","","","","","",""
"","","","","","html-keyboard-response","122","399304","0.0-122.0","8EA7FA2D5D9A45CF8DE35D50ECF804EB","019cfc81-7780-75ad-adbd-eaaf801be502","019cfc7b-6c7b-7b1b-afe7-acad8efc6711","","null","
                <div class=""stimulus-container"">
                    <img src=""images/schematic_sequence/supermarket_scheme/supermarket_scheme_1.png"" class=""exp-image"">
                    <div class=""question-area""></div> 
                </div>","null","","","","","","","","","","","",""
"","","","","","html-button-response","123","400195","0.0-123.0","8EA7FA2D5D9A45CF8DE35D50ECF804EB","019cfc81-7780-75ad-adbd-eaaf801be502","019cfc7b-6c7b-7b1b-afe7-acad8efc6711","","889","
                <div class=""stimulus-container"">
                    <img src=""images/schematic_sequence/supermarket_scheme/supermarket_scheme_1.png"" class=""exp-image"">
                    <div class=""question-area"">
                        <p style=""font-size: 20px; font-weight: bold; margin: 0;"">Is there a person in this image?</p>
                    </div>
                </div>","1","main_experiment_trial","1","supermarket_scheme","schematic_sequence","chronological","","","","","","",""
"","","","","","html-keyboard-response","124","405196","0.0-124.0","8EA7FA2D5D9A45CF8DE35D50ECF804EB","019cfc81-7780-75ad-adbd-eaaf801be502","019cfc7b-6c7b-7b1b-afe7-acad8efc6711","","null","
                <div class=""stimulus-container"">
                    <img src=""images/schematic_sequence/supermarket_scheme/supermarket_scheme_2.png"" class=""exp-image"">
                    <div class=""question-area""></div> 
                </div>","null","","","","","","","","","","","",""
"","","","","","html-button-response","125","405813","0.0-125.0","8EA7FA2D5D9A45CF8DE35D50ECF804EB","019cfc81-7780-75ad-adbd-eaaf801be502","019cfc7b-6c7b-7b1b-afe7-acad8efc6711","","615","
                <div class=""stimulus-container"">
                    <img src=""images/schematic_sequence/supermarket_scheme/supermarket_scheme_2.png"" class=""exp-image"">
                    <div class=""question-area"">
                        <p style=""font-size: 20px; font-weight: bold; margin: 0;"">Is there a person in this image?</p>
                    </div>
                </div>","1","main_experiment_trial","2","supermarket_scheme","schematic_sequence","chronological","","","","","","",""
"","","","","","html-keyboard-response","126","410814","0.0-126.0","8EA7FA2D5D9A45CF8DE35D50ECF804EB","019cfc81-7780-75ad-adbd-eaaf801be502","019cfc7b-6c7b-7b1b-afe7-acad8efc6711","","null","
                <div class=""stimulus-container"">
                    <img src=""images/schematic_sequence/supermarket_scheme/supermarket_scheme_3.png"" class=""exp-image"">
                    <div class=""question-area""></div> 
                </div>","null","","","","","","","","","","","",""
"","","","","","html-button-response","127","411399","0.0-127.0","8EA7FA2D5D9A45CF8DE35D50ECF804EB","019cfc81-7780-75ad-adbd-eaaf801be502","019cfc7b-6c7b-7b1b-afe7-acad8efc6711","","583","
                <div class=""stimulus-container"">
                    <img src=""images/schematic_sequence/supermarket_scheme/supermarket_scheme_3.png"" class=""exp-image"">
                    <div class=""question-area"">
                        <p style=""font-size: 20px; font-weight: bold; margin: 0;"">Is there a person in this image?</p>
                    </div>
                </div>","1","main_experiment_trial","3","supermarket_scheme","schematic_sequence","chronological","","","","","","",""
"","","","","","html-keyboard-response","128","416400","0.0-128.0","8EA7FA2D5D9A45CF8DE35D50ECF804EB","019cfc81-7780-75ad-adbd-eaaf801be502","019cfc7b-6c7b-7b1b-afe7-acad8efc6711","","null","
                <div class=""stimulus-container"">
                    <img src=""images/schematic_sequence/supermarket_scheme/supermarket_scheme_4.png"" class=""exp-image"">
                    <div class=""question-area""></div> 
                </div>","null","","","","","","","","","","","",""
"","","","","","html-button-response","129","417094","0.0-129.0","8EA7FA2D5D9A45CF8DE35D50ECF804EB","019cfc81-7780-75ad-adbd-eaaf801be502","019cfc7b-6c7b-7b1b-afe7-acad8efc6711","","692","
                <div class=""stimulus-container"">
                    <img src=""images/schematic_sequence/supermarket_scheme/supermarket_scheme_4.png"" class=""exp-image"">
                    <div class=""question-area"">
                        <p style=""font-size: 20px; font-weight: bold; margin: 0;"">Is there a person in this image?</p>
                    </div>
                </div>","0","main_experiment_trial","4","supermarket_scheme","schematic_sequence","chronological","","","","","","",""
"","","","","","html-keyboard-response","130","422095","0.0-130.0","8EA7FA2D5D9A45CF8DE35D50ECF804EB","019cfc81-7780-75ad-adbd-eaaf801be502","019cfc7b-6c7b-7b1b-afe7-acad8efc6711","","null","
                <div class=""stimulus-container"">
                    <img src=""images/schematic_sequence/supermarket_scheme/supermarket_scheme_5.png"" class=""exp-image"">
                    <div class=""question-area""></div> 
                </div>","null","","","","","","","","","","","",""
"","","","","","html-button-response","131","423333","0.0-131.0","8EA7FA2D5D9A45CF8DE35D50ECF804EB","019cfc81-7780-75ad-adbd-eaaf801be502","019cfc7b-6c7b-7b1b-afe7-acad8efc6711","","1236","
                <div class=""stimulus-container"">
                    <img src=""images/schematic_sequence/supermarket_scheme/supermarket_scheme_5.png"" class=""exp-image"">
                    <div class=""question-area"">
                        <p style=""font-size: 20px; font-weight: bold; margin: 0;"">Is there a person in this image?</p>
                    </div>
                </div>","1","main_experiment_trial","5","supermarket_scheme","schematic_sequence","chronological","","","","","","",""
"","","","","","html-keyboard-response","132","428334","0.0-132.0","8EA7FA2D5D9A45CF8DE35D50ECF804EB","019cfc81-7780-75ad-adbd-eaaf801be502","019cfc7b-6c7b-7b1b-afe7-acad8efc6711","","null","
                <div class=""stimulus-container"">
                    <img src=""images/schematic_sequence/supermarket_scheme/supermarket_scheme_6.png"" class=""exp-image"">
                    <div class=""question-area""></div> 
                </div>","null","","","","","","","","","","","",""
"","","","","","html-button-response","133","429892","0.0-133.0","8EA7FA2D5D9A45CF8DE35D50ECF804EB","019cfc81-7780-75ad-adbd-eaaf801be502","019cfc7b-6c7b-7b1b-afe7-acad8efc6711","","1557","
                <div class=""stimulus-container"">
                    <img src=""images/schematic_sequence/supermarket_scheme/supermarket_scheme_6.png"" class=""exp-image"">
                    <div class=""question-area"">
                        <p style=""font-size: 20px; font-weight: bold; margin: 0;"">Is there a person in this image?</p>
                    </div>
                </div>","1","main_experiment_trial","6","supermarket_scheme","schematic_sequence","chronological","","","","","","",""
"","","","","","html-keyboard-response","134","434893","0.0-134.0","8EA7FA2D5D9A45CF8DE35D50ECF804EB","019cfc81-7780-75ad-adbd-eaaf801be502","019cfc7b-6c7b-7b1b-afe7-acad8efc6711","","null","
                <div class=""stimulus-container"">
                    <img src=""images/schematic_sequence/supermarket_scheme/supermarket_scheme_7.png"" class=""exp-image"">
                    <div class=""question-area""></div> 
                </div>","null","","","","","","","","","","","",""
"","","","","","html-button-response","135","436002","0.0-135.0","8EA7FA2D5D9A45CF8DE35D50ECF804EB","019cfc81-7780-75ad-adbd-eaaf801be502","019cfc7b-6c7b-7b1b-afe7-acad8efc6711","","1107","
                <div class=""stimulus-container"">
                    <img src=""images/schematic_sequence/supermarket_scheme/supermarket_scheme_7.png"" class=""exp-image"">
                    <div class=""question-area"">
                        <p style=""font-size: 20px; font-weight: bold; margin: 0;"">Is there a person in this image?</p>
                    </div>
                </div>","0","main_experiment_trial","7","supermarket_scheme","schematic_sequence","chronological","","","","","","",""
"","","","","","html-keyboard-response","136","441003","0.0-136.0","8EA7FA2D5D9A45CF8DE35D50ECF804EB","019cfc81-7780-75ad-adbd-eaaf801be502","019cfc7b-6c7b-7b1b-afe7-acad8efc6711","","null","
                <div class=""stimulus-container"">
                    <img src=""images/schematic_sequence/supermarket_scheme/supermarket_scheme_8.png"" class=""exp-image"">
                    <div class=""question-area""></div> 
                </div>","null","","","","","","","","","","","",""
"","","","","","html-button-response","137","441656","0.0-137.0","8EA7FA2D5D9A45CF8DE35D50ECF804EB","019cfc81-7780-75ad-adbd-eaaf801be502","019cfc7b-6c7b-7b1b-afe7-acad8efc6711","","651","
                <div class=""stimulus-container"">
                    <img src=""images/schematic_sequence/supermarket_scheme/supermarket_scheme_8.png"" class=""exp-image"">
                    <div class=""question-area"">
                        <p style=""font-size: 20px; font-weight: bold; margin: 0;"">Is there a person in this image?</p>
                    </div>
                </div>","0","main_experiment_trial","8","supermarket_scheme","schematic_sequence","chronological","","","","","","",""
"","","","","","html-keyboard-response","138","446657","0.0-138.0","8EA7FA2D5D9A45CF8DE35D50ECF804EB","019cfc81-7780-75ad-adbd-eaaf801be502","019cfc7b-6c7b-7b1b-afe7-acad8efc6711","","null","
                <div class=""stimulus-container"">
                    <img src=""images/schematic_sequence/supermarket_scheme/supermarket_scheme_9.png"" class=""exp-image"">
                    <div class=""question-area""></div> 
                </div>","null","","","","","","","","","","","",""
"","","","","","html-button-response","139","447432","0.0-139.0","8EA7FA2D5D9A45CF8DE35D50ECF804EB","019cfc81-7780-75ad-adbd-eaaf801be502","019cfc7b-6c7b-7b1b-afe7-acad8efc6711","","773","
                <div class=""stimulus-container"">
                    <img src=""images/schematic_sequence/supermarket_scheme/supermarket_scheme_9.png"" class=""exp-image"">
                    <div class=""question-area"">
                        <p style=""font-size: 20px; font-weight: bold; margin: 0;"">Is there a person in this image?</p>
                    </div>
                </div>","0","main_experiment_trial","9","supermarket_scheme","schematic_sequence","chronological","","","","","","",""
"","","","","","html-keyboard-response","140","452433","0.0-140.0","8EA7FA2D5D9A45CF8DE35D50ECF804EB","019cfc81-7780-75ad-adbd-eaaf801be502","019cfc7b-6c7b-7b1b-afe7-acad8efc6711","","null","
                <div class=""stimulus-container"">
                    <img src=""images/schematic_sequence/supermarket_scheme/supermarket_scheme_ten.png"" class=""exp-image"">
                    <div class=""question-area""></div> 
                </div>","null","","","","","","","","","","","",""
"","","","","","html-button-response","141","453181","0.0-141.0","8EA7FA2D5D9A45CF8DE35D50ECF804EB","019cfc81-7780-75ad-adbd-eaaf801be502","019cfc7b-6c7b-7b1b-afe7-acad8efc6711","","746","
                <div class=""stimulus-container"">
                    <img src=""images/schematic_sequence/supermarket_scheme/supermarket_scheme_ten.png"" class=""exp-image"">
                    <div class=""question-area"">
                        <p style=""font-size: 20px; font-weight: bold; margin: 0;"">Is there a person in this image?</p>
                    </div>
                </div>","1","main_experiment_trial","ten","supermarket_scheme","schematic_sequence","chronological","","","","","","",""
"","","","","","html-keyboard-response","142","458182","0.0-142.0","8EA7FA2D5D9A45CF8DE35D50ECF804EB","019cfc81-7780-75ad-adbd-eaaf801be502","019cfc7b-6c7b-7b1b-afe7-acad8efc6711","","null","<div style=""background-color: white; width: 100vw; height: 100vh;""></div>","null","","","","","","","","","","","",""
"","","","","","html-keyboard-response","143","463184","0.0-143.0","8EA7FA2D5D9A45CF8DE35D50ECF804EB","019cfc81-7780-75ad-adbd-eaaf801be502","019cfc7b-6c7b-7b1b-afe7-acad8efc6711","","null","
                <div class=""stimulus-container"">
                    <img src=""images/schematic_sequence/dinner_party_scheme/dinner_party_scheme_1.png"" class=""exp-image"">
                    <div class=""question-area""></div> 
                </div>","null","","","","","","","","","","","",""
"","","","","","html-button-response","144","464685","0.0-144.0","8EA7FA2D5D9A45CF8DE35D50ECF804EB","019cfc81-7780-75ad-adbd-eaaf801be502","019cfc7b-6c7b-7b1b-afe7-acad8efc6711","","1500","
                <div class=""stimulus-container"">
                    <img src=""images/schematic_sequence/dinner_party_scheme/dinner_party_scheme_1.png"" class=""exp-image"">
                    <div class=""question-area"">
                        <p style=""font-size: 20px; font-weight: bold; margin: 0;"">Is there a person in this image?</p>
                    </div>
                </div>","0","main_experiment_trial","1","dinner_party_scheme","schematic_sequence","chronological","","","","","","",""
"","","","","","html-keyboard-response","145","469686","0.0-145.0","8EA7FA2D5D9A45CF8DE35D50ECF804EB","019cfc81-7780-75ad-adbd-eaaf801be502","019cfc7b-6c7b-7b1b-afe7-acad8efc6711","","null","
                <div class=""stimulus-container"">
                    <img src=""images/schematic_sequence/dinner_party_scheme/dinner_party_scheme_2.png"" class=""exp-image"">
                    <div class=""question-area""></div> 
                </div>","null","","","","","","","","","","","",""
"","","","","","html-button-response","146","471285","0.0-146.0","8EA7FA2D5D9A45CF8DE35D50ECF804EB","019cfc81-7780-75ad-adbd-eaaf801be502","019cfc7b-6c7b-7b1b-afe7-acad8efc6711","","1597","
                <div class=""stimulus-container"">
                    <img src=""images/schematic_sequence/dinner_party_scheme/dinner_party_scheme_2.png"" class=""exp-image"">
                    <div class=""question-area"">
                        <p style=""font-size: 20px; font-weight: bold; margin: 0;"">Is there a person in this image?</p>
                    </div>
                </div>","0","main_experiment_trial","2","dinner_party_scheme","schematic_sequence","chronological","","","","","","",""
"","","","","","html-keyboard-response","147","476286","0.0-147.0","8EA7FA2D5D9A45CF8DE35D50ECF804EB","019cfc81-7780-75ad-adbd-eaaf801be502","019cfc7b-6c7b-7b1b-afe7-acad8efc6711","","null","
                <div class=""stimulus-container"">
                    <img src=""images/schematic_sequence/dinner_party_scheme/dinner_party_scheme_3.png"" class=""exp-image"">
                    <div class=""question-area""></div> 
                </div>","null","","","","","","","","","","","",""
"","","","","","html-button-response","148","478156","0.0-148.0","8EA7FA2D5D9A45CF8DE35D50ECF804EB","019cfc81-7780-75ad-adbd-eaaf801be502","019cfc7b-6c7b-7b1b-afe7-acad8efc6711","","1869","
                <div class=""stimulus-container"">
                    <img src=""images/schematic_sequence/dinner_party_scheme/dinner_party_scheme_3.png"" class=""exp-image"">
                    <div class=""question-area"">
                        <p style=""font-size: 20px; font-weight: bold; margin: 0;"">Is there a person in this image?</p>
                    </div>
                </div>","0","main_experiment_trial","3","dinner_party_scheme","schematic_sequence","chronological","","","","","","",""
"","","","","","html-keyboard-response","149","483158","0.0-149.0","8EA7FA2D5D9A45CF8DE35D50ECF804EB","019cfc81-7780-75ad-adbd-eaaf801be502","019cfc7b-6c7b-7b1b-afe7-acad8efc6711","","null","
                <div class=""stimulus-container"">
                    <img src=""images/schematic_sequence/dinner_party_scheme/dinner_party_scheme_4.png"" class=""exp-image"">
                    <div class=""question-area""></div> 
                </div>","null","","","","","","","","","","","",""
"","","","","","html-button-response","150","486160","0.0-150.0","8EA7FA2D5D9A45CF8DE35D50ECF804EB","019cfc81-7780-75ad-adbd-eaaf801be502","019cfc7b-6c7b-7b1b-afe7-acad8efc6711","","null","
                <div class=""stimulus-container"">
                    <img src=""images/schematic_sequence/dinner_party_scheme/dinner_party_scheme_4.png"" class=""exp-image"">
                    <div class=""question-area"">
                        <p style=""font-size: 20px; font-weight: bold; margin: 0;"">Is there a person in this image?</p>
                    </div>
                </div>","null","main_experiment_trial","4","dinner_party_scheme","schematic_sequence","chronological","","","","","","",""
"","","","","","html-keyboard-response","151","491162","0.0-151.0","8EA7FA2D5D9A45CF8DE35D50ECF804EB","019cfc81-7780-75ad-adbd-eaaf801be502","019cfc7b-6c7b-7b1b-afe7-acad8efc6711","","null","
                <div class=""stimulus-container"">
                    <img src=""images/schematic_sequence/dinner_party_scheme/dinner_party_scheme_5.png"" class=""exp-image"">
                    <div class=""question-area""></div> 
                </div>","null","","","","","","","","","","","",""
"","","","","","html-button-response","152","491717","0.0-152.0","8EA7FA2D5D9A45CF8DE35D50ECF804EB","019cfc81-7780-75ad-adbd-eaaf801be502","019cfc7b-6c7b-7b1b-afe7-acad8efc6711","","554","
                <div class=""stimulus-container"">
                    <img src=""images/schematic_sequence/dinner_party_scheme/dinner_party_scheme_5.png"" class=""exp-image"">
                    <div class=""question-area"">
                        <p style=""font-size: 20px; font-weight: bold; margin: 0;"">Is there a person in this image?</p>
                    </div>
                </div>","0","main_experiment_trial","5","dinner_party_scheme","schematic_sequence","chronological","","","","","","",""
"","","","","","html-keyboard-response","153","496718","0.0-153.0","8EA7FA2D5D9A45CF8DE35D50ECF804EB","019cfc81-7780-75ad-adbd-eaaf801be502","019cfc7b-6c7b-7b1b-afe7-acad8efc6711","","null","
                <div class=""stimulus-container"">
                    <img src=""images/schematic_sequence/dinner_party_scheme/dinner_party_scheme_6.png"" class=""exp-image"">
                    <div class=""question-area""></div> 
                </div>","null","","","","","","","","","","","",""
"","","","","","html-button-response","154","497805","0.0-154.0","8EA7FA2D5D9A45CF8DE35D50ECF804EB","019cfc81-7780-75ad-adbd-eaaf801be502","019cfc7b-6c7b-7b1b-afe7-acad8efc6711","","1085","
                <div class=""stimulus-container"">
                    <img src=""images/schematic_sequence/dinner_party_scheme/dinner_party_scheme_6.png"" class=""exp-image"">
                    <div class=""question-area"">
                        <p style=""font-size: 20px; font-weight: bold; margin: 0;"">Is there a person in this image?</p>
                    </div>
                </div>","0","main_experiment_trial","6","dinner_party_scheme","schematic_sequence","chronological","","","","","","",""
"","","","","","html-keyboard-response","155","502806","0.0-155.0","8EA7FA2D5D9A45CF8DE35D50ECF804EB","019cfc81-7780-75ad-adbd-eaaf801be502","019cfc7b-6c7b-7b1b-afe7-acad8efc6711","","null","
                <div class=""stimulus-container"">
                    <img src=""images/schematic_sequence/dinner_party_scheme/dinner_party_scheme_7.png"" class=""exp-image"">
                    <div class=""question-area""></div> 
                </div>","null","","","","","","","","","","","",""
"","","","","","html-button-response","156","503492","0.0-156.0","8EA7FA2D5D9A45CF8DE35D50ECF804EB","019cfc81-7780-75ad-adbd-eaaf801be502","019cfc7b-6c7b-7b1b-afe7-acad8efc6711","","685","
                <div class=""stimulus-container"">
                    <img src=""images/schematic_sequence/dinner_party_scheme/dinner_party_scheme_7.png"" class=""exp-image"">
                    <div class=""question-area"">
                        <p style=""font-size: 20px; font-weight: bold; margin: 0;"">Is there a person in this image?</p>
                    </div>
                </div>","0","main_experiment_trial","7","dinner_party_scheme","schematic_sequence","chronological","","","","","","",""
"","","","","","html-keyboard-response","157","508493","0.0-157.0","8EA7FA2D5D9A45CF8DE35D50ECF804EB","019cfc81-7780-75ad-adbd-eaaf801be502","019cfc7b-6c7b-7b1b-afe7-acad8efc6711","","null","
                <div class=""stimulus-container"">
                    <img src=""images/schematic_sequence/dinner_party_scheme/dinner_party_scheme_8.png"" class=""exp-image"">
                    <div class=""question-area""></div> 
                </div>","null","","","","","","","","","","","",""
"","","","","","html-button-response","158","509629","0.0-158.0","8EA7FA2D5D9A45CF8DE35D50ECF804EB","019cfc81-7780-75ad-adbd-eaaf801be502","019cfc7b-6c7b-7b1b-afe7-acad8efc6711","","1134","
                <div class=""stimulus-container"">
                    <img src=""images/schematic_sequence/dinner_party_scheme/dinner_party_scheme_8.png"" class=""exp-image"">
                    <div class=""question-area"">
                        <p style=""font-size: 20px; font-weight: bold; margin: 0;"">Is there a person in this image?</p>
                    </div>
                </div>","0","main_experiment_trial","8","dinner_party_scheme","schematic_sequence","chronological","","","","","","",""
"","","","","","html-keyboard-response","159","514630","0.0-159.0","8EA7FA2D5D9A45CF8DE35D50ECF804EB","019cfc81-7780-75ad-adbd-eaaf801be502","019cfc7b-6c7b-7b1b-afe7-acad8efc6711","","null","
                <div class=""stimulus-container"">
                    <img src=""images/schematic_sequence/dinner_party_scheme/dinner_party_scheme_9.png"" class=""exp-image"">
                    <div class=""question-area""></div> 
                </div>","null","","","","","","","","","","","",""
"","","","","","html-button-response","160","515717","0.0-160.0","8EA7FA2D5D9A45CF8DE35D50ECF804EB","019cfc81-7780-75ad-adbd-eaaf801be502","019cfc7b-6c7b-7b1b-afe7-acad8efc6711","","1085","
                <div class=""stimulus-container"">
                    <img src=""images/schematic_sequence/dinner_party_scheme/dinner_party_scheme_9.png"" class=""exp-image"">
                    <div class=""question-area"">
                        <p style=""font-size: 20px; font-weight: bold; margin: 0;"">Is there a person in this image?</p>
                    </div>
                </div>","0","main_experiment_trial","9","dinner_party_scheme","schematic_sequence","chronological","","","","","","",""
"","","","","","html-keyboard-response","161","520718","0.0-161.0","8EA7FA2D5D9A45CF8DE35D50ECF804EB","019cfc81-7780-75ad-adbd-eaaf801be502","019cfc7b-6c7b-7b1b-afe7-acad8efc6711","","null","
                <div class=""stimulus-container"">
                    <img src=""images/schematic_sequence/dinner_party_scheme/dinner_party_scheme_ten.png"" class=""exp-image"">
                    <div class=""question-area""></div> 
                </div>","null","","","","","","","","","","","",""
"","","","","","html-button-response","162","521732","0.0-162.0","8EA7FA2D5D9A45CF8DE35D50ECF804EB","019cfc81-7780-75ad-adbd-eaaf801be502","019cfc7b-6c7b-7b1b-afe7-acad8efc6711","","1012","
                <div class=""stimulus-container"">
                    <img src=""images/schematic_sequence/dinner_party_scheme/dinner_party_scheme_ten.png"" class=""exp-image"">
                    <div class=""question-area"">
                        <p style=""font-size: 20px; font-weight: bold; margin: 0;"">Is there a person in this image?</p>
                    </div>
                </div>","0","main_experiment_trial","ten","dinner_party_scheme","schematic_sequence","chronological","","","","","","",""
"","","","","","html-keyboard-response","163","526734","0.0-163.0","8EA7FA2D5D9A45CF8DE35D50ECF804EB","019cfc81-7780-75ad-adbd-eaaf801be502","019cfc7b-6c7b-7b1b-afe7-acad8efc6711","","null","<div style=""background-color: white; width: 100vw; height: 100vh;""></div>","null","","","","","","","","","","","",""
"","","","","","html-keyboard-response","164","531735","0.0-164.0","8EA7FA2D5D9A45CF8DE35D50ECF804EB","019cfc81-7780-75ad-adbd-eaaf801be502","019cfc7b-6c7b-7b1b-afe7-acad8efc6711","","null","
                <div class=""stimulus-container"">
                    <img src=""images/semantic_sequence/kitchen_operations_semantic/kitchen_operations_semantic_1.png"" class=""exp-image"">
                    <div class=""question-area""></div> 
                </div>","null","","","","","","","","","","","",""
"","","","","","html-button-response","165","532898","0.0-165.0","8EA7FA2D5D9A45CF8DE35D50ECF804EB","019cfc81-7780-75ad-adbd-eaaf801be502","019cfc7b-6c7b-7b1b-afe7-acad8efc6711","","1161","
                <div class=""stimulus-container"">
                    <img src=""images/semantic_sequence/kitchen_operations_semantic/kitchen_operations_semantic_1.png"" class=""exp-image"">
                    <div class=""question-area"">
                        <p style=""font-size: 20px; font-weight: bold; margin: 0;"">Is there a person in this image?</p>
                    </div>
                </div>","0","main_experiment_trial","1","kitchen_operations_semantic","semantic_sequence","chronological","","","","","","",""
"","","","","","html-keyboard-response","166","537899","0.0-166.0","8EA7FA2D5D9A45CF8DE35D50ECF804EB","019cfc81-7780-75ad-adbd-eaaf801be502","019cfc7b-6c7b-7b1b-afe7-acad8efc6711","","null","
                <div class=""stimulus-container"">
                    <img src=""images/semantic_sequence/kitchen_operations_semantic/kitchen_operations_semantic_2.png"" class=""exp-image"">
                    <div class=""question-area""></div> 
                </div>","null","","","","","","","","","","","",""
"","","","","","html-button-response","167","539048","0.0-167.0","8EA7FA2D5D9A45CF8DE35D50ECF804EB","019cfc81-7780-75ad-adbd-eaaf801be502","019cfc7b-6c7b-7b1b-afe7-acad8efc6711","","1148","
                <div class=""stimulus-container"">
                    <img src=""images/semantic_sequence/kitchen_operations_semantic/kitchen_operations_semantic_2.png"" class=""exp-image"">
                    <div class=""question-area"">
                        <p style=""font-size: 20px; font-weight: bold; margin: 0;"">Is there a person in this image?</p>
                    </div>
                </div>","0","main_experiment_trial","2","kitchen_operations_semantic","semantic_sequence","chronological","","","","","","",""
"","","","","","html-keyboard-response","168","544050","0.0-168.0","8EA7FA2D5D9A45CF8DE35D50ECF804EB","019cfc81-7780-75ad-adbd-eaaf801be502","019cfc7b-6c7b-7b1b-afe7-acad8efc6711","","null","
                <div class=""stimulus-container"">
                    <img src=""images/semantic_sequence/kitchen_operations_semantic/kitchen_operations_semantic_3.png"" class=""exp-image"">
                    <div class=""question-area""></div> 
                </div>","null","","","","","","","","","","","",""
"","","","","","html-button-response","169","545171","0.0-169.0","8EA7FA2D5D9A45CF8DE35D50ECF804EB","019cfc81-7780-75ad-adbd-eaaf801be502","019cfc7b-6c7b-7b1b-afe7-acad8efc6711","","1120","
                <div class=""stimulus-container"">
                    <img src=""images/semantic_sequence/kitchen_operations_semantic/kitchen_operations_semantic_3.png"" class=""exp-image"">
                    <div class=""question-area"">
                        <p style=""font-size: 20px; font-weight: bold; margin: 0;"">Is there a person in this image?</p>
                    </div>
                </div>","0","main_experiment_trial","3","kitchen_operations_semantic","semantic_sequence","chronological","","","","","","",""
"","","","","","html-keyboard-response","170","550173","0.0-170.0","8EA7FA2D5D9A45CF8DE35D50ECF804EB","019cfc81-7780-75ad-adbd-eaaf801be502","019cfc7b-6c7b-7b1b-afe7-acad8efc6711","","null","
                <div class=""stimulus-container"">
                    <img src=""images/semantic_sequence/kitchen_operations_semantic/kitchen_operations_semantic_4.png"" class=""exp-image"">
                    <div class=""question-area""></div> 
                </div>","null","","","","","","","","","","","",""
"","","","","","html-button-response","171","550784","0.0-171.0","8EA7FA2D5D9A45CF8DE35D50ECF804EB","019cfc81-7780-75ad-adbd-eaaf801be502","019cfc7b-6c7b-7b1b-afe7-acad8efc6711","","610","
                <div class=""stimulus-container"">
                    <img src=""images/semantic_sequence/kitchen_operations_semantic/kitchen_operations_semantic_4.png"" class=""exp-image"">
                    <div class=""question-area"">
                        <p style=""font-size: 20px; font-weight: bold; margin: 0;"">Is there a person in this image?</p>
                    </div>
                </div>","0","main_experiment_trial","4","kitchen_operations_semantic","semantic_sequence","chronological","","","","","","",""
"","","","","","html-keyboard-response","172","555786","0.0-172.0","8EA7FA2D5D9A45CF8DE35D50ECF804EB","019cfc81-7780-75ad-adbd-eaaf801be502","019cfc7b-6c7b-7b1b-afe7-acad8efc6711","","null","
                <div class=""stimulus-container"">
                    <img src=""images/semantic_sequence/kitchen_operations_semantic/kitchen_operations_semantic_5.png"" class=""exp-image"">
                    <div class=""question-area""></div> 
                </div>","null","","","","","","","","","","","",""
"","","","","","html-button-response","173","556949","0.0-173.0","8EA7FA2D5D9A45CF8DE35D50ECF804EB","019cfc81-7780-75ad-adbd-eaaf801be502","019cfc7b-6c7b-7b1b-afe7-acad8efc6711","","1161","
                <div class=""stimulus-container"">
                    <img src=""images/semantic_sequence/kitchen_operations_semantic/kitchen_operations_semantic_5.png"" class=""exp-image"">
                    <div class=""question-area"">
                        <p style=""font-size: 20px; font-weight: bold; margin: 0;"">Is there a person in this image?</p>
                    </div>
                </div>","0","main_experiment_trial","5","kitchen_operations_semantic","semantic_sequence","chronological","","","","","","",""
"","","","","","html-keyboard-response","174","561950","0.0-174.0","8EA7FA2D5D9A45CF8DE35D50ECF804EB","019cfc81-7780-75ad-adbd-eaaf801be502","019cfc7b-6c7b-7b1b-afe7-acad8efc6711","","null","
                <div class=""stimulus-container"">
                    <img src=""images/semantic_sequence/kitchen_operations_semantic/kitchen_operations_semantic_6.png"" class=""exp-image"">
                    <div class=""question-area""></div> 
                </div>","null","","","","","","","","","","","",""
"","","","","","html-button-response","175","562521","0.0-175.0","8EA7FA2D5D9A45CF8DE35D50ECF804EB","019cfc81-7780-75ad-adbd-eaaf801be502","019cfc7b-6c7b-7b1b-afe7-acad8efc6711","","569","
                <div class=""stimulus-container"">
                    <img src=""images/semantic_sequence/kitchen_operations_semantic/kitchen_operations_semantic_6.png"" class=""exp-image"">
                    <div class=""question-area"">
                        <p style=""font-size: 20px; font-weight: bold; margin: 0;"">Is there a person in this image?</p>
                    </div>
                </div>","0","main_experiment_trial","6","kitchen_operations_semantic","semantic_sequence","chronological","","","","","","",""
"","","","","","html-keyboard-response","176","567523","0.0-176.0","8EA7FA2D5D9A45CF8DE35D50ECF804EB","019cfc81-7780-75ad-adbd-eaaf801be502","019cfc7b-6c7b-7b1b-afe7-acad8efc6711","","null","
                <div class=""stimulus-container"">
