"success","timeout","failed_images","failed_audio","failed_video","trial_type","trial_index","time_elapsed","internal_node_id","subject_id","study_id","session_id","view_history","rt","stimulus","response","task","image_index","folder","sequence_type","valuable_image_index","reward_type","chosen_image_index","target_X","correct_choice"
"true","false","[]","[]","[]","preload","0","7667","0.0-0.0","6AA394C12E484B4B9BCC588F5A2D2FA1","019cf7c0-ebbd-7721-8773-014d03f2e3bb","019cf7bd-52b9-7f96-9138-a5960b400b31","","","","","","","","","","","","",""
"","","","","","instructions","1","20428","0.0-1.0","6AA394C12E484B4B9BCC588F5A2D2FA1","019cf7c0-ebbd-7721-8773-014d03f2e3bb","019cf7bd-52b9-7f96-9138-a5960b400b31","[{""page_index"":0,""viewing_time"":12759}]","12760","","","","","","","","","","",""
"","","","","","instructions","2","24535","0.0-2.0","6AA394C12E484B4B9BCC588F5A2D2FA1","019cf7c0-ebbd-7721-8773-014d03f2e3bb","019cf7bd-52b9-7f96-9138-a5960b400b31","[{""page_index"":0,""viewing_time"":4106}]","4106","","","","","","","","","","",""
"true","","","","","fullscreen","3","26990","0.0-3.0","6AA394C12E484B4B9BCC588F5A2D2FA1","019cf7c0-ebbd-7721-8773-014d03f2e3bb","019cf7bd-52b9-7f96-9138-a5960b400b31","","1445","","","","","","","","","","",""
"","","","","","instructions","4","44635","0.0-4.0","6AA394C12E484B4B9BCC588F5A2D2FA1","019cf7c0-ebbd-7721-8773-014d03f2e3bb","019cf7bd-52b9-7f96-9138-a5960b400b31","[{""page_index"":0,""viewing_time"":17643}]","17644","","","","","","","","","","",""
"","","","","","instructions","5","47661","0.0-5.0","6AA394C12E484B4B9BCC588F5A2D2FA1","019cf7c0-ebbd-7721-8773-014d03f2e3bb","019cf7bd-52b9-7f96-9138-a5960b400b31","[{""page_index"":0,""viewing_time"":3025}]","3025","","","","","","","","","","",""
"","","","","","html-keyboard-response","6","51677","0.0-6.0","6AA394C12E484B4B9BCC588F5A2D2FA1","019cf7c0-ebbd-7721-8773-014d03f2e3bb","019cf7bd-52b9-7f96-9138-a5960b400b31","","null","
                <div class=""stimulus-container"">
                    <img src=""images/instructions/movie_1.png"" class=""exp-image"">
                    <div class=""question-area""></div> 
                </div>","null","","","","","","","","",""
"","","","","","html-button-response","7","54259","0.0-7.0","6AA394C12E484B4B9BCC588F5A2D2FA1","019cf7c0-ebbd-7721-8773-014d03f2e3bb","019cf7bd-52b9-7f96-9138-a5960b400b31","","2580","
                <div class=""stimulus-container"">
                    <img src=""images/instructions/movie_1.png"" class=""exp-image"">
                    <div class=""question-area"">
                        <p style=""font-size: 20px; font-weight: bold; margin: 0;"">Was there a person in this image?</p>
                    </div>
                </div>","0","example_question","1","","","","","","",""
"","","","","","html-keyboard-response","8","58272","0.0-8.0","6AA394C12E484B4B9BCC588F5A2D2FA1","019cf7c0-ebbd-7721-8773-014d03f2e3bb","019cf7bd-52b9-7f96-9138-a5960b400b31","","null","
                <div class=""stimulus-container"">
                    <img src=""images/instructions/movie_2.png"" class=""exp-image"">
                    <div class=""question-area""></div> 
                </div>","null","","","","","","","","",""
"","","","","","html-button-response","9","59422","0.0-9.0","6AA394C12E484B4B9BCC588F5A2D2FA1","019cf7c0-ebbd-7721-8773-014d03f2e3bb","019cf7bd-52b9-7f96-9138-a5960b400b31","","1146","
                <div class=""stimulus-container"">
                    <img src=""images/instructions/movie_2.png"" class=""exp-image"">
                    <div class=""question-area"">
                        <p style=""font-size: 20px; font-weight: bold; margin: 0;"">Was there a person in this image?</p>
                    </div>
                </div>","0","example_question","2","","","","","","",""
"","","","","","html-keyboard-response","10","63438","0.0-10.0","6AA394C12E484B4B9BCC588F5A2D2FA1","019cf7c0-ebbd-7721-8773-014d03f2e3bb","019cf7bd-52b9-7f96-9138-a5960b400b31","","null","
                <div class=""stimulus-container"">
                    <img src=""images/instructions/movie_3.png"" class=""exp-image"">
                    <div class=""question-area""></div> 
                </div>","null","","","","","","","","",""
"","","","","","html-button-response","11","64802","0.0-11.0","6AA394C12E484B4B9BCC588F5A2D2FA1","019cf7c0-ebbd-7721-8773-014d03f2e3bb","019cf7bd-52b9-7f96-9138-a5960b400b31","","1361","
                <div class=""stimulus-container"">
                    <img src=""images/instructions/movie_3.png"" class=""exp-image"">
                    <div class=""question-area"">
                        <p style=""font-size: 20px; font-weight: bold; margin: 0;"">Was there a person in this image?</p>
                    </div>
                </div>","0","example_question","3","","","","","","",""
"","","","","","html-keyboard-response","12","68814","0.0-12.0","6AA394C12E484B4B9BCC588F5A2D2FA1","019cf7c0-ebbd-7721-8773-014d03f2e3bb","019cf7bd-52b9-7f96-9138-a5960b400b31","","null","
                <div class=""stimulus-container"">
                    <img src=""images/instructions/movie_4.png"" class=""exp-image"">
                    <div class=""question-area""></div> 
                </div>","null","","","","","","","","",""
"","","","","","html-button-response","13","69443","0.0-13.0","6AA394C12E484B4B9BCC588F5A2D2FA1","019cf7c0-ebbd-7721-8773-014d03f2e3bb","019cf7bd-52b9-7f96-9138-a5960b400b31","","627","
                <div class=""stimulus-container"">
                    <img src=""images/instructions/movie_4.png"" class=""exp-image"">
                    <div class=""question-area"">
                        <p style=""font-size: 20px; font-weight: bold; margin: 0;"">Was there a person in this image?</p>
                    </div>
                </div>","0","example_question","4","","","","","","",""
"","","","","","instructions","14","70821","0.0-14.0","6AA394C12E484B4B9BCC588F5A2D2FA1","019cf7c0-ebbd-7721-8773-014d03f2e3bb","019cf7bd-52b9-7f96-9138-a5960b400b31","[{""page_index"":0,""viewing_time"":1377}]","1378","","","","","","","","","","",""
"","","","","","instructions","15","77708","0.0-15.0","6AA394C12E484B4B9BCC588F5A2D2FA1","019cf7c0-ebbd-7721-8773-014d03f2e3bb","019cf7bd-52b9-7f96-9138-a5960b400b31","[{""page_index"":0,""viewing_time"":6885}]","6886","","","","","","","","","","",""
"","","","","","html-keyboard-response","16","78720","0.0-16.0","6AA394C12E484B4B9BCC588F5A2D2FA1","019cf7c0-ebbd-7721-8773-014d03f2e3bb","019cf7bd-52b9-7f96-9138-a5960b400b31","","null","<div style=""background-color: white; width: 100vw; height: 100vh;""></div>","null","","","","","","","","",""
"","","","","","html-keyboard-response","17","83736","0.0-17.0","6AA394C12E484B4B9BCC588F5A2D2FA1","019cf7c0-ebbd-7721-8773-014d03f2e3bb","019cf7bd-52b9-7f96-9138-a5960b400b31","","null","
                <div class=""stimulus-container"">
                    <img src=""images/semantic_sequence/physical_activity_semantic/physical_activity_semantic_1.png"" class=""exp-image"">
                    <div class=""question-area""></div> 
                </div>","null","","","","","","","","",""
"","","","","","html-button-response","18","84996","0.0-18.0","6AA394C12E484B4B9BCC588F5A2D2FA1","019cf7c0-ebbd-7721-8773-014d03f2e3bb","019cf7bd-52b9-7f96-9138-a5960b400b31","","1257","
                <div class=""stimulus-container"">
                    <img src=""images/semantic_sequence/physical_activity_semantic/physical_activity_semantic_1.png"" class=""exp-image"">
                    <div class=""question-area"">
                        <p style=""font-size: 20px; font-weight: bold; margin: 0;"">Is there a person in this image?</p>
                    </div>
                </div>","0","main_experiment_trial","1","physical_activity_semantic","semantic_sequence","","","","",""
"","","","","","html-keyboard-response","19","89998","0.0-19.0","6AA394C12E484B4B9BCC588F5A2D2FA1","019cf7c0-ebbd-7721-8773-014d03f2e3bb","019cf7bd-52b9-7f96-9138-a5960b400b31","","null","
                <div class=""stimulus-container"">
                    <img src=""images/semantic_sequence/physical_activity_semantic/physical_activity_semantic_2.png"" class=""exp-image"">
                    <div class=""question-area""></div> 
                </div>","null","","","","","","","","",""
"","","","","","html-button-response","20","90925","0.0-20.0","6AA394C12E484B4B9BCC588F5A2D2FA1","019cf7c0-ebbd-7721-8773-014d03f2e3bb","019cf7bd-52b9-7f96-9138-a5960b400b31","","926","
                <div class=""stimulus-container"">
                    <img src=""images/semantic_sequence/physical_activity_semantic/physical_activity_semantic_2.png"" class=""exp-image"">
                    <div class=""question-area"">
                        <p style=""font-size: 20px; font-weight: bold; margin: 0;"">Is there a person in this image?</p>
                    </div>
                </div>","0","main_experiment_trial","2","physical_activity_semantic","semantic_sequence","","","","",""
"","","","","","html-keyboard-response","21","95929","0.0-21.0","6AA394C12E484B4B9BCC588F5A2D2FA1","019cf7c0-ebbd-7721-8773-014d03f2e3bb","019cf7bd-52b9-7f96-9138-a5960b400b31","","null","
                <div class=""stimulus-container"">
                    <img src=""images/semantic_sequence/physical_activity_semantic/physical_activity_semantic_3.png"" class=""exp-image"">
                    <div class=""question-area""></div> 
                </div>","null","","","","","","","","",""
"","","","","","html-button-response","22","96379","0.0-22.0","6AA394C12E484B4B9BCC588F5A2D2FA1","019cf7c0-ebbd-7721-8773-014d03f2e3bb","019cf7bd-52b9-7f96-9138-a5960b400b31","","446","
                <div class=""stimulus-container"">
                    <img src=""images/semantic_sequence/physical_activity_semantic/physical_activity_semantic_3.png"" class=""exp-image"">
                    <div class=""question-area"">
                        <p style=""font-size: 20px; font-weight: bold; margin: 0;"">Is there a person in this image?</p>
                    </div>
                </div>","0","main_experiment_trial","3","physical_activity_semantic","semantic_sequence","","","","",""
"","","","","","html-keyboard-response","23","101383","0.0-23.0","6AA394C12E484B4B9BCC588F5A2D2FA1","019cf7c0-ebbd-7721-8773-014d03f2e3bb","019cf7bd-52b9-7f96-9138-a5960b400b31","","null","
                <div class=""stimulus-container"">
                    <img src=""images/semantic_sequence/physical_activity_semantic/physical_activity_semantic_4.png"" class=""exp-image"">
                    <div class=""question-area""></div> 
                </div>","null","","","","","","","","",""
"","","","","","html-button-response","24","101830","0.0-24.0","6AA394C12E484B4B9BCC588F5A2D2FA1","019cf7c0-ebbd-7721-8773-014d03f2e3bb","019cf7bd-52b9-7f96-9138-a5960b400b31","","443","
                <div class=""stimulus-container"">
                    <img src=""images/semantic_sequence/physical_activity_semantic/physical_activity_semantic_4.png"" class=""exp-image"">
                    <div class=""question-area"">
                        <p style=""font-size: 20px; font-weight: bold; margin: 0;"">Is there a person in this image?</p>
                    </div>
                </div>","0","main_experiment_trial","4","physical_activity_semantic","semantic_sequence","","","","",""
"","","","","","html-keyboard-response","25","106836","0.0-25.0","6AA394C12E484B4B9BCC588F5A2D2FA1","019cf7c0-ebbd-7721-8773-014d03f2e3bb","019cf7bd-52b9-7f96-9138-a5960b400b31","","null","
                <div class=""stimulus-container"">
                    <img src=""images/semantic_sequence/physical_activity_semantic/physical_activity_semantic_5.png"" class=""exp-image"">
                    <div class=""question-area""></div> 
                </div>","null","","","","","","","","",""
"","","","","","html-button-response","26","107943","0.0-26.0","6AA394C12E484B4B9BCC588F5A2D2FA1","019cf7c0-ebbd-7721-8773-014d03f2e3bb","019cf7bd-52b9-7f96-9138-a5960b400b31","","1105","
                <div class=""stimulus-container"">
                    <img src=""images/semantic_sequence/physical_activity_semantic/physical_activity_semantic_5.png"" class=""exp-image"">
                    <div class=""question-area"">
                        <p style=""font-size: 20px; font-weight: bold; margin: 0;"">Is there a person in this image?</p>
                    </div>
                </div>","0","main_experiment_trial","5","physical_activity_semantic","semantic_sequence","","","","",""
"","","","","","html-keyboard-response","27","112946","0.0-27.0","6AA394C12E484B4B9BCC588F5A2D2FA1","019cf7c0-ebbd-7721-8773-014d03f2e3bb","019cf7bd-52b9-7f96-9138-a5960b400b31","","null","
                <div class=""stimulus-container"">
                    <img src=""images/semantic_sequence/physical_activity_semantic/physical_activity_semantic_6.png"" class=""exp-image"">
                    <div class=""question-area""></div> 
                </div>","null","","","","","","","","",""
"","","","","","html-button-response","28","115950","0.0-28.0","6AA394C12E484B4B9BCC588F5A2D2FA1","019cf7c0-ebbd-7721-8773-014d03f2e3bb","019cf7bd-52b9-7f96-9138-a5960b400b31","","null","
                <div class=""stimulus-container"">
                    <img src=""images/semantic_sequence/physical_activity_semantic/physical_activity_semantic_6.png"" class=""exp-image"">
                    <div class=""question-area"">
                        <p style=""font-size: 20px; font-weight: bold; margin: 0;"">Is there a person in this image?</p>
                    </div>
                </div>","null","main_experiment_trial","6","physical_activity_semantic","semantic_sequence","","","","",""
"","","","","","html-keyboard-response","29","120961","0.0-29.0","6AA394C12E484B4B9BCC588F5A2D2FA1","019cf7c0-ebbd-7721-8773-014d03f2e3bb","019cf7bd-52b9-7f96-9138-a5960b400b31","","null","
                <div class=""stimulus-container"">
                    <img src=""images/semantic_sequence/physical_activity_semantic/physical_activity_semantic_7.png"" class=""exp-image"">
                    <div class=""question-area""></div> 
                </div>","null","","","","","","","","",""
"","","","","","html-button-response","30","123967","0.0-30.0","6AA394C12E484B4B9BCC588F5A2D2FA1","019cf7c0-ebbd-7721-8773-014d03f2e3bb","019cf7bd-52b9-7f96-9138-a5960b400b31","","null","
                <div class=""stimulus-container"">
                    <img src=""images/semantic_sequence/physical_activity_semantic/physical_activity_semantic_7.png"" class=""exp-image"">
                    <div class=""question-area"">
                        <p style=""font-size: 20px; font-weight: bold; margin: 0;"">Is there a person in this image?</p>
                    </div>
                </div>","null","main_experiment_trial","7","physical_activity_semantic","semantic_sequence","","","","",""
"","","","","","html-keyboard-response","31","128979","0.0-31.0","6AA394C12E484B4B9BCC588F5A2D2FA1","019cf7c0-ebbd-7721-8773-014d03f2e3bb","019cf7bd-52b9-7f96-9138-a5960b400b31","","null","
                <div class=""stimulus-container"">
                    <img src=""images/semantic_sequence/physical_activity_semantic/physical_activity_semantic_8.png"" class=""exp-image"">
                    <div class=""question-area""></div> 
                </div>","null","","","","","","","","",""
"","","","","","html-button-response","32","131172","0.0-32.0","6AA394C12E484B4B9BCC588F5A2D2FA1","019cf7c0-ebbd-7721-8773-014d03f2e3bb","019cf7bd-52b9-7f96-9138-a5960b400b31","","2190","
                <div class=""stimulus-container"">
                    <img src=""images/semantic_sequence/physical_activity_semantic/physical_activity_semantic_8.png"" class=""exp-image"">
                    <div class=""question-area"">
                        <p style=""font-size: 20px; font-weight: bold; margin: 0;"">Is there a person in this image?</p>
                    </div>
                </div>","0","main_experiment_trial","8","physical_activity_semantic","semantic_sequence","","","","",""
"","","","","","html-keyboard-response","33","136190","0.0-33.0","6AA394C12E484B4B9BCC588F5A2D2FA1","019cf7c0-ebbd-7721-8773-014d03f2e3bb","019cf7bd-52b9-7f96-9138-a5960b400b31","","null","
                <div class=""stimulus-container"">
                    <img src=""images/semantic_sequence/physical_activity_semantic/physical_activity_semantic_9.png"" class=""exp-image"">
                    <div class=""question-area""></div> 
                </div>","null","","","","","","","","",""
"","","","","","html-button-response","34","137045","0.0-34.0","6AA394C12E484B4B9BCC588F5A2D2FA1","019cf7c0-ebbd-7721-8773-014d03f2e3bb","019cf7bd-52b9-7f96-9138-a5960b400b31","","851","
                <div class=""stimulus-container"">
                    <img src=""images/semantic_sequence/physical_activity_semantic/physical_activity_semantic_9.png"" class=""exp-image"">
                    <div class=""question-area"">
                        <p style=""font-size: 20px; font-weight: bold; margin: 0;"">Is there a person in this image?</p>
                    </div>
                </div>","0","main_experiment_trial","9","physical_activity_semantic","semantic_sequence","","","","",""
"","","","","","html-keyboard-response","35","142053","0.0-35.0","6AA394C12E484B4B9BCC588F5A2D2FA1","019cf7c0-ebbd-7721-8773-014d03f2e3bb","019cf7bd-52b9-7f96-9138-a5960b400b31","","null","
                <div class=""stimulus-container"">
                    <img src=""images/semantic_sequence/physical_activity_semantic/physical_activity_semantic_ten.png"" class=""exp-image"">
                    <div class=""question-area""></div> 
                </div>","null","","","","","","","","",""
"","","","","","html-button-response","36","142536","0.0-36.0","6AA394C12E484B4B9BCC588F5A2D2FA1","019cf7c0-ebbd-7721-8773-014d03f2e3bb","019cf7bd-52b9-7f96-9138-a5960b400b31","","479","
                <div class=""stimulus-container"">
                    <img src=""images/semantic_sequence/physical_activity_semantic/physical_activity_semantic_ten.png"" class=""exp-image"">
                    <div class=""question-area"">
                        <p style=""font-size: 20px; font-weight: bold; margin: 0;"">Is there a person in this image?</p>
                    </div>
                </div>","0","main_experiment_trial","ten","physical_activity_semantic","semantic_sequence","","","","",""
"","","","","","html-keyboard-response","37","143545","0.0-37.0","6AA394C12E484B4B9BCC588F5A2D2FA1","019cf7c0-ebbd-7721-8773-014d03f2e3bb","019cf7bd-52b9-7f96-9138-a5960b400b31","","null","<div style=""background-color: white; width: 100vw; height: 100vh;""></div>","null","","","","","","","","",""
"","","","","","html-keyboard-response","38","148561","0.0-38.0","6AA394C12E484B4B9BCC588F5A2D2FA1","019cf7c0-ebbd-7721-8773-014d03f2e3bb","019cf7bd-52b9-7f96-9138-a5960b400b31","","null","
                <div class=""stimulus-container"">
                    <img src=""images/semantic_sequence/creative_activities_semantic/creative_activities_semantic_1.png"" class=""exp-image"">
                    <div class=""question-area""></div> 
                </div>","null","","","","","","","","",""
"","","","","","html-button-response","39","149354","0.0-39.0","6AA394C12E484B4B9BCC588F5A2D2FA1","019cf7c0-ebbd-7721-8773-014d03f2e3bb","019cf7bd-52b9-7f96-9138-a5960b400b31","","792","
                <div class=""stimulus-container"">
                    <img src=""images/semantic_sequence/creative_activities_semantic/creative_activities_semantic_1.png"" class=""exp-image"">
                    <div class=""question-area"">
                        <p style=""font-size: 20px; font-weight: bold; margin: 0;"">Is there a person in this image?</p>
                    </div>
                </div>","0","main_experiment_trial","1","creative_activities_semantic","semantic_sequence","","","","",""
"","","","","","html-keyboard-response","40","154359","0.0-40.0","6AA394C12E484B4B9BCC588F5A2D2FA1","019cf7c0-ebbd-7721-8773-014d03f2e3bb","019cf7bd-52b9-7f96-9138-a5960b400b31","","null","
                <div class=""stimulus-container"">
                    <img src=""images/semantic_sequence/creative_activities_semantic/creative_activities_semantic_2.png"" class=""exp-image"">
                    <div class=""question-area""></div> 
                </div>","null","","","","","","","","",""
"","","","","","html-button-response","41","154812","0.0-41.0","6AA394C12E484B4B9BCC588F5A2D2FA1","019cf7c0-ebbd-7721-8773-014d03f2e3bb","019cf7bd-52b9-7f96-9138-a5960b400b31","","451","
                <div class=""stimulus-container"">
                    <img src=""images/semantic_sequence/creative_activities_semantic/creative_activities_semantic_2.png"" class=""exp-image"">
                    <div class=""question-area"">
                        <p style=""font-size: 20px; font-weight: bold; margin: 0;"">Is there a person in this image?</p>
                    </div>
                </div>","0","main_experiment_trial","2","creative_activities_semantic","semantic_sequence","","","","",""
"","","","","","html-keyboard-response","42","159826","0.0-42.0","6AA394C12E484B4B9BCC588F5A2D2FA1","019cf7c0-ebbd-7721-8773-014d03f2e3bb","019cf7bd-52b9-7f96-9138-a5960b400b31","","null","
                <div class=""stimulus-container"">
                    <img src=""images/semantic_sequence/creative_activities_semantic/creative_activities_semantic_3.png"" class=""exp-image"">
                    <div class=""question-area""></div> 
                </div>","null","","","","","","","","",""
"","","","","","html-button-response","43","160263","0.0-43.0","6AA394C12E484B4B9BCC588F5A2D2FA1","019cf7c0-ebbd-7721-8773-014d03f2e3bb","019cf7bd-52b9-7f96-9138-a5960b400b31","","434","
                <div class=""stimulus-container"">
                    <img src=""images/semantic_sequence/creative_activities_semantic/creative_activities_semantic_3.png"" class=""exp-image"">
                    <div class=""question-area"">
                        <p style=""font-size: 20px; font-weight: bold; margin: 0;"">Is there a person in this image?</p>
                    </div>
                </div>","0","main_experiment_trial","3","creative_activities_semantic","semantic_sequence","","","","",""
"","","","","","html-keyboard-response","44","165276","0.0-44.0","6AA394C12E484B4B9BCC588F5A2D2FA1","019cf7c0-ebbd-7721-8773-014d03f2e3bb","019cf7bd-52b9-7f96-9138-a5960b400b31","","null","
                <div class=""stimulus-container"">
                    <img src=""images/semantic_sequence/creative_activities_semantic/creative_activities_semantic_4.png"" class=""exp-image"">
                    <div class=""question-area""></div> 
                </div>","null","","","","","","","","",""
"","","","","","html-button-response","45","165725","0.0-45.0","6AA394C12E484B4B9BCC588F5A2D2FA1","019cf7c0-ebbd-7721-8773-014d03f2e3bb","019cf7bd-52b9-7f96-9138-a5960b400b31","","447","
                <div class=""stimulus-container"">
                    <img src=""images/semantic_sequence/creative_activities_semantic/creative_activities_semantic_4.png"" class=""exp-image"">
                    <div class=""question-area"">
                        <p style=""font-size: 20px; font-weight: bold; margin: 0;"">Is there a person in this image?</p>
                    </div>
                </div>","0","main_experiment_trial","4","creative_activities_semantic","semantic_sequence","","","","",""
"","","","","","html-keyboard-response","46","170741","0.0-46.0","6AA394C12E484B4B9BCC588F5A2D2FA1","019cf7c0-ebbd-7721-8773-014d03f2e3bb","019cf7bd-52b9-7f96-9138-a5960b400b31","","null","
                <div class=""stimulus-container"">
                    <img src=""images/semantic_sequence/creative_activities_semantic/creative_activities_semantic_5.png"" class=""exp-image"">
                    <div class=""question-area""></div> 
                </div>","null","","","","","","","","",""
"","","","","","html-button-response","47","171212","0.0-47.0","6AA394C12E484B4B9BCC588F5A2D2FA1","019cf7c0-ebbd-7721-8773-014d03f2e3bb","019cf7bd-52b9-7f96-9138-a5960b400b31","","468","
                <div class=""stimulus-container"">
                    <img src=""images/semantic_sequence/creative_activities_semantic/creative_activities_semantic_5.png"" class=""exp-image"">
                    <div class=""question-area"">
                        <p style=""font-size: 20px; font-weight: bold; margin: 0;"">Is there a person in this image?</p>
                    </div>
                </div>","0","main_experiment_trial","5","creative_activities_semantic","semantic_sequence","","","","",""
"","","","","","html-keyboard-response","48","176225","0.0-48.0","6AA394C12E484B4B9BCC588F5A2D2FA1","019cf7c0-ebbd-7721-8773-014d03f2e3bb","019cf7bd-52b9-7f96-9138-a5960b400b31","","null","
                <div class=""stimulus-container"">
                    <img src=""images/semantic_sequence/creative_activities_semantic/creative_activities_semantic_6.png"" class=""exp-image"">
                    <div class=""question-area""></div> 
                </div>","null","","","","","","","","",""
"","","","","","html-button-response","49","176663","0.0-49.0","6AA394C12E484B4B9BCC588F5A2D2FA1","019cf7c0-ebbd-7721-8773-014d03f2e3bb","019cf7bd-52b9-7f96-9138-a5960b400b31","","436","
                <div class=""stimulus-container"">
                    <img src=""images/semantic_sequence/creative_activities_semantic/creative_activities_semantic_6.png"" class=""exp-image"">
                    <div class=""question-area"">
                        <p style=""font-size: 20px; font-weight: bold; margin: 0;"">Is there a person in this image?</p>
                    </div>
                </div>","0","main_experiment_trial","6","creative_activities_semantic","semantic_sequence","","","","",""
"","","","","","html-keyboard-response","50","181675","0.0-50.0","6AA394C12E484B4B9BCC588F5A2D2FA1","019cf7c0-ebbd-7721-8773-014d03f2e3bb","019cf7bd-52b9-7f96-9138-a5960b400b31","","null","
                <div class=""stimulus-container"">
                    <img src=""images/semantic_sequence/creative_activities_semantic/creative_activities_semantic_7.png"" class=""exp-image"">
                    <div class=""question-area""></div> 
                </div>","null","","","","","","","","",""
"","","","","","html-button-response","51","182203","0.0-51.0","6AA394C12E484B4B9BCC588F5A2D2FA1","019cf7c0-ebbd-7721-8773-014d03f2e3bb","019cf7bd-52b9-7f96-9138-a5960b400b31","","525","
                <div class=""stimulus-container"">
                    <img src=""images/semantic_sequence/creative_activities_semantic/creative_activities_semantic_7.png"" class=""exp-image"">
                    <div class=""question-area"">
                        <p style=""font-size: 20px; font-weight: bold; margin: 0;"">Is there a person in this image?</p>
                    </div>
                </div>","0","main_experiment_trial","7","creative_activities_semantic","semantic_sequence","","","","",""
"","","","","","html-keyboard-response","52","187209","0.0-52.0","6AA394C12E484B4B9BCC588F5A2D2FA1","019cf7c0-ebbd-7721-8773-014d03f2e3bb","019cf7bd-52b9-7f96-9138-a5960b400b31","","null","
                <div class=""stimulus-container"">
                    <img src=""images/semantic_sequence/creative_activities_semantic/creative_activities_semantic_8.png"" class=""exp-image"">
                    <div class=""question-area""></div> 
                </div>","null","","","","","","","","",""
"","","","","","html-button-response","53","187640","0.0-53.0","6AA394C12E484B4B9BCC588F5A2D2FA1","019cf7c0-ebbd-7721-8773-014d03f2e3bb","019cf7bd-52b9-7f96-9138-a5960b400b31","","428","
                <div class=""stimulus-container"">
                    <img src=""images/semantic_sequence/creative_activities_semantic/creative_activities_semantic_8.png"" class=""exp-image"">
                    <div class=""question-area"">
                        <p style=""font-size: 20px; font-weight: bold; margin: 0;"">Is there a person in this image?</p>
                    </div>
                </div>","0","main_experiment_trial","8","creative_activities_semantic","semantic_sequence","","","","",""
"","","","","","html-keyboard-response","54","192652","0.0-54.0","6AA394C12E484B4B9BCC588F5A2D2FA1","019cf7c0-ebbd-7721-8773-014d03f2e3bb","019cf7bd-52b9-7f96-9138-a5960b400b31","","null","
                <div class=""stimulus-container"">
                    <img src=""images/semantic_sequence/creative_activities_semantic/creative_activities_semantic_9.png"" class=""exp-image"">
                    <div class=""question-area""></div> 
                </div>","null","","","","","","","","",""
"","","","","","html-button-response","55","193485","0.0-55.0","6AA394C12E484B4B9BCC588F5A2D2FA1","019cf7c0-ebbd-7721-8773-014d03f2e3bb","019cf7bd-52b9-7f96-9138-a5960b400b31","","830","
                <div class=""stimulus-container"">
                    <img src=""images/semantic_sequence/creative_activities_semantic/creative_activities_semantic_9.png"" class=""exp-image"">
                    <div class=""question-area"">
                        <p style=""font-size: 20px; font-weight: bold; margin: 0;"">Is there a person in this image?</p>
                    </div>
                </div>","1","main_experiment_trial","9","creative_activities_semantic","semantic_sequence","","","","",""
"","","","","","html-keyboard-response","56","198501","0.0-56.0","6AA394C12E484B4B9BCC588F5A2D2FA1","019cf7c0-ebbd-7721-8773-014d03f2e3bb","019cf7bd-52b9-7f96-9138-a5960b400b31","","null","
                <div class=""stimulus-container"">
                    <img src=""images/semantic_sequence/creative_activities_semantic/creative_activities_semantic_ten.png"" class=""exp-image"">
                    <div class=""question-area""></div> 
                </div>","null","","","","","","","","",""
"","","","","","html-button-response","57","199140","0.0-57.0","6AA394C12E484B4B9BCC588F5A2D2FA1","019cf7c0-ebbd-7721-8773-014d03f2e3bb","019cf7bd-52b9-7f96-9138-a5960b400b31","","637","
                <div class=""stimulus-container"">
                    <img src=""images/semantic_sequence/creative_activities_semantic/creative_activities_semantic_ten.png"" class=""exp-image"">
                    <div class=""question-area"">
                        <p style=""font-size: 20px; font-weight: bold; margin: 0;"">Is there a person in this image?</p>
                    </div>
                </div>","0","main_experiment_trial","ten","creative_activities_semantic","semantic_sequence","","","","",""
"","","","","","html-keyboard-response","58","200158","0.0-58.0","6AA394C12E484B4B9BCC588F5A2D2FA1","019cf7c0-ebbd-7721-8773-014d03f2e3bb","019cf7bd-52b9-7f96-9138-a5960b400b31","","null","<div style=""background-color: white; width: 100vw; height: 100vh;""></div>","null","","","","","","","","",""
"","","","","","html-keyboard-response","59","205175","0.0-59.0","6AA394C12E484B4B9BCC588F5A2D2FA1","019cf7c0-ebbd-7721-8773-014d03f2e3bb","019cf7bd-52b9-7f96-9138-a5960b400b31","","null","
                <div class=""stimulus-container"">
                    <img src=""images/schematic_sequence/restaurant_scheme/restaurant_scheme_1.png"" class=""exp-image"">
                    <div class=""question-area""></div> 
                </div>","null","","","","","","","","",""
"","","","","","html-button-response","60","205590","0.0-60.0","6AA394C12E484B4B9BCC588F5A2D2FA1","019cf7c0-ebbd-7721-8773-014d03f2e3bb","019cf7bd-52b9-7f96-9138-a5960b400b31","","414","
                <div class=""stimulus-container"">
                    <img src=""images/schematic_sequence/restaurant_scheme/restaurant_scheme_1.png"" class=""exp-image"">
                    <div class=""question-area"">
                        <p style=""font-size: 20px; font-weight: bold; margin: 0;"">Is there a person in this image?</p>
                    </div>
                </div>","0","main_experiment_trial","1","restaurant_scheme","schematic_sequence","","","","",""
"","","","","","html-keyboard-response","61","210599","0.0-61.0","6AA394C12E484B4B9BCC588F5A2D2FA1","019cf7c0-ebbd-7721-8773-014d03f2e3bb","019cf7bd-52b9-7f96-9138-a5960b400b31","","null","
                <div class=""stimulus-container"">
                    <img src=""images/schematic_sequence/restaurant_scheme/restaurant_scheme_2.png"" class=""exp-image"">
                    <div class=""question-area""></div> 
                </div>","null","","","","","","","","",""
"","","","","","html-button-response","62","211102","0.0-62.0","6AA394C12E484B4B9BCC588F5A2D2FA1","019cf7c0-ebbd-7721-8773-014d03f2e3bb","019cf7bd-52b9-7f96-9138-a5960b400b31","","500","
                <div class=""stimulus-container"">
                    <img src=""images/schematic_sequence/restaurant_scheme/restaurant_scheme_2.png"" class=""exp-image"">
                    <div class=""question-area"">
                        <p style=""font-size: 20px; font-weight: bold; margin: 0;"">Is there a person in this image?</p>
                    </div>
                </div>","1","main_experiment_trial","2","restaurant_scheme","schematic_sequence","","","","",""
"","","","","","html-keyboard-response","63","216106","0.0-63.0","6AA394C12E484B4B9BCC588F5A2D2FA1","019cf7c0-ebbd-7721-8773-014d03f2e3bb","019cf7bd-52b9-7f96-9138-a5960b400b31","","null","
                <div class=""stimulus-container"">
                    <img src=""images/schematic_sequence/restaurant_scheme/restaurant_scheme_3.png"" class=""exp-image"">
                    <div class=""question-area""></div> 
                </div>","null","","","","","","","","",""
"","","","","","html-button-response","64","216564","0.0-64.0","6AA394C12E484B4B9BCC588F5A2D2FA1","019cf7c0-ebbd-7721-8773-014d03f2e3bb","019cf7bd-52b9-7f96-9138-a5960b400b31","","451","
                <div class=""stimulus-container"">
                    <img src=""images/schematic_sequence/restaurant_scheme/restaurant_scheme_3.png"" class=""exp-image"">
                    <div class=""question-area"">
                        <p style=""font-size: 20px; font-weight: bold; margin: 0;"">Is there a person in this image?</p>
                    </div>
                </div>","1","main_experiment_trial","3","restaurant_scheme","schematic_sequence","","","","",""
"","","","","","html-keyboard-response","65","221575","0.0-65.0","6AA394C12E484B4B9BCC588F5A2D2FA1","019cf7c0-ebbd-7721-8773-014d03f2e3bb","019cf7bd-52b9-7f96-9138-a5960b400b31","","null","
                <div class=""stimulus-container"">
                    <img src=""images/schematic_sequence/restaurant_scheme/restaurant_scheme_4.png"" class=""exp-image"">
                    <div class=""question-area""></div> 
                </div>","null","","","","","","","","",""
"","","","","","html-button-response","66","222016","0.0-66.0","6AA394C12E484B4B9BCC588F5A2D2FA1","019cf7c0-ebbd-7721-8773-014d03f2e3bb","019cf7bd-52b9-7f96-9138-a5960b400b31","","436","
                <div class=""stimulus-container"">
                    <img src=""images/schematic_sequence/restaurant_scheme/restaurant_scheme_4.png"" class=""exp-image"">
                    <div class=""question-area"">
                        <p style=""font-size: 20px; font-weight: bold; margin: 0;"">Is there a person in this image?</p>
                    </div>
                </div>","0","main_experiment_trial","4","restaurant_scheme","schematic_sequence","","","","",""
"","","","","","html-keyboard-response","67","227023","0.0-67.0","6AA394C12E484B4B9BCC588F5A2D2FA1","019cf7c0-ebbd-7721-8773-014d03f2e3bb","019cf7bd-52b9-7f96-9138-a5960b400b31","","null","
                <div class=""stimulus-container"">
                    <img src=""images/schematic_sequence/restaurant_scheme/restaurant_scheme_5.png"" class=""exp-image"">
                    <div class=""question-area""></div> 
                </div>","null","","","","","","","","",""
"","","","","","html-button-response","68","227454","0.0-68.0","6AA394C12E484B4B9BCC588F5A2D2FA1","019cf7c0-ebbd-7721-8773-014d03f2e3bb","019cf7bd-52b9-7f96-9138-a5960b400b31","","429","
                <div class=""stimulus-container"">
                    <img src=""images/schematic_sequence/restaurant_scheme/restaurant_scheme_5.png"" class=""exp-image"">
                    <div class=""question-area"">
                        <p style=""font-size: 20px; font-weight: bold; margin: 0;"">Is there a person in this image?</p>
                    </div>
                </div>","0","main_experiment_trial","5","restaurant_scheme","schematic_sequence","","","","",""
"","","","","","html-keyboard-response","69","232467","0.0-69.0","6AA394C12E484B4B9BCC588F5A2D2FA1","019cf7c0-ebbd-7721-8773-014d03f2e3bb","019cf7bd-52b9-7f96-9138-a5960b400b31","","null","
                <div class=""stimulus-container"">
                    <img src=""images/schematic_sequence/restaurant_scheme/restaurant_scheme_6.png"" class=""exp-image"">
                    <div class=""question-area""></div> 
                </div>","null","","","","","","","","",""
"","","","","","html-button-response","70","232919","0.0-70.0","6AA394C12E484B4B9BCC588F5A2D2FA1","019cf7c0-ebbd-7721-8773-014d03f2e3bb","019cf7bd-52b9-7f96-9138-a5960b400b31","","449","
                <div class=""stimulus-container"">
                    <img src=""images/schematic_sequence/restaurant_scheme/restaurant_scheme_6.png"" class=""exp-image"">
                    <div class=""question-area"">
                        <p style=""font-size: 20px; font-weight: bold; margin: 0;"">Is there a person in this image?</p>
                    </div>
                </div>","1","main_experiment_trial","6","restaurant_scheme","schematic_sequence","","","","",""
"","","","","","html-keyboard-response","71","237924","0.0-71.0","6AA394C12E484B4B9BCC588F5A2D2FA1","019cf7c0-ebbd-7721-8773-014d03f2e3bb","019cf7bd-52b9-7f96-9138-a5960b400b31","","null","
                <div class=""stimulus-container"">
                    <img src=""images/schematic_sequence/restaurant_scheme/restaurant_scheme_7.png"" class=""exp-image"">
                    <div class=""question-area""></div> 
                </div>","null","","","","","","","","",""
"","","","","","html-button-response","72","238471","0.0-72.0","6AA394C12E484B4B9BCC588F5A2D2FA1","019cf7c0-ebbd-7721-8773-014d03f2e3bb","019cf7bd-52b9-7f96-9138-a5960b400b31","","543","
                <div class=""stimulus-container"">
                    <img src=""images/schematic_sequence/restaurant_scheme/restaurant_scheme_7.png"" class=""exp-image"">
                    <div class=""question-area"">
                        <p style=""font-size: 20px; font-weight: bold; margin: 0;"">Is there a person in this image?</p>
                    </div>
                </div>","1","main_experiment_trial","7","restaurant_scheme","schematic_sequence","","","","",""
"","","","","","html-keyboard-response","73","243488","0.0-73.0","6AA394C12E484B4B9BCC588F5A2D2FA1","019cf7c0-ebbd-7721-8773-014d03f2e3bb","019cf7bd-52b9-7f96-9138-a5960b400b31","","null","
                <div class=""stimulus-container"">
                    <img src=""images/schematic_sequence/restaurant_scheme/restaurant_scheme_8.png"" class=""exp-image"">
                    <div class=""question-area""></div> 
                </div>","null","","","","","","","","",""
"","","","","","html-button-response","74","244109","0.0-74.0","6AA394C12E484B4B9BCC588F5A2D2FA1","019cf7c0-ebbd-7721-8773-014d03f2e3bb","019cf7bd-52b9-7f96-9138-a5960b400b31","","618","
                <div class=""stimulus-container"">
                    <img src=""images/schematic_sequence/restaurant_scheme/restaurant_scheme_8.png"" class=""exp-image"">
                    <div class=""question-area"">
                        <p style=""font-size: 20px; font-weight: bold; margin: 0;"">Is there a person in this image?</p>
                    </div>
                </div>","1","main_experiment_trial","8","restaurant_scheme","schematic_sequence","","","","",""
"","","","","","html-keyboard-response","75","249126","0.0-75.0","6AA394C12E484B4B9BCC588F5A2D2FA1","019cf7c0-ebbd-7721-8773-014d03f2e3bb","019cf7bd-52b9-7f96-9138-a5960b400b31","","null","
                <div class=""stimulus-container"">
                    <img src=""images/schematic_sequence/restaurant_scheme/restaurant_scheme_9.png"" class=""exp-image"">
                    <div class=""question-area""></div> 
                </div>","null","","","","","","","","",""
"","","","","","html-button-response","76","250422","0.0-76.0","6AA394C12E484B4B9BCC588F5A2D2FA1","019cf7c0-ebbd-7721-8773-014d03f2e3bb","019cf7bd-52b9-7f96-9138-a5960b400b31","","1295","
                <div class=""stimulus-container"">
                    <img src=""images/schematic_sequence/restaurant_scheme/restaurant_scheme_9.png"" class=""exp-image"">
                    <div class=""question-area"">
                        <p style=""font-size: 20px; font-weight: bold; margin: 0;"">Is there a person in this image?</p>
                    </div>
                </div>","0","main_experiment_trial","9","restaurant_scheme","schematic_sequence","","","","",""
"","","","","","html-keyboard-response","77","255439","0.0-77.0","6AA394C12E484B4B9BCC588F5A2D2FA1","019cf7c0-ebbd-7721-8773-014d03f2e3bb","019cf7bd-52b9-7f96-9138-a5960b400b31","","null","
                <div class=""stimulus-container"">
                    <img src=""images/schematic_sequence/restaurant_scheme/restaurant_scheme_ten.png"" class=""exp-image"">
                    <div class=""question-area""></div> 
                </div>","null","","","","","","","","",""
"","","","","","html-button-response","78","256663","0.0-78.0","6AA394C12E484B4B9BCC588F5A2D2FA1","019cf7c0-ebbd-7721-8773-014d03f2e3bb","019cf7bd-52b9-7f96-9138-a5960b400b31","","1222","
                <div class=""stimulus-container"">
                    <img src=""images/schematic_sequence/restaurant_scheme/restaurant_scheme_ten.png"" class=""exp-image"">
                    <div class=""question-area"">
                        <p style=""font-size: 20px; font-weight: bold; margin: 0;"">Is there a person in this image?</p>
                    </div>
                </div>","0","main_experiment_trial","ten","restaurant_scheme","schematic_sequence","","","","",""
"","","","","","html-keyboard-response","79","257672","0.0-79.0","6AA394C12E484B4B9BCC588F5A2D2FA1","019cf7c0-ebbd-7721-8773-014d03f2e3bb","019cf7bd-52b9-7f96-9138-a5960b400b31","","null","<div style=""background-color: white; width: 100vw; height: 100vh;""></div>","null","","","","","","","","",""
"","","","","","html-keyboard-response","80","262688","0.0-80.0","6AA394C12E484B4B9BCC588F5A2D2FA1","019cf7c0-ebbd-7721-8773-014d03f2e3bb","019cf7bd-52b9-7f96-9138-a5960b400b31","","null","
                <div class=""stimulus-container"">
                    <img src=""images/schematic_sequence/dinner_party_scheme/dinner_party_scheme_1.png"" class=""exp-image"">
                    <div class=""question-area""></div> 
                </div>","null","","","","","","","","",""
"","","","","","html-button-response","81","263111","0.0-81.0","6AA394C12E484B4B9BCC588F5A2D2FA1","019cf7c0-ebbd-7721-8773-014d03f2e3bb","019cf7bd-52b9-7f96-9138-a5960b400b31","","421","
                <div class=""stimulus-container"">
                    <img src=""images/schematic_sequence/dinner_party_scheme/dinner_party_scheme_1.png"" class=""exp-image"">
                    <div class=""question-area"">
                        <p style=""font-size: 20px; font-weight: bold; margin: 0;"">Is there a person in this image?</p>
                    </div>
                </div>","0","main_experiment_trial","1","dinner_party_scheme","schematic_sequence","","","","",""
"","","","","","html-keyboard-response","82","268120","0.0-82.0","6AA394C12E484B4B9BCC588F5A2D2FA1","019cf7c0-ebbd-7721-8773-014d03f2e3bb","019cf7bd-52b9-7f96-9138-a5960b400b31","","null","
                <div class=""stimulus-container"">
                    <img src=""images/schematic_sequence/dinner_party_scheme/dinner_party_scheme_2.png"" class=""exp-image"">
                    <div class=""question-area""></div> 
                </div>","null","","","","","","","","",""
"","","","","","html-button-response","83","268576","0.0-83.0","6AA394C12E484B4B9BCC588F5A2D2FA1","019cf7c0-ebbd-7721-8773-014d03f2e3bb","019cf7bd-52b9-7f96-9138-a5960b400b31","","454","
                <div class=""stimulus-container"">
                    <img src=""images/schematic_sequence/dinner_party_scheme/dinner_party_scheme_2.png"" class=""exp-image"">
                    <div class=""question-area"">
                        <p style=""font-size: 20px; font-weight: bold; margin: 0;"">Is there a person in this image?</p>
                    </div>
                </div>","0","main_experiment_trial","2","dinner_party_scheme","schematic_sequence","","","","",""
"","","","","","html-keyboard-response","84","273587","0.0-84.0","6AA394C12E484B4B9BCC588F5A2D2FA1","019cf7c0-ebbd-7721-8773-014d03f2e3bb","019cf7bd-52b9-7f96-9138-a5960b400b31","","null","
                <div class=""stimulus-container"">
                    <img src=""images/schematic_sequence/dinner_party_scheme/dinner_party_scheme_3.png"" class=""exp-image"">
                    <div class=""question-area""></div> 
                </div>","null","","","","","","","","",""
"","","","","","html-button-response","85","274027","0.0-85.0","6AA394C12E484B4B9BCC588F5A2D2FA1","019cf7c0-ebbd-7721-8773-014d03f2e3bb","019cf7bd-52b9-7f96-9138-a5960b400b31","","437","
                <div class=""stimulus-container"">
                    <img src=""images/schematic_sequence/dinner_party_scheme/dinner_party_scheme_3.png"" class=""exp-image"">
                    <div class=""question-area"">
                        <p style=""font-size: 20px; font-weight: bold; margin: 0;"">Is there a person in this image?</p>
                    </div>
                </div>","0","main_experiment_trial","3","dinner_party_scheme","schematic_sequence","","","","",""
"","","","","","html-keyboard-response","86","279037","0.0-86.0","6AA394C12E484B4B9BCC588F5A2D2FA1","019cf7c0-ebbd-7721-8773-014d03f2e3bb","019cf7bd-52b9-7f96-9138-a5960b400b31","","null","
                <div class=""stimulus-container"">
                    <img src=""images/schematic_sequence/dinner_party_scheme/dinner_party_scheme_4.png"" class=""exp-image"">
                    <div class=""question-area""></div> 
                </div>","null","","","","","","","","",""
"","","","","","html-button-response","87","279467","0.0-87.0","6AA394C12E484B4B9BCC588F5A2D2FA1","019cf7c0-ebbd-7721-8773-014d03f2e3bb","019cf7bd-52b9-7f96-9138-a5960b400b31","","428","
                <div class=""stimulus-container"">
                    <img src=""images/schematic_sequence/dinner_party_scheme/dinner_party_scheme_4.png"" class=""exp-image"">
                    <div class=""question-area"">
                        <p style=""font-size: 20px; font-weight: bold; margin: 0;"">Is there a person in this image?</p>
                    </div>
                </div>","0","main_experiment_trial","4","dinner_party_scheme","schematic_sequence","","","","",""
"","","","","","html-keyboard-response","88","284471","0.0-88.0","6AA394C12E484B4B9BCC588F5A2D2FA1","019cf7c0-ebbd-7721-8773-014d03f2e3bb","019cf7bd-52b9-7f96-9138-a5960b400b31","","null","
                <div class=""stimulus-container"">
                    <img src=""images/schematic_sequence/dinner_party_scheme/dinner_party_scheme_5.png"" class=""exp-image"">
                    <div class=""question-area""></div> 
                </div>","null","","","","","","","","",""
"","","","","","html-button-response","89","284919","0.0-89.0","6AA394C12E484B4B9BCC588F5A2D2FA1","019cf7c0-ebbd-7721-8773-014d03f2e3bb","019cf7bd-52b9-7f96-9138-a5960b400b31","","443","
                <div class=""stimulus-container"">
                    <img src=""images/schematic_sequence/dinner_party_scheme/dinner_party_scheme_5.png"" class=""exp-image"">
                    <div class=""question-area"">
                        <p style=""font-size: 20px; font-weight: bold; margin: 0;"">Is there a person in this image?</p>
                    </div>
                </div>","0","main_experiment_trial","5","dinner_party_scheme","schematic_sequence","","","","",""
"","","","","","html-keyboard-response","90","289938","0.0-90.0","6AA394C12E484B4B9BCC588F5A2D2FA1","019cf7c0-ebbd-7721-8773-014d03f2e3bb","019cf7bd-52b9-7f96-9138-a5960b400b31","","null","
                <div class=""stimulus-container"">
                    <img src=""images/schematic_sequence/dinner_party_scheme/dinner_party_scheme_6.png"" class=""exp-image"">
                    <div class=""question-area""></div> 
                </div>","null","","","","","","","","",""
"","","","","","html-button-response","91","290617","0.0-91.0","6AA394C12E484B4B9BCC588F5A2D2FA1","019cf7c0-ebbd-7721-8773-014d03f2e3bb","019cf7bd-52b9-7f96-9138-a5960b400b31","","675","
                <div class=""stimulus-container"">
                    <img src=""images/schematic_sequence/dinner_party_scheme/dinner_party_scheme_6.png"" class=""exp-image"">
                    <div class=""question-area"">
                        <p style=""font-size: 20px; font-weight: bold; margin: 0;"">Is there a person in this image?</p>
                    </div>
                </div>","0","main_experiment_trial","6","dinner_party_scheme","schematic_sequence","","","","",""
"","","","","","html-keyboard-response","92","295624","0.0-92.0","6AA394C12E484B4B9BCC588F5A2D2FA1","019cf7c0-ebbd-7721-8773-014d03f2e3bb","019cf7bd-52b9-7f96-9138-a5960b400b31","","null","
                <div class=""stimulus-container"">
                    <img src=""images/schematic_sequence/dinner_party_scheme/dinner_party_scheme_7.png"" class=""exp-image"">
                    <div class=""question-area""></div> 
                </div>","null","","","","","","","","",""
"","","","","","html-button-response","93","296095","0.0-93.0","6AA394C12E484B4B9BCC588F5A2D2FA1","019cf7c0-ebbd-7721-8773-014d03f2e3bb","019cf7bd-52b9-7f96-9138-a5960b400b31","","469","
                <div class=""stimulus-container"">
                    <img src=""images/schematic_sequence/dinner_party_scheme/dinner_party_scheme_7.png"" class=""exp-image"">
                    <div class=""question-area"">
                        <p style=""font-size: 20px; font-weight: bold; margin: 0;"">Is there a person in this image?</p>
                    </div>
                </div>","0","main_experiment_trial","7","dinner_party_scheme","schematic_sequence","","","","",""
"","","","","","html-keyboard-response","94","301101","0.0-94.0","6AA394C12E484B4B9BCC588F5A2D2FA1","019cf7c0-ebbd-7721-8773-014d03f2e3bb","019cf7bd-52b9-7f96-9138-a5960b400b31","","null","
                <div class=""stimulus-container"">
                    <img src=""images/schematic_sequence/dinner_party_scheme/dinner_party_scheme_8.png"" class=""exp-image"">
                    <div class=""question-area""></div> 
                </div>","null","","","","","","","","",""
"","","","","","html-button-response","95","301546","0.0-95.0","6AA394C12E484B4B9BCC588F5A2D2FA1","019cf7c0-ebbd-7721-8773-014d03f2e3bb","019cf7bd-52b9-7f96-9138-a5960b400b31","","443","
                <div class=""stimulus-container"">
                    <img src=""images/schematic_sequence/dinner_party_scheme/dinner_party_scheme_8.png"" class=""exp-image"">
                    <div class=""question-area"">
                        <p style=""font-size: 20px; font-weight: bold; margin: 0;"">Is there a person in this image?</p>
                    </div>
                </div>","0","main_experiment_trial","8","dinner_party_scheme","schematic_sequence","","","","",""
"","","","","","html-keyboard-response","96","306551","0.0-96.0","6AA394C12E484B4B9BCC588F5A2D2FA1","019cf7c0-ebbd-7721-8773-014d03f2e3bb","019cf7bd-52b9-7f96-9138-a5960b400b31","","null","
                <div class=""stimulus-container"">
                    <img src=""images/schematic_sequence/dinner_party_scheme/dinner_party_scheme_9.png"" class=""exp-image"">
                    <div class=""question-area""></div> 
                </div>","null","","","","","","","","",""
"","","","","","html-button-response","97","307274","0.0-97.0","6AA394C12E484B4B9BCC588F5A2D2FA1","019cf7c0-ebbd-7721-8773-014d03f2e3bb","019cf7bd-52b9-7f96-9138-a5960b400b31","","721","
                <div class=""stimulus-container"">
                    <img src=""images/schematic_sequence/dinner_party_scheme/dinner_party_scheme_9.png"" class=""exp-image"">
                    <div class=""question-area"">
                        <p style=""font-size: 20px; font-weight: bold; margin: 0;"">Is there a person in this image?</p>
                    </div>
                </div>","0","main_experiment_trial","9","dinner_party_scheme","schematic_sequence","","","","",""
"","","","","","html-keyboard-response","98","312285","0.0-98.0","6AA394C12E484B4B9BCC588F5A2D2FA1","019cf7c0-ebbd-7721-8773-014d03f2e3bb","019cf7bd-52b9-7f96-9138-a5960b400b31","","null","
                <div class=""stimulus-container"">
                    <img src=""images/schematic_sequence/dinner_party_scheme/dinner_party_scheme_ten.png"" class=""exp-image"">
                    <div class=""question-area""></div> 
                </div>","null","","","","","","","","",""
"","","","","","html-button-response","99","312532","0.0-99.0","6AA394C12E484B4B9BCC588F5A2D2FA1","019cf7c0-ebbd-7721-8773-014d03f2e3bb","019cf7bd-52b9-7f96-9138-a5960b400b31","","244","
                <div class=""stimulus-container"">
                    <img src=""images/schematic_sequence/dinner_party_scheme/dinner_party_scheme_ten.png"" class=""exp-image"">
                    <div class=""question-area"">
                        <p style=""font-size: 20px; font-weight: bold; margin: 0;"">Is there a person in this image?</p>
                    </div>
                </div>","0","main_experiment_trial","ten","dinner_party_scheme","schematic_sequence","","","","",""
"","","","","","html-keyboard-response","100","313537","0.0-100.0","6AA394C12E484B4B9BCC588F5A2D2FA1","019cf7c0-ebbd-7721-8773-014d03f2e3bb","019cf7bd-52b9-7f96-9138-a5960b400b31","","null","<div style=""background-color: white; width: 100vw; height: 100vh;""></div>","null","","","","","","","","",""
"","","","","","html-keyboard-response","101","318550","0.0-101.0","6AA394C12E484B4B9BCC588F5A2D2FA1","019cf7c0-ebbd-7721-8773-014d03f2e3bb","019cf7bd-52b9-7f96-9138-a5960b400b31","","null","
                <div class=""stimulus-container"">
                    <img src=""images/schematic_sequence/flight_scheme/flight_scheme_1.png"" class=""exp-image"">
                    <div class=""question-area""></div> 
                </div>","null","","","","","","","","",""
"","","","","","html-button-response","102","319262","0.0-102.0","6AA394C12E484B4B9BCC588F5A2D2FA1","019cf7c0-ebbd-7721-8773-014d03f2e3bb","019cf7bd-52b9-7f96-9138-a5960b400b31","","710","
                <div class=""stimulus-container"">
                    <img src=""images/schematic_sequence/flight_scheme/flight_scheme_1.png"" class=""exp-image"">
                    <div class=""question-area"">
                        <p style=""font-size: 20px; font-weight: bold; margin: 0;"">Is there a person in this image?</p>
                    </div>
                </div>","0","main_experiment_trial","1","flight_scheme","schematic_sequence","","","","",""
"","","","","","html-keyboard-response","103","324274","0.0-103.0","6AA394C12E484B4B9BCC588F5A2D2FA1","019cf7c0-ebbd-7721-8773-014d03f2e3bb","019cf7bd-52b9-7f96-9138-a5960b400b31","","null","
                <div class=""stimulus-container"">
                    <img src=""images/schematic_sequence/flight_scheme/flight_scheme_2.png"" class=""exp-image"">
                    <div class=""question-area""></div> 
                </div>","null","","","","","","","","",""
"","","","","","html-button-response","104","325248","0.0-104.0","6AA394C12E484B4B9BCC588F5A2D2FA1","019cf7c0-ebbd-7721-8773-014d03f2e3bb","019cf7bd-52b9-7f96-9138-a5960b400b31","","972","
                <div class=""stimulus-container"">
                    <img src=""images/schematic_sequence/flight_scheme/flight_scheme_2.png"" class=""exp-image"">
                    <div class=""question-area"">
                        <p style=""font-size: 20px; font-weight: bold; margin: 0;"">Is there a person in this image?</p>
                    </div>
                </div>","1","main_experiment_trial","2","flight_scheme","schematic_sequence","","","","",""
"","","","","","html-keyboard-response","105","330252","0.0-105.0","6AA394C12E484B4B9BCC588F5A2D2FA1","019cf7c0-ebbd-7721-8773-014d03f2e3bb","019cf7bd-52b9-7f96-9138-a5960b400b31","","null","
                <div class=""stimulus-container"">
                    <img src=""images/schematic_sequence/flight_scheme/flight_scheme_3.png"" class=""exp-image"">
                    <div class=""question-area""></div> 
                </div>","null","","","","","","","","",""
"","","","","","html-button-response","106","331690","0.0-106.0","6AA394C12E484B4B9BCC588F5A2D2FA1","019cf7c0-ebbd-7721-8773-014d03f2e3bb","019cf7bd-52b9-7f96-9138-a5960b400b31","","1435","
                <div class=""stimulus-container"">
                    <img src=""images/schematic_sequence/flight_scheme/flight_scheme_3.png"" class=""exp-image"">
                    <div class=""question-area"">
                        <p style=""font-size: 20px; font-weight: bold; margin: 0;"">Is there a person in this image?</p>
                    </div>
                </div>","0","main_experiment_trial","3","flight_scheme","schematic_sequence","","","","",""
"","","","","","html-keyboard-response","107","336698","0.0-107.0","6AA394C12E484B4B9BCC588F5A2D2FA1","019cf7c0-ebbd-7721-8773-014d03f2e3bb","019cf7bd-52b9-7f96-9138-a5960b400b31","","null","
                <div class=""stimulus-container"">
                    <img src=""images/schematic_sequence/flight_scheme/flight_scheme_4.png"" class=""exp-image"">
                    <div class=""question-area""></div> 
                </div>","null","","","","","","","","",""
"","","","","","html-button-response","108","337267","0.0-108.0","6AA394C12E484B4B9BCC588F5A2D2FA1","019cf7c0-ebbd-7721-8773-014d03f2e3bb","019cf7bd-52b9-7f96-9138-a5960b400b31","","567","
                <div class=""stimulus-container"">
                    <img src=""images/schematic_sequence/flight_scheme/flight_scheme_4.png"" class=""exp-image"">
                    <div class=""question-area"">
                        <p style=""font-size: 20px; font-weight: bold; margin: 0;"">Is there a person in this image?</p>
                    </div>
                </div>","0","main_experiment_trial","4","flight_scheme","schematic_sequence","","","","",""
"","","","","","html-keyboard-response","109","342281","0.0-109.0","6AA394C12E484B4B9BCC588F5A2D2FA1","019cf7c0-ebbd-7721-8773-014d03f2e3bb","019cf7bd-52b9-7f96-9138-a5960b400b31","","null","
                <div class=""stimulus-container"">
                    <img src=""images/schematic_sequence/flight_scheme/flight_scheme_5.png"" class=""exp-image"">
                    <div class=""question-area""></div> 
                </div>","null","","","","","","","","",""
"","","","","","html-button-response","110","342693","0.0-110.0","6AA394C12E484B4B9BCC588F5A2D2FA1","019cf7c0-ebbd-7721-8773-014d03f2e3bb","019cf7bd-52b9-7f96-9138-a5960b400b31","","410","
                <div class=""stimulus-container"">
                    <img src=""images/schematic_sequence/flight_scheme/flight_scheme_5.png"" class=""exp-image"">
                    <div class=""question-area"">
                        <p style=""font-size: 20px; font-weight: bold; margin: 0;"">Is there a person in this image?</p>
                    </div>
                </div>","0","main_experiment_trial","5","flight_scheme","schematic_sequence","","","","",""
"","","","","","html-keyboard-response","111","347707","0.0-111.0","6AA394C12E484B4B9BCC588F5A2D2FA1","019cf7c0-ebbd-7721-8773-014d03f2e3bb","019cf7bd-52b9-7f96-9138-a5960b400b31","","null","
                <div class=""stimulus-container"">
                    <img src=""images/schematic_sequence/flight_scheme/flight_scheme_6.png"" class=""exp-image"">
                    <div class=""question-area""></div> 
                </div>","null","","","","","","","","",""
"","","","","","html-button-response","112","349176","0.0-112.0","6AA394C12E484B4B9BCC588F5A2D2FA1","019cf7c0-ebbd-7721-8773-014d03f2e3bb","019cf7bd-52b9-7f96-9138-a5960b400b31","","1467","
                <div class=""stimulus-container"">
                    <img src=""images/schematic_sequence/flight_scheme/flight_scheme_6.png"" class=""exp-image"">
                    <div class=""question-area"">
                        <p style=""font-size: 20px; font-weight: bold; margin: 0;"">Is there a person in this image?</p>
                    </div>
                </div>","1","main_experiment_trial","6","flight_scheme","schematic_sequence","","","","",""
"","","","","","html-keyboard-response","113","354182","0.0-113.0","6AA394C12E484B4B9BCC588F5A2D2FA1","019cf7c0-ebbd-7721-8773-014d03f2e3bb","019cf7bd-52b9-7f96-9138-a5960b400b31","","null","
                <div class=""stimulus-container"">
                    <img src=""images/schematic_sequence/flight_scheme/flight_scheme_7.png"" class=""exp-image"">
                    <div class=""question-area""></div> 
                </div>","null","","","","","","","","",""
"","","","","","html-button-response","114","355981","0.0-114.0","6AA394C12E484B4B9BCC588F5A2D2FA1","019cf7c0-ebbd-7721-8773-014d03f2e3bb","019cf7bd-52b9-7f96-9138-a5960b400b31","","1798","
                <div class=""stimulus-container"">
                    <img src=""images/schematic_sequence/flight_scheme/flight_scheme_7.png"" class=""exp-image"">
                    <div class=""question-area"">
                        <p style=""font-size: 20px; font-weight: bold; margin: 0;"">Is there a person in this image?</p>
                    </div>
                </div>","1","main_experiment_trial","7","flight_scheme","schematic_sequence","","","","",""
"","","","","","html-keyboard-response","115","360997","0.0-115.0","6AA394C12E484B4B9BCC588F5A2D2FA1","019cf7c0-ebbd-7721-8773-014d03f2e3bb","019cf7bd-52b9-7f96-9138-a5960b400b31","","null","
                <div class=""stimulus-container"">
                    <img src=""images/schematic_sequence/flight_scheme/flight_scheme_8.png"" class=""exp-image"">
                    <div class=""question-area""></div> 
                </div>","null","","","","","","","","",""
"","","","","","html-button-response","116","363493","0.0-116.0","6AA394C12E484B4B9BCC588F5A2D2FA1","019cf7c0-ebbd-7721-8773-014d03f2e3bb","019cf7bd-52b9-7f96-9138-a5960b400b31","","2494","
                <div class=""stimulus-container"">
                    <img src=""images/schematic_sequence/flight_scheme/flight_scheme_8.png"" class=""exp-image"">
                    <div class=""question-area"">
                        <p style=""font-size: 20px; font-weight: bold; margin: 0;"">Is there a person in this image?</p>
                    </div>
                </div>","1","main_experiment_trial","8","flight_scheme","schematic_sequence","","","","",""
"","","","","","html-keyboard-response","117","368497","0.0-117.0","6AA394C12E484B4B9BCC588F5A2D2FA1","019cf7c0-ebbd-7721-8773-014d03f2e3bb","019cf7bd-52b9-7f96-9138-a5960b400b31","","null","
                <div class=""stimulus-container"">
                    <img src=""images/schematic_sequence/flight_scheme/flight_scheme_9.png"" class=""exp-image"">
                    <div class=""question-area""></div> 
                </div>","null","","","","","","","","",""
"","","","","","html-button-response","118","369016","0.0-118.0","6AA394C12E484B4B9BCC588F5A2D2FA1","019cf7c0-ebbd-7721-8773-014d03f2e3bb","019cf7bd-52b9-7f96-9138-a5960b400b31","","516","
                <div class=""stimulus-container"">
                    <img src=""images/schematic_sequence/flight_scheme/flight_scheme_9.png"" class=""exp-image"">
                    <div class=""question-area"">
                        <p style=""font-size: 20px; font-weight: bold; margin: 0;"">Is there a person in this image?</p>
                    </div>
                </div>","0","main_experiment_trial","9","flight_scheme","schematic_sequence","","","","",""
"","","","","","html-keyboard-response","119","374032","0.0-119.0","6AA394C12E484B4B9BCC588F5A2D2FA1","019cf7c0-ebbd-7721-8773-014d03f2e3bb","019cf7bd-52b9-7f96-9138-a5960b400b31","","null","
                <div class=""stimulus-container"">
                    <img src=""images/schematic_sequence/flight_scheme/flight_scheme_ten.png"" class=""exp-image"">
                    <div class=""question-area""></div> 
                </div>","null","","","","","","","","",""
"","","","","","html-button-response","120","374614","0.0-120.0","6AA394C12E484B4B9BCC588F5A2D2FA1","019cf7c0-ebbd-7721-8773-014d03f2e3bb","019cf7bd-52b9-7f96-9138-a5960b400b31","","578","
                <div class=""stimulus-container"">
                    <img src=""images/schematic_sequence/flight_scheme/flight_scheme_ten.png"" class=""exp-image"">
                    <div class=""question-area"">
                        <p style=""font-size: 20px; font-weight: bold; margin: 0;"">Is there a person in this image?</p>
                    </div>
                </div>","0","main_experiment_trial","ten","flight_scheme","schematic_sequence","","","","",""
"","","","","","html-keyboard-response","121","375632","0.0-121.0","6AA394C12E484B4B9BCC588F5A2D2FA1","019cf7c0-ebbd-7721-8773-014d03f2e3bb","019cf7bd-52b9-7f96-9138-a5960b400b31","","null","<div style=""background-color: white; width: 100vw; height: 100vh;""></div>","null","","","","","","","","",""
"","","","","","html-keyboard-response","122","380639","0.0-122.0","6AA394C12E484B4B9BCC588F5A2D2FA1","019cf7c0-ebbd-7721-8773-014d03f2e3bb","019cf7bd-52b9-7f96-9138-a5960b400b31","","null","
                <div class=""stimulus-container"">
                    <img src=""images/schematic_sequence/hotel_scheme/hotel_scheme_1.png"" class=""exp-image"">
                    <div class=""question-area""></div> 
                </div>","null","","","","","","","","",""
"","","","","","html-button-response","123","381770","0.0-123.0","6AA394C12E484B4B9BCC588F5A2D2FA1","019cf7c0-ebbd-7721-8773-014d03f2e3bb","019cf7bd-52b9-7f96-9138-a5960b400b31","","1130","
                <div class=""stimulus-container"">
                    <img src=""images/schematic_sequence/hotel_scheme/hotel_scheme_1.png"" class=""exp-image"">
                    <div class=""question-area"">
                        <p style=""font-size: 20px; font-weight: bold; margin: 0;"">Is there a person in this image?</p>
                    </div>
                </div>","1","main_experiment_trial","1","hotel_scheme","schematic_sequence","","","","",""
"","","","","","html-keyboard-response","124","386775","0.0-124.0","6AA394C12E484B4B9BCC588F5A2D2FA1","019cf7c0-ebbd-7721-8773-014d03f2e3bb","019cf7bd-52b9-7f96-9138-a5960b400b31","","null","
                <div class=""stimulus-container"">
                    <img src=""images/schematic_sequence/hotel_scheme/hotel_scheme_2.png"" class=""exp-image"">
                    <div class=""question-area""></div> 
                </div>","null","","","","","","","","",""
"","","","","","html-button-response","125","387240","0.0-125.0","6AA394C12E484B4B9BCC588F5A2D2FA1","019cf7c0-ebbd-7721-8773-014d03f2e3bb","019cf7bd-52b9-7f96-9138-a5960b400b31","","463","
                <div class=""stimulus-container"">
                    <img src=""images/schematic_sequence/hotel_scheme/hotel_scheme_2.png"" class=""exp-image"">
                    <div class=""question-area"">
                        <p style=""font-size: 20px; font-weight: bold; margin: 0;"">Is there a person in this image?</p>
                    </div>
                </div>","0","main_experiment_trial","2","hotel_scheme","schematic_sequence","","","","",""
"","","","","","html-keyboard-response","126","392247","0.0-126.0","6AA394C12E484B4B9BCC588F5A2D2FA1","019cf7c0-ebbd-7721-8773-014d03f2e3bb","019cf7bd-52b9-7f96-9138-a5960b400b31","","null","
                <div class=""stimulus-container"">
                    <img src=""images/schematic_sequence/hotel_scheme/hotel_scheme_3.png"" class=""exp-image"">
                    <div class=""question-area""></div> 
                </div>","null","","","","","","","","",""
"","","","","","html-button-response","127","392672","0.0-127.0","6AA394C12E484B4B9BCC588F5A2D2FA1","019cf7c0-ebbd-7721-8773-014d03f2e3bb","019cf7bd-52b9-7f96-9138-a5960b400b31","","422","
                <div class=""stimulus-container"">
                    <img src=""images/schematic_sequence/hotel_scheme/hotel_scheme_3.png"" class=""exp-image"">
                    <div class=""question-area"">
                        <p style=""font-size: 20px; font-weight: bold; margin: 0;"">Is there a person in this image?</p>
                    </div>
                </div>","0","main_experiment_trial","3","hotel_scheme","schematic_sequence","","","","",""
"","","","","","html-keyboard-response","128","397687","0.0-128.0","6AA394C12E484B4B9BCC588F5A2D2FA1","019cf7c0-ebbd-7721-8773-014d03f2e3bb","019cf7bd-52b9-7f96-9138-a5960b400b31","","null","
                <div class=""stimulus-container"">
                    <img src=""images/schematic_sequence/hotel_scheme/hotel_scheme_4.png"" class=""exp-image"">
                    <div class=""question-area""></div> 
                </div>","null","","","","","","","","",""
"","","","","","html-button-response","129","398793","0.0-129.0","6AA394C12E484B4B9BCC588F5A2D2FA1","019cf7c0-ebbd-7721-8773-014d03f2e3bb","019cf7bd-52b9-7f96-9138-a5960b400b31","","1103","
                <div class=""stimulus-container"">
                    <img src=""images/schematic_sequence/hotel_scheme/hotel_scheme_4.png"" class=""exp-image"">
                    <div class=""question-area"">
                        <p style=""font-size: 20px; font-weight: bold; margin: 0;"">Is there a person in this image?</p>
                    </div>
                </div>","1","main_experiment_trial","4","hotel_scheme","schematic_sequence","","","","",""
"","","","","","html-keyboard-response","130","403804","0.0-130.0","6AA394C12E484B4B9BCC588F5A2D2FA1","019cf7c0-ebbd-7721-8773-014d03f2e3bb","019cf7bd-52b9-7f96-9138-a5960b400b31","","null","
                <div class=""stimulus-container"">
                    <img src=""images/schematic_sequence/hotel_scheme/hotel_scheme_5.png"" class=""exp-image"">
                    <div class=""question-area""></div> 
                </div>","null","","","","","","","","",""
"","","","","","html-button-response","131","404406","0.0-131.0","6AA394C12E484B4B9BCC588F5A2D2FA1","019cf7c0-ebbd-7721-8773-014d03f2e3bb","019cf7bd-52b9-7f96-9138-a5960b400b31","","599","
                <div class=""stimulus-container"">
                    <img src=""images/schematic_sequence/hotel_scheme/hotel_scheme_5.png"" class=""exp-image"">
                    <div class=""question-area"">
                        <p style=""font-size: 20px; font-weight: bold; margin: 0;"">Is there a person in this image?</p>
                    </div>
                </div>","0","main_experiment_trial","5","hotel_scheme","schematic_sequence","","","","",""
"","","","","","html-keyboard-response","132","409412","0.0-132.0","6AA394C12E484B4B9BCC588F5A2D2FA1","019cf7c0-ebbd-7721-8773-014d03f2e3bb","019cf7bd-52b9-7f96-9138-a5960b400b31","","null","
                <div class=""stimulus-container"">
                    <img src=""images/schematic_sequence/hotel_scheme/hotel_scheme_6.png"" class=""exp-image"">
                    <div class=""question-area""></div> 
                </div>","null","","","","","","","","",""
"","","","","","html-button-response","133","410040","0.0-133.0","6AA394C12E484B4B9BCC588F5A2D2FA1","019cf7c0-ebbd-7721-8773-014d03f2e3bb","019cf7bd-52b9-7f96-9138-a5960b400b31","","625","
                <div class=""stimulus-container"">
                    <img src=""images/schematic_sequence/hotel_scheme/hotel_scheme_6.png"" class=""exp-image"">
                    <div class=""question-area"">
                        <p style=""font-size: 20px; font-weight: bold; margin: 0;"">Is there a person in this image?</p>
                    </div>
                </div>","0","main_experiment_trial","6","hotel_scheme","schematic_sequence","","","","",""
"","","","","","html-keyboard-response","134","415049","0.0-134.0","6AA394C12E484B4B9BCC588F5A2D2FA1","019cf7c0-ebbd-7721-8773-014d03f2e3bb","019cf7bd-52b9-7f96-9138-a5960b400b31","","null","
                <div class=""stimulus-container"">
                    <img src=""images/schematic_sequence/hotel_scheme/hotel_scheme_7.png"" class=""exp-image"">
                    <div class=""question-area""></div> 
                </div>","null","","","","","","","","",""
"","","","","","html-button-response","135","415557","0.0-135.0","6AA394C12E484B4B9BCC588F5A2D2FA1","019cf7c0-ebbd-7721-8773-014d03f2e3bb","019cf7bd-52b9-7f96-9138-a5960b400b31","","506","
                <div class=""stimulus-container"">
                    <img src=""images/schematic_sequence/hotel_scheme/hotel_scheme_7.png"" class=""exp-image"">
                    <div class=""question-area"">
                        <p style=""font-size: 20px; font-weight: bold; margin: 0;"">Is there a person in this image?</p>
                    </div>
                </div>","0","main_experiment_trial","7","hotel_scheme","schematic_sequence","","","","",""
"","","","","","html-keyboard-response","136","420561","0.0-136.0","6AA394C12E484B4B9BCC588F5A2D2FA1","019cf7c0-ebbd-7721-8773-014d03f2e3bb","019cf7bd-52b9-7f96-9138-a5960b400b31","","null","
                <div class=""stimulus-container"">
                    <img src=""images/schematic_sequence/hotel_scheme/hotel_scheme_8.png"" class=""exp-image"">
                    <div class=""question-area""></div> 
                </div>","null","","","","","","","","",""
"","","","","","html-button-response","137","421059","0.0-137.0","6AA394C12E484B4B9BCC588F5A2D2FA1","019cf7c0-ebbd-7721-8773-014d03f2e3bb","019cf7bd-52b9-7f96-9138-a5960b400b31","","496","
                <div class=""stimulus-container"">
                    <img src=""images/schematic_sequence/hotel_scheme/hotel_scheme_8.png"" class=""exp-image"">
                    <div class=""question-area"">
                        <p style=""font-size: 20px; font-weight: bold; margin: 0;"">Is there a person in this image?</p>
                    </div>
                </div>","0","main_experiment_trial","8","hotel_scheme","schematic_sequence","","","","",""
"","","","","","html-keyboard-response","138","426061","0.0-138.0","6AA394C12E484B4B9BCC588F5A2D2FA1","019cf7c0-ebbd-7721-8773-014d03f2e3bb","019cf7bd-52b9-7f96-9138-a5960b400b31","","null","
                <div class=""stimulus-container"">
                    <img src=""images/schematic_sequence/hotel_scheme/hotel_scheme_9.png"" class=""exp-image"">
                    <div class=""question-area""></div> 
                </div>","null","","","","","","","","",""
"","","","","","html-button-response","139","426811","0.0-139.0","6AA394C12E484B4B9BCC588F5A2D2FA1","019cf7c0-ebbd-7721-8773-014d03f2e3bb","019cf7bd-52b9-7f96-9138-a5960b400b31","","748","
                <div class=""stimulus-container"">
                    <img src=""images/schematic_sequence/hotel_scheme/hotel_scheme_9.png"" class=""exp-image"">
                    <div class=""question-area"">
                        <p style=""font-size: 20px; font-weight: bold; margin: 0;"">Is there a person in this image?</p>
                    </div>
                </div>","0","main_experiment_trial","9","hotel_scheme","schematic_sequence","","","","",""
"","","","","","html-keyboard-response","140","431828","0.0-140.0","6AA394C12E484B4B9BCC588F5A2D2FA1","019cf7c0-ebbd-7721-8773-014d03f2e3bb","019cf7bd-52b9-7f96-9138-a5960b400b31","","null","
                <div class=""stimulus-container"">
                    <img src=""images/schematic_sequence/hotel_scheme/hotel_scheme_ten.png"" class=""exp-image"">
                    <div class=""question-area""></div> 
                </div>","null","","","","","","","","",""
"","","","","","html-button-response","141","432317","0.0-141.0","6AA394C12E484B4B9BCC588F5A2D2FA1","019cf7c0-ebbd-7721-8773-014d03f2e3bb","019cf7bd-52b9-7f96-9138-a5960b400b31","","486","
                <div class=""stimulus-container"">
                    <img src=""images/schematic_sequence/hotel_scheme/hotel_scheme_ten.png"" class=""exp-image"">
                    <div class=""question-area"">
                        <p style=""font-size: 20px; font-weight: bold; margin: 0;"">Is there a person in this image?</p>
                    </div>
                </div>","0","main_experiment_trial","ten","hotel_scheme","schematic_sequence","","","","",""
"","","","","","html-keyboard-response","142","433328","0.0-142.0","6AA394C12E484B4B9BCC588F5A2D2FA1","019cf7c0-ebbd-7721-8773-014d03f2e3bb","019cf7bd-52b9-7f96-9138-a5960b400b31","","null","<div style=""background-color: white; width: 100vw; height: 100vh;""></div>","null","","","","","","","","",""
"","","","","","html-keyboard-response","143","438345","0.0-143.0","6AA394C12E484B4B9BCC588F5A2D2FA1","019cf7c0-ebbd-7721-8773-014d03f2e3bb","019cf7bd-52b9-7f96-9138-a5960b400b31","","null","
                <div class=""stimulus-container"">
                    <img src=""images/semantic_sequence/housework_semantic/housework_semantic_1.png"" class=""exp-image"">
                    <div class=""question-area""></div> 
                </div>","null","","","","","","","","",""
"","","","","","html-button-response","144","438854","0.0-144.0","6AA394C12E484B4B9BCC588F5A2D2FA1","019cf7c0-ebbd-7721-8773-014d03f2e3bb","019cf7bd-52b9-7f96-9138-a5960b400b31","","507","
                <div class=""stimulus-container"">
                    <img src=""images/semantic_sequence/housework_semantic/housework_semantic_1.png"" class=""exp-image"">
                    <div class=""question-area"">
                        <p style=""font-size: 20px; font-weight: bold; margin: 0;"">Is there a person in this image?</p>
                    </div>
                </div>","0","main_experiment_trial","1","housework_semantic","semantic_sequence","","","","",""
"","","","","","html-keyboard-response","145","443861","0.0-145.0","6AA394C12E484B4B9BCC588F5A2D2FA1","019cf7c0-ebbd-7721-8773-014d03f2e3bb","019cf7bd-52b9-7f96-9138-a5960b400b31","","null","
                <div class=""stimulus-container"">
                    <img src=""images/semantic_sequence/housework_semantic/housework_semantic_2.png"" class=""exp-image"">
                    <div class=""question-area""></div> 
                </div>","null","","","","","","","","",""
"","","","","","html-button-response","146","444486","0.0-146.0","6AA394C12E484B4B9BCC588F5A2D2FA1","019cf7c0-ebbd-7721-8773-014d03f2e3bb","019cf7bd-52b9-7f96-9138-a5960b400b31","","622","
                <div class=""stimulus-container"">
                    <img src=""images/semantic_sequence/housework_semantic/housework_semantic_2.png"" class=""exp-image"">
                    <div class=""question-area"">
                        <p style=""font-size: 20px; font-weight: bold; margin: 0;"">Is there a person in this image?</p>
                    </div>
                </div>","0","main_experiment_trial","2","housework_semantic","semantic_sequence","","","","",""
"","","","","","html-keyboard-response","147","449494","0.0-147.0","6AA394C12E484B4B9BCC588F5A2D2FA1","019cf7c0-ebbd-7721-8773-014d03f2e3bb","019cf7bd-52b9-7f96-9138-a5960b400b31","","null","
                <div class=""stimulus-container"">
                    <img src=""images/semantic_sequence/housework_semantic/housework_semantic_3.png"" class=""exp-image"">
                    <div class=""question-area""></div> 
                </div>","null","","","","","","","","",""
"","","","","","html-button-response","148","449980","0.0-148.0","6AA394C12E484B4B9BCC588F5A2D2FA1","019cf7c0-ebbd-7721-8773-014d03f2e3bb","019cf7bd-52b9-7f96-9138-a5960b400b31","","483","
                <div class=""stimulus-container"">
                    <img src=""images/semantic_sequence/housework_semantic/housework_semantic_3.png"" class=""exp-image"">
                    <div class=""question-area"">
                        <p style=""font-size: 20px; font-weight: bold; margin: 0;"">Is there a person in this image?</p>
                    </div>
                </div>","0","main_experiment_trial","3","housework_semantic","semantic_sequence","","","","",""
"","","","","","html-keyboard-response","149","454985","0.0-149.0","6AA394C12E484B4B9BCC588F5A2D2FA1","019cf7c0-ebbd-7721-8773-014d03f2e3bb","019cf7bd-52b9-7f96-9138-a5960b400b31","","null","
                <div class=""stimulus-container"">
                    <img src=""images/semantic_sequence/housework_semantic/housework_semantic_4.png"" class=""exp-image"">
                    <div class=""question-area""></div> 
                </div>","null","","","","","","","","",""
"","","","","","html-button-response","150","457015","0.0-150.0","6AA394C12E484B4B9BCC588F5A2D2FA1","019cf7c0-ebbd-7721-8773-014d03f2e3bb","019cf7bd-52b9-7f96-9138-a5960b400b31","","2027","
                <div class=""stimulus-container"">
                    <img src=""images/semantic_sequence/housework_semantic/housework_semantic_4.png"" class=""exp-image"">
                    <div class=""question-area"">
                        <p style=""font-size: 20px; font-weight: bold; margin: 0;"">Is there a person in this image?</p>
                    </div>
                </div>","0","main_experiment_trial","4","housework_semantic","semantic_sequence","","","","",""
"","","","","","html-keyboard-response","151","462025","0.0-151.0","6AA394C12E484B4B9BCC588F5A2D2FA1","019cf7c0-ebbd-7721-8773-014d03f2e3bb","019cf7bd-52b9-7f96-9138-a5960b400b31","","null","
                <div class=""stimulus-container"">
                    <img src=""images/semantic_sequence/housework_semantic/housework_semantic_5.png"" class=""exp-image"">
                    <div class=""question-area""></div> 
                </div>","null","","","","","","","","",""
"","","","","","html-button-response","152","462532","0.0-152.0","6AA394C12E484B4B9BCC588F5A2D2FA1","019cf7c0-ebbd-7721-8773-014d03f2e3bb","019cf7bd-52b9-7f96-9138-a5960b400b31","","506","
                <div class=""stimulus-container"">
                    <img src=""images/semantic_sequence/housework_semantic/housework_semantic_5.png"" class=""exp-image"">
                    <div class=""question-area"">
                        <p style=""font-size: 20px; font-weight: bold; margin: 0;"">Is there a person in this image?</p>
                    </div>
                </div>","0","main_experiment_trial","5","housework_semantic","semantic_sequence","","","","",""
"","","","","","html-keyboard-response","153","467542","0.0-153.0","6AA394C12E484B4B9BCC588F5A2D2FA1","019cf7c0-ebbd-7721-8773-014d03f2e3bb","019cf7bd-52b9-7f96-9138-a5960b400b31","","null","
                <div class=""stimulus-container"">
                    <img src=""images/semantic_sequence/housework_semantic/housework_semantic_6.png"" class=""exp-image"">
                    <div class=""question-area""></div> 
                </div>","null","","","","","","","","",""
"","","","","","html-button-response","154","469502","0.0-154.0","6AA394C12E484B4B9BCC588F5A2D2FA1","019cf7c0-ebbd-7721-8773-014d03f2e3bb","019cf7bd-52b9-7f96-9138-a5960b400b31","","1957","
                <div class=""stimulus-container"">
                    <img src=""images/semantic_sequence/housework_semantic/housework_semantic_6.png"" class=""exp-image"">
                    <div class=""question-area"">
                        <p style=""font-size: 20px; font-weight: bold; margin: 0;"">Is there a person in this image?</p>
                    </div>
                </div>","0","main_experiment_trial","6","housework_semantic","semantic_sequence","","","","",""
"","","","","","html-keyboard-response","155","474512","0.0-155.0","6AA394C12E484B4B9BCC588F5A2D2FA1","019cf7c0-ebbd-7721-8773-014d03f2e3bb","019cf7bd-52b9-7f96-9138-a5960b400b31","","null","
                <div class=""stimulus-container"">
                    <img src=""images/semantic_sequence/housework_semantic/housework_semantic_7.png"" class=""exp-image"">
                    <div class=""question-area""></div> 
                </div>","null","","","","","","","","",""
"","","","","","html-button-response","156","476147","0.0-156.0","6AA394C12E484B4B9BCC588F5A2D2FA1","019cf7c0-ebbd-7721-8773-014d03f2e3bb","019cf7bd-52b9-7f96-9138-a5960b400b31","","1633","
                <div class=""stimulus-container"">
                    <img src=""images/semantic_sequence/housework_semantic/housework_semantic_7.png"" class=""exp-image"">
                    <div class=""question-area"">
                        <p style=""font-size: 20px; font-weight: bold; margin: 0;"">Is there a person in this image?</p>
                    </div>
                </div>","0","main_experiment_trial","7","housework_semantic","semantic_sequence","","","","",""
"","","","","","html-keyboard-response","157","481157","0.0-157.0","6AA394C12E484B4B9BCC588F5A2D2FA1","019cf7c0-ebbd-7721-8773-014d03f2e3bb","019cf7bd-52b9-7f96-9138-a5960b400b31","","null","
                <div class=""stimulus-container"">
                    <img src=""images/semantic_sequence/housework_semantic/housework_semantic_8.png"" class=""exp-image"">
                    <div class=""question-area""></div> 
                </div>","null","","","","","","","","",""
"","","","","","html-button-response","158","481852","0.0-158.0","6AA394C12E484B4B9BCC588F5A2D2FA1","019cf7c0-ebbd-7721-8773-014d03f2e3bb","019cf7bd-52b9-7f96-9138-a5960b400b31","","692","
                <div class=""stimulus-container"">
                    <img src=""images/semantic_sequence/housework_semantic/housework_semantic_8.png"" class=""exp-image"">
                    <div class=""question-area"">
                        <p style=""font-size: 20px; font-weight: bold; margin: 0;"">Is there a person in this image?</p>
                    </div>
                </div>","0","main_experiment_trial","8","housework_semantic","semantic_sequence","","","","",""
"","","","","","html-keyboard-response","159","486857","0.0-159.0","6AA394C12E484B4B9BCC588F5A2D2FA1","019cf7c0-ebbd-7721-8773-014d03f2e3bb","019cf7bd-52b9-7f96-9138-a5960b400b31","","null","
                <div class=""stimulus-container"">
                    <img src=""images/semantic_sequence/housework_semantic/housework_semantic_9.png"" class=""exp-image"">
                    <div class=""question-area""></div> 
                </div>","null","","","","","","","","",""
"","","","","","html-button-response","160","487290","0.0-160.0","6AA394C12E484B4B9BCC588F5A2D2FA1","019cf7c0-ebbd-7721-8773-014d03f2e3bb","019cf7bd-52b9-7f96-9138-a5960b400b31","","431","
                <div class=""stimulus-container"">
                    <img src=""images/semantic_sequence/housework_semantic/housework_semantic_9.png"" class=""exp-image"">
                    <div class=""question-area"">
                        <p style=""font-size: 20px; font-weight: bold; margin: 0;"">Is there a person in this image?</p>
                    </div>
                </div>","0","main_experiment_trial","9","housework_semantic","semantic_sequence","","","","",""
"","","","","","html-keyboard-response","161","492307","0.0-161.0","6AA394C12E484B4B9BCC588F5A2D2FA1","019cf7c0-ebbd-7721-8773-014d03f2e3bb","019cf7bd-52b9-7f96-9138-a5960b400b31","","null","
                <div class=""stimulus-container"">
                    <img src=""images/semantic_sequence/housework_semantic/housework_semantic_ten.png"" class=""exp-image"">
                    <div class=""question-area""></div> 
                </div>","null","","","","","","","","",""
"","","","","","html-button-response","162","492676","0.0-162.0","6AA394C12E484B4B9BCC588F5A2D2FA1","019cf7c0-ebbd-7721-8773-014d03f2e3bb","019cf7bd-52b9-7f96-9138-a5960b400b31","","368","
                <div class=""stimulus-container"">
                    <img src=""images/semantic_sequence/housework_semantic/housework_semantic_ten.png"" class=""exp-image"">
                    <div class=""question-area"">
                        <p style=""font-size: 20px; font-weight: bold; margin: 0;"">Is there a person in this image?</p>
                    </div>
                </div>","0","main_experiment_trial","ten","housework_semantic","semantic_sequence","","","","",""
"","","","","","html-keyboard-response","163","493692","0.0-163.0","6AA394C12E484B4B9BCC588F5A2D2FA1","019cf7c0-ebbd-7721-8773-014d03f2e3bb","019cf7bd-52b9-7f96-9138-a5960b400b31","","null","<div style=""background-color: white; width: 100vw; height: 100vh;""></div>","null","","","","","","","","",""
"","","","","","html-keyboard-response","164","498696","0.0-164.0","6AA394C12E484B4B9BCC588F5A2D2FA1","019cf7c0-ebbd-7721-8773-014d03f2e3bb","019cf7bd-52b9-7f96-9138-a5960b400b31","","null","
                <div class=""stimulus-container"">
                    <img src=""images/semantic_sequence/exploring_nature_semantic/exploring_nature_semantic_1.png"" class=""exp-image"">
                    <div class=""question-area""></div> 
                </div>","null","","","","","","","","",""
"","","","","","html-button-response","165","499175","0.0-165.0","6AA394C12E484B4B9BCC588F5A2D2FA1","019cf7c0-ebbd-7721-8773-014d03f2e3bb","019cf7bd-52b9-7f96-9138-a5960b400b31","","477","
                <div class=""stimulus-container"">
                    <img src=""images/semantic_sequence/exploring_nature_semantic/exploring_nature_semantic_1.png"" class=""exp-image"">
                    <div class=""question-area"">
                        <p style=""font-size: 20px; font-weight: bold; margin: 0;"">Is there a person in this image?</p>
                    </div>
                </div>","0","main_experiment_trial","1","exploring_nature_semantic","semantic_sequence","","","","",""
"","","","","","html-keyboard-response","166","504189","0.0-166.0","6AA394C12E484B4B9BCC588F5A2D2FA1","019cf7c0-ebbd-7721-8773-014d03f2e3bb","019cf7bd-52b9-7f96-9138-a5960b400b31","","null","
                <div class=""stimulus-container"">
                    <img src=""images/semantic_sequence/exploring_nature_semantic/exploring_nature_semantic_2.png"" class=""exp-image"">
                    <div class=""question-area""></div> 
                </div>","null","","","","","","","","",""
"","","","","","html-button-response","167","506765","0.0-167.0","6AA394C12E484B4B9BCC588F5A2D2FA1","019cf7c0-ebbd-7721-8773-014d03f2e3bb","019cf7bd-52b9-7f96-9138-a5960b400b31","","2573","
                <div class=""stimulus-container"">
                    <img src=""images/semantic_sequence/exploring_nature_semantic/exploring_nature_semantic_2.png"" class=""exp-image"">
                    <div class=""question-area"">
                        <p style=""font-size: 20px; font-weight: bold; margin: 0;"">Is there a person in this image?</p>
                    </div>
                </div>","0","main_experiment_trial","2","exploring_nature_semantic","semantic_sequence","","","","",""
"","","","","","html-keyboard-response","168","511774","0.0-168.0","6AA394C12E484B4B9BCC588F5A2D2FA1","019cf7c0-ebbd-7721-8773-014d03f2e3bb","019cf7bd-52b9-7f96-9138-a5960b400b31","","null","
                <div class=""stimulus-container"">
                    <img src=""images/semantic_sequence/exploring_nature_semantic/exploring_nature_semantic_3.png"" class=""exp-image"">
                    <div class=""question-area""></div> 
                </div>","null","","","","","","","","",""
"","","","","","html-button-response","169","512344","0.0-169.0","6AA394C12E484B4B9BCC588F5A2D2FA1","019cf7c0-ebbd-7721-8773-014d03f2e3bb","019cf7bd-52b9-7f96-9138-a5960b400b31","","566","
                <div class=""stimulus-container"">
                    <img src=""images/semantic_sequence/exploring_nature_semantic/exploring_nature_semantic_3.png"" class=""exp-image"">
                    <div class=""question-area"">
                        <p style=""font-size: 20px; font-weight: bold; margin: 0;"">Is there a person in this image?</p>
                    </div>
                </div>","0","main_experiment_trial","3","exploring_nature_semantic","semantic_sequence","","","","",""
"","","","","","html-keyboard-response","170","517354","0.0-170.0","6AA394C12E484B4B9BCC588F5A2D2FA1","019cf7c0-ebbd-7721-8773-014d03f2e3bb","019cf7bd-52b9-7f96-9138-a5960b400b31","","null","
                <div class=""stimulus-container"">
                    <img src=""images/semantic_sequence/exploring_nature_semantic/exploring_nature_semantic_4.png"" class=""exp-image"">
                    <div class=""question-area""></div> 
                </div>","null","","","","","","","","",""
"","","","","","html-button-response","171","520373","0.0-171.0","6AA394C12E484B4B9BCC588F5A2D2FA1","019cf7c0-ebbd-7721-8773-014d03f2e3bb","019cf7bd-52b9-7f96-9138-a5960b400b31","","null","
                <div class=""stimulus-container"">
                    <img src=""images/semantic_sequence/exploring_nature_semantic/exploring_nature_semantic_4.png"" class=""exp-image"">
                    <div class=""question-area"">
                        <p style=""font-size: 20px; font-weight: bold; margin: 0;"">Is there a person in this image?</p>
                    </div>
                </div>","null","main_experiment_trial","4","exploring_nature_semantic","semantic_sequence","","","","",""
"","","","","","html-keyboard-response","172","525385","0.0-172.0","6AA394C12E484B4B9BCC588F5A2D2FA1","019cf7c0-ebbd-7721-8773-014d03f2e3bb","019cf7bd-52b9-7f96-9138-a5960b400b31","","null","
                <div class=""stimulus-container"">
                    <img src=""images/semantic_sequence/exploring_nature_semantic/exploring_nature_semantic_5.png"" class=""exp-image"">
                    <div class=""question-area""></div> 
                </div>","null","","","","","","","","",""
"","","","","","html-button-response","173","526323","0.0-173.0","6AA394C12E484B4B9BCC588F5A2D2FA1","019cf7c0-ebbd-7721-8773-014d03f2e3bb","019cf7bd-52b9-7f96-9138-a5960b400b31","","935","
                <div class=""stimulus-container"">
                    <img src=""images/semantic_sequence/exploring_nature_semantic/exploring_nature_semantic_5.png"" class=""exp-image"">
                    <div class=""question-area"">
                        <p style=""font-size: 20px; font-weight: bold; margin: 0;"">Is there a person in this image?</p>
                    </div>
                </div>","0","main_experiment_trial","5","exploring_nature_semantic","semantic_sequence","","","","",""
"","","","","","html-keyboard-response","174","531337","0.0-174.0","6AA394C12E484B4B9BCC588F5A2D2FA1","019cf7c0-ebbd-7721-8773-014d03f2e3bb","019cf7bd-52b9-7f96-9138-a5960b400b31","","null","
                <div class=""stimulus-container"">
                    <img src=""images/semantic_sequence/exploring_nature_semantic/exploring_nature_semantic_6.png"" class=""exp-image"">
                    <div class=""question-area""></div> 
                </div>","null","","","","","","","","",""
"","","","","","html-button-response","175","531783","0.0-175.0","6AA394C12E484B4B9BCC588F5A2D2FA1","019cf7c0-ebbd-7721-8773-014d03f2e3bb","019cf7bd-52b9-7f96-9138-a5960b400b31","","443","
                <div class=""stimulus-container"">
                    <img src=""images/semantic_sequence/exploring_nature_semantic/exploring_nature_semantic_6.png"" class=""exp-image"">
                    <div class=""question-area"">
                        <p style=""font-size: 20px; font-weight: bold; margin: 0;"">Is there a person in this image?</p>
                    </div>
                </div>","0","main_experiment_trial","6","exploring_nature_semantic","semantic_sequence","","","","",""
"","","","","","html-keyboard-response","176","536789","0.0-176.0","6AA394C12E484B4B9BCC588F5A2D2FA1","019cf7c0-ebbd-7721-8773-014d03f2e3bb","019cf7bd-52b9-7f96-9138-a5960b400b31","","null","
                <div class=""stimulus-container"">
                    <img src=""images/semantic_sequence/exploring_nature_semantic/exploring_nature_semantic_7.png"" class=""exp-image"">
                    <div class=""question-area""></div> 
                </div>","null","","","","","","","","",""
"","","","","","html-button-response","177","537595","0.0-177.0","6AA394C12E484B4B9BCC588F5A2D2FA1","019cf7c0-ebbd-7721-8773-014d03f2e3bb","019cf7bd-52b9-7f96-9138-a5960b400b31","","798","
                <div class=""stimulus-container"">
                    <img src=""images/semantic_sequence/exploring_nature_semantic/exploring_nature_semantic_7.png"" class=""exp-image"">
                    <div class=""question-area"">
                        <p style=""font-size: 20px; font-weight: bold; margin: 0;"">Is there a person in this image?</p>
                    </div>
                </div>","0","main_experiment_trial","7","exploring_nature_semantic","semantic_sequence","","","","",""
"","","","","","html-keyboard-response","178","542605","0.0-178.0","6AA394C12E484B4B9BCC588F5A2D2FA1","019cf7c0-ebbd-7721-8773-014d03f2e3bb","019cf7bd-52b9-7f96-9138-a5960b400b31","","null","
                <div class=""stimulus-container"">
                    <img src=""images/semantic_sequence/exploring_nature_semantic/exploring_nature_semantic_8.png"" class=""exp-image"">
                    <div class=""question-area""></div> 
                </div>","null","","","","","","","","",""
"","","","","","html-button-response","179","543232","0.0-179.0","6AA394C12E484B4B9BCC588F5A2D2FA1","019cf7c0-ebbd-7721-8773-014d03f2e3bb","019cf7bd-52b9-7f96-9138-a5960b400b31","","624","
                <div class=""stimulus-container"">
                    <img src=""images/semantic_sequence/exploring_nature_semantic/exploring_nature_semantic_8.png"" class=""exp-image"">
                    <div class=""question-area"">
                        <p style=""font-size: 20px; font-weight: bold; margin: 0;"">Is there a person in this image?</p>
                    </div>
                </div>","0","main_experiment_trial","8","exploring_nature_semantic","semantic_sequence","","","","",""
"","","","","","html-keyboard-response","180","548237","0.0-180.0","6AA394C12E484B4B9BCC588F5A2D2FA1","019cf7c0-ebbd-7721-8773-014d03f2e3bb","019cf7bd-52b9-7f96-9138-a5960b400b31","","null","
                <div class=""stimulus-container"">
