"success","timeout","failed_images","failed_audio","failed_video","trial_type","trial_index","time_elapsed","internal_node_id","subject_id","study_id","session_id","view_history","rt","stimulus","response","task","folder","sequence_type","valuable_image_index","reward_type","distance_from_x","target_X","chosen_image_index","is_x_plus_dist","correct_choice"
"true","false","[]","[]","[]","preload","0","3085","0.0-0.0","06B376D9913647B39A08A4FB720BF2D1","019db62b-0b8e-77ce-a4bc-cad593922658","019db609-2a35-76b9-807a-e0c4c153f4bb","","","","","","","","","","","","","",""
"","","","","","instructions","1","4757","0.0-1.0","06B376D9913647B39A08A4FB720BF2D1","019db62b-0b8e-77ce-a4bc-cad593922658","019db609-2a35-76b9-807a-e0c4c153f4bb","[{""page_index"":0,""viewing_time"":1672}]","1672","","","","","","","","","","","",""
"","","","","","instructions","2","8648","0.0-2.0","06B376D9913647B39A08A4FB720BF2D1","019db62b-0b8e-77ce-a4bc-cad593922658","019db609-2a35-76b9-807a-e0c4c153f4bb","[{""page_index"":0,""viewing_time"":3891}]","3891","","","","","","","","","","","",""
"true","","","","","fullscreen","3","11007","0.0-3.0","06B376D9913647B39A08A4FB720BF2D1","019db62b-0b8e-77ce-a4bc-cad593922658","019db609-2a35-76b9-807a-e0c4c153f4bb","","1356","","","","","","","","","","","",""
"","","","","","instructions","4","14861","0.0-4.0","06B376D9913647B39A08A4FB720BF2D1","019db62b-0b8e-77ce-a4bc-cad593922658","019db609-2a35-76b9-807a-e0c4c153f4bb","[{""page_index"":0,""viewing_time"":3853}]","3854","","","","","","","","","","","",""
"","","","","","instructions","5","30044","0.0-5.0","06B376D9913647B39A08A4FB720BF2D1","019db62b-0b8e-77ce-a4bc-cad593922658","019db609-2a35-76b9-807a-e0c4c153f4bb","[{""page_index"":0,""viewing_time"":15182}]","15183","","","","","","","","","","","",""
"","","","","","html-button-response","6","32125","0.0-6.0","06B376D9913647B39A08A4FB720BF2D1","019db62b-0b8e-77ce-a4bc-cad593922658","019db609-2a35-76b9-807a-e0c4c153f4bb","","2080","
            <div class=""stimulus-container"">
                <img src=""images/semantic_sequence/visiting_cities_semantic/visiting_cities_semantic_4.png"" class=""exp-image"">
                <div class=""question-area"">
                    <p style=""font-size: 20px; font-weight: bold;"">Click the button to reveal the image value</p>
                </div>
            </div>","0","part2_active_reveal_click","visiting_cities_semantic","","","","","","","",""
"","","","","","html-keyboard-response","7","40127","0.0-7.0","06B376D9913647B39A08A4FB720BF2D1","019db62b-0b8e-77ce-a4bc-cad593922658","019db609-2a35-76b9-807a-e0c4c153f4bb","","null","
            <div class=""stimulus-container"" style=""display: flex; align-items: center; justify-content: center; gap: 40px;"">
                <img src=""images/semantic_sequence/visiting_cities_semantic/visiting_cities_semantic_4.png"" class=""exp-image"">
                <div style=""text-align: center;"">
                    <img src=""images/dollar.png"" style=""width: 150px; height: 150px; border: 5px solid green; border-radius: 15px;"">
                    <p style=""color: green; font-weight: bold; font-size: 28px; margin-top: 15px;"">WORTH MONEY</p>
                </div>
            </div>","null","part2_value_learning","visiting_cities_semantic","semantic_sequence","4","valuable","","","","",""
"","","","","","html-keyboard-response","8","45130","0.0-8.0","06B376D9913647B39A08A4FB720BF2D1","019db62b-0b8e-77ce-a4bc-cad593922658","019db609-2a35-76b9-807a-e0c4c153f4bb","","null","<div style=""background-color: white; width: 100vw; height: 100vh;""></div>","null","","","","","","","","","",""
"","","","","","html-button-response","9","46694","0.0-9.0","06B376D9913647B39A08A4FB720BF2D1","019db62b-0b8e-77ce-a4bc-cad593922658","019db609-2a35-76b9-807a-e0c4c153f4bb","","1562","
            <div class=""stimulus-container"">
                <img src=""images/semantic_sequence/housework_semantic/housework_semantic_6.png"" class=""exp-image"">
                <div class=""question-area"">
                    <p style=""font-size: 20px; font-weight: bold;"">Click the button to reveal the image value</p>
                </div>
            </div>","0","part2_active_reveal_click","housework_semantic","","","","","","","",""
"","","","","","html-keyboard-response","10","54696","0.0-10.0","06B376D9913647B39A08A4FB720BF2D1","019db62b-0b8e-77ce-a4bc-cad593922658","019db609-2a35-76b9-807a-e0c4c153f4bb","","null","
            <div class=""stimulus-container"" style=""display: flex; align-items: center; justify-content: center; gap: 40px;"">
                <img src=""images/semantic_sequence/housework_semantic/housework_semantic_6.png"" class=""exp-image"">
                <div style=""text-align: center;"">
                    <img src=""images/gray.png"" style=""width: 150px; height: 150px; border: 5px solid grey; border-radius: 15px;"">
                    <p style=""color: grey; font-weight: bold; font-size: 28px; margin-top: 15px;"">NEUTRAL VALUE</p>
                </div>
            </div>","null","part2_value_learning","housework_semantic","semantic_sequence","6","neutral","","","","",""
"","","","","","html-keyboard-response","11","59699","0.0-11.0","06B376D9913647B39A08A4FB720BF2D1","019db62b-0b8e-77ce-a4bc-cad593922658","019db609-2a35-76b9-807a-e0c4c153f4bb","","null","<div style=""background-color: white; width: 100vw; height: 100vh;""></div>","null","","","","","","","","","",""
"","","","","","html-button-response","12","61108","0.0-12.0","06B376D9913647B39A08A4FB720BF2D1","019db62b-0b8e-77ce-a4bc-cad593922658","019db609-2a35-76b9-807a-e0c4c153f4bb","","1408","
            <div class=""stimulus-container"">
                <img src=""images/semantic_sequence/self_care_activities_semantic/self_care_activities_semantic_7.png"" class=""exp-image"">
                <div class=""question-area"">
                    <p style=""font-size: 20px; font-weight: bold;"">Click the button to reveal the image value</p>
                </div>
            </div>","0","part2_active_reveal_click","self_care_activities_semantic","","","","","","","",""
"","","","","","html-keyboard-response","13","69111","0.0-13.0","06B376D9913647B39A08A4FB720BF2D1","019db62b-0b8e-77ce-a4bc-cad593922658","019db609-2a35-76b9-807a-e0c4c153f4bb","","null","
            <div class=""stimulus-container"" style=""display: flex; align-items: center; justify-content: center; gap: 40px;"">
                <img src=""images/semantic_sequence/self_care_activities_semantic/self_care_activities_semantic_7.png"" class=""exp-image"">
                <div style=""text-align: center;"">
                    <img src=""images/gray.png"" style=""width: 150px; height: 150px; border: 5px solid grey; border-radius: 15px;"">
                    <p style=""color: grey; font-weight: bold; font-size: 28px; margin-top: 15px;"">NEUTRAL VALUE</p>
                </div>
            </div>","null","part2_value_learning","self_care_activities_semantic","semantic_sequence","7","neutral","","","","",""
"","","","","","html-keyboard-response","14","74113","0.0-14.0","06B376D9913647B39A08A4FB720BF2D1","019db62b-0b8e-77ce-a4bc-cad593922658","019db609-2a35-76b9-807a-e0c4c153f4bb","","null","<div style=""background-color: white; width: 100vw; height: 100vh;""></div>","null","","","","","","","","","",""
"","","","","","html-button-response","15","74992","0.0-15.0","06B376D9913647B39A08A4FB720BF2D1","019db62b-0b8e-77ce-a4bc-cad593922658","019db609-2a35-76b9-807a-e0c4c153f4bb","","878","
            <div class=""stimulus-container"">
                <img src=""images/semantic_sequence/physical_activity_semantic/physical_activity_semantic_6.png"" class=""exp-image"">
                <div class=""question-area"">
                    <p style=""font-size: 20px; font-weight: bold;"">Click the button to reveal the image value</p>
                </div>
            </div>","0","part2_active_reveal_click","physical_activity_semantic","","","","","","","",""
"","","","","","html-keyboard-response","16","82994","0.0-16.0","06B376D9913647B39A08A4FB720BF2D1","019db62b-0b8e-77ce-a4bc-cad593922658","019db609-2a35-76b9-807a-e0c4c153f4bb","","null","
            <div class=""stimulus-container"" style=""display: flex; align-items: center; justify-content: center; gap: 40px;"">
                <img src=""images/semantic_sequence/physical_activity_semantic/physical_activity_semantic_6.png"" class=""exp-image"">
                <div style=""text-align: center;"">
                    <img src=""images/dollar.png"" style=""width: 150px; height: 150px; border: 5px solid green; border-radius: 15px;"">
                    <p style=""color: green; font-weight: bold; font-size: 28px; margin-top: 15px;"">WORTH MONEY</p>
                </div>
            </div>","null","part2_value_learning","physical_activity_semantic","semantic_sequence","6","valuable","","","","",""
"","","","","","html-keyboard-response","17","87996","0.0-17.0","06B376D9913647B39A08A4FB720BF2D1","019db62b-0b8e-77ce-a4bc-cad593922658","019db609-2a35-76b9-807a-e0c4c153f4bb","","null","<div style=""background-color: white; width: 100vw; height: 100vh;""></div>","null","","","","","","","","","",""
"","","","","","html-button-response","18","89310","0.0-18.0","06B376D9913647B39A08A4FB720BF2D1","019db62b-0b8e-77ce-a4bc-cad593922658","019db609-2a35-76b9-807a-e0c4c153f4bb","","1313","
            <div class=""stimulus-container"">
                <img src=""images/schematic_sequence/flight_scheme/flight_scheme_7.png"" class=""exp-image"">
                <div class=""question-area"">
                    <p style=""font-size: 20px; font-weight: bold;"">Click the button to reveal the image value</p>
                </div>
            </div>","0","part2_active_reveal_click","flight_scheme","","","","","","","",""
"","","","","","html-keyboard-response","19","97313","0.0-19.0","06B376D9913647B39A08A4FB720BF2D1","019db62b-0b8e-77ce-a4bc-cad593922658","019db609-2a35-76b9-807a-e0c4c153f4bb","","null","
            <div class=""stimulus-container"" style=""display: flex; align-items: center; justify-content: center; gap: 40px;"">
                <img src=""images/schematic_sequence/flight_scheme/flight_scheme_7.png"" class=""exp-image"">
                <div style=""text-align: center;"">
                    <img src=""images/gray.png"" style=""width: 150px; height: 150px; border: 5px solid grey; border-radius: 15px;"">
                    <p style=""color: grey; font-weight: bold; font-size: 28px; margin-top: 15px;"">NEUTRAL VALUE</p>
                </div>
            </div>","null","part2_value_learning","flight_scheme","schematic_sequence","7","neutral","","","","",""
"","","","","","html-keyboard-response","20","102314","0.0-20.0","06B376D9913647B39A08A4FB720BF2D1","019db62b-0b8e-77ce-a4bc-cad593922658","019db609-2a35-76b9-807a-e0c4c153f4bb","","null","<div style=""background-color: white; width: 100vw; height: 100vh;""></div>","null","","","","","","","","","",""
"","","","","","html-button-response","21","103877","0.0-21.0","06B376D9913647B39A08A4FB720BF2D1","019db62b-0b8e-77ce-a4bc-cad593922658","019db609-2a35-76b9-807a-e0c4c153f4bb","","1561","
            <div class=""stimulus-container"">
                <img src=""images/semantic_sequence/kitchen_operations_semantic/kitchen_operations_semantic_5.png"" class=""exp-image"">
                <div class=""question-area"">
                    <p style=""font-size: 20px; font-weight: bold;"">Click the button to reveal the image value</p>
                </div>
            </div>","0","part2_active_reveal_click","kitchen_operations_semantic","","","","","","","",""
"","","","","","html-keyboard-response","22","111880","0.0-22.0","06B376D9913647B39A08A4FB720BF2D1","019db62b-0b8e-77ce-a4bc-cad593922658","019db609-2a35-76b9-807a-e0c4c153f4bb","","null","
            <div class=""stimulus-container"" style=""display: flex; align-items: center; justify-content: center; gap: 40px;"">
                <img src=""images/semantic_sequence/kitchen_operations_semantic/kitchen_operations_semantic_5.png"" class=""exp-image"">
                <div style=""text-align: center;"">
                    <img src=""images/dollar.png"" style=""width: 150px; height: 150px; border: 5px solid green; border-radius: 15px;"">
                    <p style=""color: green; font-weight: bold; font-size: 28px; margin-top: 15px;"">WORTH MONEY</p>
                </div>
            </div>","null","part2_value_learning","kitchen_operations_semantic","semantic_sequence","5","valuable","","","","",""
"","","","","","html-keyboard-response","23","116882","0.0-23.0","06B376D9913647B39A08A4FB720BF2D1","019db62b-0b8e-77ce-a4bc-cad593922658","019db609-2a35-76b9-807a-e0c4c153f4bb","","null","<div style=""background-color: white; width: 100vw; height: 100vh;""></div>","null","","","","","","","","","",""
"","","","","","html-button-response","24","120327","0.0-24.0","06B376D9913647B39A08A4FB720BF2D1","019db62b-0b8e-77ce-a4bc-cad593922658","019db609-2a35-76b9-807a-e0c4c153f4bb","","3443","
            <div class=""stimulus-container"">
                <img src=""images/semantic_sequence/maintaining_a_car_semantic/maintaining_a_car_semantic_6.png"" class=""exp-image"">
                <div class=""question-area"">
                    <p style=""font-size: 20px; font-weight: bold;"">Click the button to reveal the image value</p>
                </div>
            </div>","0","part2_active_reveal_click","maintaining_a_car_semantic","","","","","","","",""
"","","","","","html-keyboard-response","25","128330","0.0-25.0","06B376D9913647B39A08A4FB720BF2D1","019db62b-0b8e-77ce-a4bc-cad593922658","019db609-2a35-76b9-807a-e0c4c153f4bb","","null","
            <div class=""stimulus-container"" style=""display: flex; align-items: center; justify-content: center; gap: 40px;"">
                <img src=""images/semantic_sequence/maintaining_a_car_semantic/maintaining_a_car_semantic_6.png"" class=""exp-image"">
                <div style=""text-align: center;"">
                    <img src=""images/gray.png"" style=""width: 150px; height: 150px; border: 5px solid grey; border-radius: 15px;"">
                    <p style=""color: grey; font-weight: bold; font-size: 28px; margin-top: 15px;"">NEUTRAL VALUE</p>
                </div>
            </div>","null","part2_value_learning","maintaining_a_car_semantic","semantic_sequence","6","neutral","","","","",""
"","","","","","html-keyboard-response","26","133332","0.0-26.0","06B376D9913647B39A08A4FB720BF2D1","019db62b-0b8e-77ce-a4bc-cad593922658","019db609-2a35-76b9-807a-e0c4c153f4bb","","null","<div style=""background-color: white; width: 100vw; height: 100vh;""></div>","null","","","","","","","","","",""
"","","","","","html-button-response","27","134393","0.0-27.0","06B376D9913647B39A08A4FB720BF2D1","019db62b-0b8e-77ce-a4bc-cad593922658","019db609-2a35-76b9-807a-e0c4c153f4bb","","1060","
            <div class=""stimulus-container"">
                <img src=""images/schematic_sequence/supermarket_scheme/supermarket_scheme_4.png"" class=""exp-image"">
                <div class=""question-area"">
                    <p style=""font-size: 20px; font-weight: bold;"">Click the button to reveal the image value</p>
                </div>
            </div>","0","part2_active_reveal_click","supermarket_scheme","","","","","","","",""
"","","","","","html-keyboard-response","28","142395","0.0-28.0","06B376D9913647B39A08A4FB720BF2D1","019db62b-0b8e-77ce-a4bc-cad593922658","019db609-2a35-76b9-807a-e0c4c153f4bb","","null","
            <div class=""stimulus-container"" style=""display: flex; align-items: center; justify-content: center; gap: 40px;"">
                <img src=""images/schematic_sequence/supermarket_scheme/supermarket_scheme_4.png"" class=""exp-image"">
                <div style=""text-align: center;"">
                    <img src=""images/dollar.png"" style=""width: 150px; height: 150px; border: 5px solid green; border-radius: 15px;"">
                    <p style=""color: green; font-weight: bold; font-size: 28px; margin-top: 15px;"">WORTH MONEY</p>
                </div>
            </div>","null","part2_value_learning","supermarket_scheme","schematic_sequence","4","valuable","","","","",""
"","","","","","html-keyboard-response","29","147397","0.0-29.0","06B376D9913647B39A08A4FB720BF2D1","019db62b-0b8e-77ce-a4bc-cad593922658","019db609-2a35-76b9-807a-e0c4c153f4bb","","null","<div style=""background-color: white; width: 100vw; height: 100vh;""></div>","null","","","","","","","","","",""
"","","","","","html-button-response","30","149459","0.0-30.0","06B376D9913647B39A08A4FB720BF2D1","019db62b-0b8e-77ce-a4bc-cad593922658","019db609-2a35-76b9-807a-e0c4c153f4bb","","2060","
            <div class=""stimulus-container"">
                <img src=""images/schematic_sequence/hotel_scheme/hotel_scheme_5.png"" class=""exp-image"">
                <div class=""question-area"">
                    <p style=""font-size: 20px; font-weight: bold;"">Click the button to reveal the image value</p>
                </div>
            </div>","0","part2_active_reveal_click","hotel_scheme","","","","","","","",""
"","","","","","html-keyboard-response","31","157461","0.0-31.0","06B376D9913647B39A08A4FB720BF2D1","019db62b-0b8e-77ce-a4bc-cad593922658","019db609-2a35-76b9-807a-e0c4c153f4bb","","null","
            <div class=""stimulus-container"" style=""display: flex; align-items: center; justify-content: center; gap: 40px;"">
                <img src=""images/schematic_sequence/hotel_scheme/hotel_scheme_5.png"" class=""exp-image"">
                <div style=""text-align: center;"">
                    <img src=""images/gray.png"" style=""width: 150px; height: 150px; border: 5px solid grey; border-radius: 15px;"">
                    <p style=""color: grey; font-weight: bold; font-size: 28px; margin-top: 15px;"">NEUTRAL VALUE</p>
                </div>
            </div>","null","part2_value_learning","hotel_scheme","schematic_sequence","5","neutral","","","","",""
"","","","","","html-keyboard-response","32","162464","0.0-32.0","06B376D9913647B39A08A4FB720BF2D1","019db62b-0b8e-77ce-a4bc-cad593922658","019db609-2a35-76b9-807a-e0c4c153f4bb","","null","<div style=""background-color: white; width: 100vw; height: 100vh;""></div>","null","","","","","","","","","",""
"","","","","","html-button-response","33","171394","0.0-33.0","06B376D9913647B39A08A4FB720BF2D1","019db62b-0b8e-77ce-a4bc-cad593922658","019db609-2a35-76b9-807a-e0c4c153f4bb","","8928","
            <div class=""stimulus-container"">
                <img src=""images/schematic_sequence/dinner_party_scheme/dinner_party_scheme_6.png"" class=""exp-image"">
                <div class=""question-area"">
                    <p style=""font-size: 20px; font-weight: bold;"">Click the button to reveal the image value</p>
                </div>
            </div>","0","part2_active_reveal_click","dinner_party_scheme","","","","","","","",""
"","","","","","html-keyboard-response","34","179397","0.0-34.0","06B376D9913647B39A08A4FB720BF2D1","019db62b-0b8e-77ce-a4bc-cad593922658","019db609-2a35-76b9-807a-e0c4c153f4bb","","null","
            <div class=""stimulus-container"" style=""display: flex; align-items: center; justify-content: center; gap: 40px;"">
                <img src=""images/schematic_sequence/dinner_party_scheme/dinner_party_scheme_6.png"" class=""exp-image"">
                <div style=""text-align: center;"">
                    <img src=""images/dollar.png"" style=""width: 150px; height: 150px; border: 5px solid green; border-radius: 15px;"">
                    <p style=""color: green; font-weight: bold; font-size: 28px; margin-top: 15px;"">WORTH MONEY</p>
                </div>
            </div>","null","part2_value_learning","dinner_party_scheme","schematic_sequence","6","valuable","","","","",""
"","","","","","html-keyboard-response","35","184399","0.0-35.0","06B376D9913647B39A08A4FB720BF2D1","019db62b-0b8e-77ce-a4bc-cad593922658","019db609-2a35-76b9-807a-e0c4c153f4bb","","null","<div style=""background-color: white; width: 100vw; height: 100vh;""></div>","null","","","","","","","","","",""
"","","","","","html-button-response","36","186159","0.0-36.0","06B376D9913647B39A08A4FB720BF2D1","019db62b-0b8e-77ce-a4bc-cad593922658","019db609-2a35-76b9-807a-e0c4c153f4bb","","1759","
            <div class=""stimulus-container"">
                <img src=""images/schematic_sequence/interview_scheme/interview_scheme_4.png"" class=""exp-image"">
                <div class=""question-area"">
                    <p style=""font-size: 20px; font-weight: bold;"">Click the button to reveal the image value</p>
                </div>
            </div>","0","part2_active_reveal_click","interview_scheme","","","","","","","",""
"","","","","","html-keyboard-response","37","194161","0.0-37.0","06B376D9913647B39A08A4FB720BF2D1","019db62b-0b8e-77ce-a4bc-cad593922658","019db609-2a35-76b9-807a-e0c4c153f4bb","","null","
            <div class=""stimulus-container"" style=""display: flex; align-items: center; justify-content: center; gap: 40px;"">
                <img src=""images/schematic_sequence/interview_scheme/interview_scheme_4.png"" class=""exp-image"">
                <div style=""text-align: center;"">
                    <img src=""images/gray.png"" style=""width: 150px; height: 150px; border: 5px solid grey; border-radius: 15px;"">
                    <p style=""color: grey; font-weight: bold; font-size: 28px; margin-top: 15px;"">NEUTRAL VALUE</p>
                </div>
            </div>","null","part2_value_learning","interview_scheme","schematic_sequence","4","neutral","","","","",""
"","","","","","html-keyboard-response","38","199163","0.0-38.0","06B376D9913647B39A08A4FB720BF2D1","019db62b-0b8e-77ce-a4bc-cad593922658","019db609-2a35-76b9-807a-e0c4c153f4bb","","null","<div style=""background-color: white; width: 100vw; height: 100vh;""></div>","null","","","","","","","","","",""
"","","","","","html-button-response","39","203692","0.0-39.0","06B376D9913647B39A08A4FB720BF2D1","019db62b-0b8e-77ce-a4bc-cad593922658","019db609-2a35-76b9-807a-e0c4c153f4bb","","4527","
            <div class=""stimulus-container"">
                <img src=""images/schematic_sequence/restaurant_scheme/restaurant_scheme_5.png"" class=""exp-image"">
                <div class=""question-area"">
                    <p style=""font-size: 20px; font-weight: bold;"">Click the button to reveal the image value</p>
                </div>
            </div>","0","part2_active_reveal_click","restaurant_scheme","","","","","","","",""
"","","","","","html-keyboard-response","40","211695","0.0-40.0","06B376D9913647B39A08A4FB720BF2D1","019db62b-0b8e-77ce-a4bc-cad593922658","019db609-2a35-76b9-807a-e0c4c153f4bb","","null","
            <div class=""stimulus-container"" style=""display: flex; align-items: center; justify-content: center; gap: 40px;"">
                <img src=""images/schematic_sequence/restaurant_scheme/restaurant_scheme_5.png"" class=""exp-image"">
                <div style=""text-align: center;"">
                    <img src=""images/dollar.png"" style=""width: 150px; height: 150px; border: 5px solid green; border-radius: 15px;"">
                    <p style=""color: green; font-weight: bold; font-size: 28px; margin-top: 15px;"">WORTH MONEY</p>
                </div>
            </div>","null","part2_value_learning","restaurant_scheme","schematic_sequence","5","valuable","","","","",""
"","","","","","html-keyboard-response","41","216697","0.0-41.0","06B376D9913647B39A08A4FB720BF2D1","019db62b-0b8e-77ce-a4bc-cad593922658","019db609-2a35-76b9-807a-e0c4c153f4bb","","null","<div style=""background-color: white; width: 100vw; height: 100vh;""></div>","null","","","","","","","","","",""
"","","","","","instructions","42","228627","0.0-42.0","06B376D9913647B39A08A4FB720BF2D1","019db62b-0b8e-77ce-a4bc-cad593922658","019db609-2a35-76b9-807a-e0c4c153f4bb","[{""page_index"":0,""viewing_time"":11929}]","11929","","","","","","","","","","","",""
"","","","","","html-keyboard-response","43","231629","0.0-43.0-0.0","06B376D9913647B39A08A4FB720BF2D1","019db62b-0b8e-77ce-a4bc-cad593922658","019db609-2a35-76b9-807a-e0c4c153f4bb","","null","
                            <div style=""font-family: Arial; margin-bottom: 20px;""><h3>Which image is worth <b>more money</b>?</h3></div>
                            <div class=""stimulus-container"" style=""display: flex; width: 800px; justify-content: center; gap: 30px;"">
                                <img src=""images/schematic_sequence/hotel_scheme/hotel_scheme_3.png"" class=""small-image"">
                                <img src=""images/schematic_sequence/hotel_scheme/hotel_scheme_7.png"" class=""small-image"">
                            </div>","null","","","","","","","","","",""
"","","","","","html-button-response","44","233177","0.0-43.0-1.0","06B376D9913647B39A08A4FB720BF2D1","019db62b-0b8e-77ce-a4bc-cad593922658","019db609-2a35-76b9-807a-e0c4c153f4bb","","1545","
                            <div style=""font-family: Arial; margin-bottom: 20px;""><h3>Which image is worth <b>more money</b>?</h3></div>
                            <div class=""stimulus-container"" style=""display: flex; width: 800px; justify-content: center; gap: 30px;"">
                                <img src=""images/schematic_sequence/hotel_scheme/hotel_scheme_3.png"" class=""small-image"">
                                <img src=""images/schematic_sequence/hotel_scheme/hotel_scheme_7.png"" class=""small-image"">
                            </div>","0","part3_choice_neighbors","hotel_scheme","schematic_sequence","","","2","5","3","0",""
"","","","","","html-keyboard-response","45","236179","0.0-44.0-0.0","06B376D9913647B39A08A4FB720BF2D1","019db62b-0b8e-77ce-a4bc-cad593922658","019db609-2a35-76b9-807a-e0c4c153f4bb","","null","
                            <div style=""font-family: Arial; margin-bottom: 20px;""><h3>Which image is worth <b>more money</b>?</h3></div>
                            <div class=""stimulus-container"" style=""display: flex; width: 800px; justify-content: center; gap: 30px;"">
                                <img src=""images/schematic_sequence/flight_scheme/flight_scheme_ten.png"" class=""small-image"">
                                <img src=""images/schematic_sequence/flight_scheme/flight_scheme_4.png"" class=""small-image"">
                            </div>","null","","","","","","","","","",""
"","","","","","html-button-response","46","238293","0.0-44.0-1.0","06B376D9913647B39A08A4FB720BF2D1","019db62b-0b8e-77ce-a4bc-cad593922658","019db609-2a35-76b9-807a-e0c4c153f4bb","","2113","
                            <div style=""font-family: Arial; margin-bottom: 20px;""><h3>Which image is worth <b>more money</b>?</h3></div>
                            <div class=""stimulus-container"" style=""display: flex; width: 800px; justify-content: center; gap: 30px;"">
                                <img src=""images/schematic_sequence/flight_scheme/flight_scheme_ten.png"" class=""small-image"">
                                <img src=""images/schematic_sequence/flight_scheme/flight_scheme_4.png"" class=""small-image"">
                            </div>","1","part3_choice_neighbors","flight_scheme","schematic_sequence","","","3","7","4","0",""
"","","","","","html-keyboard-response","47","241296","0.0-45.0-0.0","06B376D9913647B39A08A4FB720BF2D1","019db62b-0b8e-77ce-a4bc-cad593922658","019db609-2a35-76b9-807a-e0c4c153f4bb","","null","
                            <div style=""font-family: Arial; margin-bottom: 20px;""><h3>Which image is worth <b>more money</b>?</h3></div>
                            <div class=""stimulus-container"" style=""display: flex; width: 800px; justify-content: center; gap: 30px;"">
                                <img src=""images/schematic_sequence/interview_scheme/interview_scheme_1.png"" class=""small-image"">
                                <img src=""images/schematic_sequence/interview_scheme/interview_scheme_7.png"" class=""small-image"">
                            </div>","null","","","","","","","","","",""
"","","","","","html-button-response","48","242558","0.0-45.0-1.0","06B376D9913647B39A08A4FB720BF2D1","019db62b-0b8e-77ce-a4bc-cad593922658","019db609-2a35-76b9-807a-e0c4c153f4bb","","1262","
                            <div style=""font-family: Arial; margin-bottom: 20px;""><h3>Which image is worth <b>more money</b>?</h3></div>
                            <div class=""stimulus-container"" style=""display: flex; width: 800px; justify-content: center; gap: 30px;"">
                                <img src=""images/schematic_sequence/interview_scheme/interview_scheme_1.png"" class=""small-image"">
                                <img src=""images/schematic_sequence/interview_scheme/interview_scheme_7.png"" class=""small-image"">
                            </div>","1","part3_choice_neighbors","interview_scheme","schematic_sequence","","","3","4","7","1",""
"","","","","","html-keyboard-response","49","245560","0.0-46.0-0.0","06B376D9913647B39A08A4FB720BF2D1","019db62b-0b8e-77ce-a4bc-cad593922658","019db609-2a35-76b9-807a-e0c4c153f4bb","","null","
                            <div style=""font-family: Arial; margin-bottom: 20px;""><h3>Which image is worth <b>more money</b>?</h3></div>
                            <div class=""stimulus-container"" style=""display: flex; width: 800px; justify-content: center; gap: 30px;"">
                                <img src=""images/semantic_sequence/self_care_activities_semantic/self_care_activities_semantic_8.png"" class=""small-image"">
                                <img src=""images/semantic_sequence/self_care_activities_semantic/self_care_activities_semantic_6.png"" class=""small-image"">
                            </div>","null","","","","","","","","","",""
"","","","","","html-button-response","50","246993","0.0-46.0-1.0","06B376D9913647B39A08A4FB720BF2D1","019db62b-0b8e-77ce-a4bc-cad593922658","019db609-2a35-76b9-807a-e0c4c153f4bb","","1432","
                            <div style=""font-family: Arial; margin-bottom: 20px;""><h3>Which image is worth <b>more money</b>?</h3></div>
                            <div class=""stimulus-container"" style=""display: flex; width: 800px; justify-content: center; gap: 30px;"">
                                <img src=""images/semantic_sequence/self_care_activities_semantic/self_care_activities_semantic_8.png"" class=""small-image"">
                                <img src=""images/semantic_sequence/self_care_activities_semantic/self_care_activities_semantic_6.png"" class=""small-image"">
                            </div>","0","part3_choice_neighbors","self_care_activities_semantic","semantic_sequence","","","1","7","8","1",""
"","","","","","html-keyboard-response","51","249995","0.0-47.0-0.0","06B376D9913647B39A08A4FB720BF2D1","019db62b-0b8e-77ce-a4bc-cad593922658","019db609-2a35-76b9-807a-e0c4c153f4bb","","null","
                            <div style=""font-family: Arial; margin-bottom: 20px;""><h3>Which image is worth <b>more money</b>?</h3></div>
                            <div class=""stimulus-container"" style=""display: flex; width: 800px; justify-content: center; gap: 30px;"">
                                <img src=""images/semantic_sequence/housework_semantic/housework_semantic_8.png"" class=""small-image"">
                                <img src=""images/semantic_sequence/housework_semantic/housework_semantic_4.png"" class=""small-image"">
                            </div>","null","","","","","","","","","",""
"","","","","","html-button-response","52","250943","0.0-47.0-1.0","06B376D9913647B39A08A4FB720BF2D1","019db62b-0b8e-77ce-a4bc-cad593922658","019db609-2a35-76b9-807a-e0c4c153f4bb","","946","
                            <div style=""font-family: Arial; margin-bottom: 20px;""><h3>Which image is worth <b>more money</b>?</h3></div>
                            <div class=""stimulus-container"" style=""display: flex; width: 800px; justify-content: center; gap: 30px;"">
                                <img src=""images/semantic_sequence/housework_semantic/housework_semantic_8.png"" class=""small-image"">
                                <img src=""images/semantic_sequence/housework_semantic/housework_semantic_4.png"" class=""small-image"">
                            </div>","0","part3_choice_neighbors","housework_semantic","semantic_sequence","","","2","6","8","1",""
"","","","","","html-keyboard-response","53","253946","0.0-48.0-0.0","06B376D9913647B39A08A4FB720BF2D1","019db62b-0b8e-77ce-a4bc-cad593922658","019db609-2a35-76b9-807a-e0c4c153f4bb","","null","
                            <div style=""font-family: Arial; margin-bottom: 20px;""><h3>Which image is worth <b>more money</b>?</h3></div>
                            <div class=""stimulus-container"" style=""display: flex; width: 800px; justify-content: center; gap: 30px;"">
                                <img src=""images/semantic_sequence/visiting_cities_semantic/visiting_cities_semantic_2.png"" class=""small-image"">
                                <img src=""images/semantic_sequence/visiting_cities_semantic/visiting_cities_semantic_6.png"" class=""small-image"">
                            </div>","null","","","","","","","","","",""
"","","","","","html-button-response","54","256393","0.0-48.0-1.0","06B376D9913647B39A08A4FB720BF2D1","019db62b-0b8e-77ce-a4bc-cad593922658","019db609-2a35-76b9-807a-e0c4c153f4bb","","2446","
                            <div style=""font-family: Arial; margin-bottom: 20px;""><h3>Which image is worth <b>more money</b>?</h3></div>
                            <div class=""stimulus-container"" style=""display: flex; width: 800px; justify-content: center; gap: 30px;"">
                                <img src=""images/semantic_sequence/visiting_cities_semantic/visiting_cities_semantic_2.png"" class=""small-image"">
                                <img src=""images/semantic_sequence/visiting_cities_semantic/visiting_cities_semantic_6.png"" class=""small-image"">
                            </div>","0","part3_choice_neighbors","visiting_cities_semantic","semantic_sequence","","","2","4","2","0",""
"","","","","","html-keyboard-response","55","259396","0.0-49.0-0.0","06B376D9913647B39A08A4FB720BF2D1","019db62b-0b8e-77ce-a4bc-cad593922658","019db609-2a35-76b9-807a-e0c4c153f4bb","","null","
                            <div style=""font-family: Arial; margin-bottom: 20px;""><h3>Which image is worth <b>more money</b>?</h3></div>
                            <div class=""stimulus-container"" style=""display: flex; width: 800px; justify-content: center; gap: 30px;"">
                                <img src=""images/schematic_sequence/dinner_party_scheme/dinner_party_scheme_4.png"" class=""small-image"">
                                <img src=""images/schematic_sequence/dinner_party_scheme/dinner_party_scheme_8.png"" class=""small-image"">
                            </div>","null","","","","","","","","","",""
"","","","","","html-button-response","56","260358","0.0-49.0-1.0","06B376D9913647B39A08A4FB720BF2D1","019db62b-0b8e-77ce-a4bc-cad593922658","019db609-2a35-76b9-807a-e0c4c153f4bb","","961","
                            <div style=""font-family: Arial; margin-bottom: 20px;""><h3>Which image is worth <b>more money</b>?</h3></div>
                            <div class=""stimulus-container"" style=""display: flex; width: 800px; justify-content: center; gap: 30px;"">
                                <img src=""images/schematic_sequence/dinner_party_scheme/dinner_party_scheme_4.png"" class=""small-image"">
                                <img src=""images/schematic_sequence/dinner_party_scheme/dinner_party_scheme_8.png"" class=""small-image"">
                            </div>","1","part3_choice_neighbors","dinner_party_scheme","schematic_sequence","","","2","6","8","1",""
"","","","","","html-keyboard-response","57","263360","0.0-50.0-0.0","06B376D9913647B39A08A4FB720BF2D1","019db62b-0b8e-77ce-a4bc-cad593922658","019db609-2a35-76b9-807a-e0c4c153f4bb","","null","
                            <div style=""font-family: Arial; margin-bottom: 20px;""><h3>Which image is worth <b>more money</b>?</h3></div>
                            <div class=""stimulus-container"" style=""display: flex; width: 800px; justify-content: center; gap: 30px;"">
                                <img src=""images/schematic_sequence/supermarket_scheme/supermarket_scheme_6.png"" class=""small-image"">
                                <img src=""images/schematic_sequence/supermarket_scheme/supermarket_scheme_2.png"" class=""small-image"">
                            </div>","null","","","","","","","","","",""
"","","","","","html-button-response","58","264092","0.0-50.0-1.0","06B376D9913647B39A08A4FB720BF2D1","019db62b-0b8e-77ce-a4bc-cad593922658","019db609-2a35-76b9-807a-e0c4c153f4bb","","730","
                            <div style=""font-family: Arial; margin-bottom: 20px;""><h3>Which image is worth <b>more money</b>?</h3></div>
                            <div class=""stimulus-container"" style=""display: flex; width: 800px; justify-content: center; gap: 30px;"">
                                <img src=""images/schematic_sequence/supermarket_scheme/supermarket_scheme_6.png"" class=""small-image"">
                                <img src=""images/schematic_sequence/supermarket_scheme/supermarket_scheme_2.png"" class=""small-image"">
                            </div>","0","part3_choice_neighbors","supermarket_scheme","schematic_sequence","","","2","4","6","1",""
"","","","","","html-keyboard-response","59","267094","0.0-51.0-0.0","06B376D9913647B39A08A4FB720BF2D1","019db62b-0b8e-77ce-a4bc-cad593922658","019db609-2a35-76b9-807a-e0c4c153f4bb","","null","
                            <div style=""font-family: Arial; margin-bottom: 20px;""><h3>Which image is worth <b>more money</b>?</h3></div>
                            <div class=""stimulus-container"" style=""display: flex; width: 800px; justify-content: center; gap: 30px;"">
                                <img src=""images/schematic_sequence/supermarket_scheme/supermarket_scheme_3.png"" class=""small-image"">
                                <img src=""images/schematic_sequence/supermarket_scheme/supermarket_scheme_5.png"" class=""small-image"">
                            </div>","null","","","","","","","","","",""
"","","","","","html-button-response","60","267743","0.0-51.0-1.0","06B376D9913647B39A08A4FB720BF2D1","019db62b-0b8e-77ce-a4bc-cad593922658","019db609-2a35-76b9-807a-e0c4c153f4bb","","645","
                            <div style=""font-family: Arial; margin-bottom: 20px;""><h3>Which image is worth <b>more money</b>?</h3></div>
                            <div class=""stimulus-container"" style=""display: flex; width: 800px; justify-content: center; gap: 30px;"">
                                <img src=""images/schematic_sequence/supermarket_scheme/supermarket_scheme_3.png"" class=""small-image"">
                                <img src=""images/schematic_sequence/supermarket_scheme/supermarket_scheme_5.png"" class=""small-image"">
                            </div>","1","part3_choice_neighbors","supermarket_scheme","schematic_sequence","","","1","4","5","1",""
"","","","","","html-keyboard-response","61","270745","0.0-52.0-0.0","06B376D9913647B39A08A4FB720BF2D1","019db62b-0b8e-77ce-a4bc-cad593922658","019db609-2a35-76b9-807a-e0c4c153f4bb","","null","
                            <div style=""font-family: Arial; margin-bottom: 20px;""><h3>Which image is worth <b>more money</b>?</h3></div>
                            <div class=""stimulus-container"" style=""display: flex; width: 800px; justify-content: center; gap: 30px;"">
                                <img src=""images/semantic_sequence/maintaining_a_car_semantic/maintaining_a_car_semantic_9.png"" class=""small-image"">
                                <img src=""images/semantic_sequence/maintaining_a_car_semantic/maintaining_a_car_semantic_3.png"" class=""small-image"">
                            </div>","null","","","","","","","","","",""
"","","","","","html-button-response","62","272026","0.0-52.0-1.0","06B376D9913647B39A08A4FB720BF2D1","019db62b-0b8e-77ce-a4bc-cad593922658","019db609-2a35-76b9-807a-e0c4c153f4bb","","1279","
                            <div style=""font-family: Arial; margin-bottom: 20px;""><h3>Which image is worth <b>more money</b>?</h3></div>
                            <div class=""stimulus-container"" style=""display: flex; width: 800px; justify-content: center; gap: 30px;"">
                                <img src=""images/semantic_sequence/maintaining_a_car_semantic/maintaining_a_car_semantic_9.png"" class=""small-image"">
                                <img src=""images/semantic_sequence/maintaining_a_car_semantic/maintaining_a_car_semantic_3.png"" class=""small-image"">
                            </div>","0","part3_choice_neighbors","maintaining_a_car_semantic","semantic_sequence","","","3","6","9","1",""
"","","","","","html-keyboard-response","63","275028","0.0-53.0-0.0","06B376D9913647B39A08A4FB720BF2D1","019db62b-0b8e-77ce-a4bc-cad593922658","019db609-2a35-76b9-807a-e0c4c153f4bb","","null","
                            <div style=""font-family: Arial; margin-bottom: 20px;""><h3>Which image is worth <b>more money</b>?</h3></div>
                            <div class=""stimulus-container"" style=""display: flex; width: 800px; justify-content: center; gap: 30px;"">
                                <img src=""images/schematic_sequence/interview_scheme/interview_scheme_5.png"" class=""small-image"">
                                <img src=""images/schematic_sequence/interview_scheme/interview_scheme_3.png"" class=""small-image"">
                            </div>","null","","","","","","","","","",""
"","","","","","html-button-response","64","275775","0.0-53.0-1.0","06B376D9913647B39A08A4FB720BF2D1","019db62b-0b8e-77ce-a4bc-cad593922658","019db609-2a35-76b9-807a-e0c4c153f4bb","","745","
                            <div style=""font-family: Arial; margin-bottom: 20px;""><h3>Which image is worth <b>more money</b>?</h3></div>
                            <div class=""stimulus-container"" style=""display: flex; width: 800px; justify-content: center; gap: 30px;"">
                                <img src=""images/schematic_sequence/interview_scheme/interview_scheme_5.png"" class=""small-image"">
                                <img src=""images/schematic_sequence/interview_scheme/interview_scheme_3.png"" class=""small-image"">
                            </div>","0","part3_choice_neighbors","interview_scheme","schematic_sequence","","","1","4","5","1",""
"","","","","","html-keyboard-response","65","278778","0.0-54.0-0.0","06B376D9913647B39A08A4FB720BF2D1","019db62b-0b8e-77ce-a4bc-cad593922658","019db609-2a35-76b9-807a-e0c4c153f4bb","","null","
                            <div style=""font-family: Arial; margin-bottom: 20px;""><h3>Which image is worth <b>more money</b>?</h3></div>
                            <div class=""stimulus-container"" style=""display: flex; width: 800px; justify-content: center; gap: 30px;"">
                                <img src=""images/semantic_sequence/maintaining_a_car_semantic/maintaining_a_car_semantic_8.png"" class=""small-image"">
                                <img src=""images/semantic_sequence/maintaining_a_car_semantic/maintaining_a_car_semantic_4.png"" class=""small-image"">
                            </div>","null","","","","","","","","","",""
"","","","","","html-button-response","66","285208","0.0-54.0-1.0","06B376D9913647B39A08A4FB720BF2D1","019db62b-0b8e-77ce-a4bc-cad593922658","019db609-2a35-76b9-807a-e0c4c153f4bb","","6429","
                            <div style=""font-family: Arial; margin-bottom: 20px;""><h3>Which image is worth <b>more money</b>?</h3></div>
                            <div class=""stimulus-container"" style=""display: flex; width: 800px; justify-content: center; gap: 30px;"">
                                <img src=""images/semantic_sequence/maintaining_a_car_semantic/maintaining_a_car_semantic_8.png"" class=""small-image"">
                                <img src=""images/semantic_sequence/maintaining_a_car_semantic/maintaining_a_car_semantic_4.png"" class=""small-image"">
                            </div>","1","part3_choice_neighbors","maintaining_a_car_semantic","semantic_sequence","","","2","6","4","0",""
"","","","","","html-keyboard-response","67","288210","0.0-55.0-0.0","06B376D9913647B39A08A4FB720BF2D1","019db62b-0b8e-77ce-a4bc-cad593922658","019db609-2a35-76b9-807a-e0c4c153f4bb","","null","
                            <div style=""font-family: Arial; margin-bottom: 20px;""><h3>Which image is worth <b>more money</b>?</h3></div>
                            <div class=""stimulus-container"" style=""display: flex; width: 800px; justify-content: center; gap: 30px;"">
                                <img src=""images/schematic_sequence/flight_scheme/flight_scheme_5.png"" class=""small-image"">
                                <img src=""images/schematic_sequence/flight_scheme/flight_scheme_9.png"" class=""small-image"">
                            </div>","null","","","","","","","","","",""
"","","","","","html-button-response","68","288826","0.0-55.0-1.0","06B376D9913647B39A08A4FB720BF2D1","019db62b-0b8e-77ce-a4bc-cad593922658","019db609-2a35-76b9-807a-e0c4c153f4bb","","615","
                            <div style=""font-family: Arial; margin-bottom: 20px;""><h3>Which image is worth <b>more money</b>?</h3></div>
                            <div class=""stimulus-container"" style=""display: flex; width: 800px; justify-content: center; gap: 30px;"">
                                <img src=""images/schematic_sequence/flight_scheme/flight_scheme_5.png"" class=""small-image"">
                                <img src=""images/schematic_sequence/flight_scheme/flight_scheme_9.png"" class=""small-image"">
                            </div>","1","part3_choice_neighbors","flight_scheme","schematic_sequence","","","2","7","9","1",""
"","","","","","html-keyboard-response","69","291829","0.0-56.0-0.0","06B376D9913647B39A08A4FB720BF2D1","019db62b-0b8e-77ce-a4bc-cad593922658","019db609-2a35-76b9-807a-e0c4c153f4bb","","null","
                            <div style=""font-family: Arial; margin-bottom: 20px;""><h3>Which image is worth <b>more money</b>?</h3></div>
                            <div class=""stimulus-container"" style=""display: flex; width: 800px; justify-content: center; gap: 30px;"">
                                <img src=""images/schematic_sequence/restaurant_scheme/restaurant_scheme_4.png"" class=""small-image"">
                                <img src=""images/schematic_sequence/restaurant_scheme/restaurant_scheme_6.png"" class=""small-image"">
                            </div>","null","","","","","","","","","",""
"","","","","","html-button-response","70","293476","0.0-56.0-1.0","06B376D9913647B39A08A4FB720BF2D1","019db62b-0b8e-77ce-a4bc-cad593922658","019db609-2a35-76b9-807a-e0c4c153f4bb","","1645","
                            <div style=""font-family: Arial; margin-bottom: 20px;""><h3>Which image is worth <b>more money</b>?</h3></div>
                            <div class=""stimulus-container"" style=""display: flex; width: 800px; justify-content: center; gap: 30px;"">
                                <img src=""images/schematic_sequence/restaurant_scheme/restaurant_scheme_4.png"" class=""small-image"">
                                <img src=""images/schematic_sequence/restaurant_scheme/restaurant_scheme_6.png"" class=""small-image"">
                            </div>","1","part3_choice_neighbors","restaurant_scheme","schematic_sequence","","","1","5","6","1",""
"","","","","","html-keyboard-response","71","296479","0.0-57.0-0.0","06B376D9913647B39A08A4FB720BF2D1","019db62b-0b8e-77ce-a4bc-cad593922658","019db609-2a35-76b9-807a-e0c4c153f4bb","","null","
                            <div style=""font-family: Arial; margin-bottom: 20px;""><h3>Which image is worth <b>more money</b>?</h3></div>
                            <div class=""stimulus-container"" style=""display: flex; width: 800px; justify-content: center; gap: 30px;"">
                                <img src=""images/schematic_sequence/dinner_party_scheme/dinner_party_scheme_5.png"" class=""small-image"">
                                <img src=""images/schematic_sequence/dinner_party_scheme/dinner_party_scheme_7.png"" class=""small-image"">
                            </div>","null","","","","","","","","","",""
"","","","","","html-button-response","72","297161","0.0-57.0-1.0","06B376D9913647B39A08A4FB720BF2D1","019db62b-0b8e-77ce-a4bc-cad593922658","019db609-2a35-76b9-807a-e0c4c153f4bb","","681","
                            <div style=""font-family: Arial; margin-bottom: 20px;""><h3>Which image is worth <b>more money</b>?</h3></div>
                            <div class=""stimulus-container"" style=""display: flex; width: 800px; justify-content: center; gap: 30px;"">
                                <img src=""images/schematic_sequence/dinner_party_scheme/dinner_party_scheme_5.png"" class=""small-image"">
                                <img src=""images/schematic_sequence/dinner_party_scheme/dinner_party_scheme_7.png"" class=""small-image"">
                            </div>","1","part3_choice_neighbors","dinner_party_scheme","schematic_sequence","","","1","6","7","1",""
"","","","","","html-keyboard-response","73","300164","0.0-58.0-0.0","06B376D9913647B39A08A4FB720BF2D1","019db62b-0b8e-77ce-a4bc-cad593922658","019db609-2a35-76b9-807a-e0c4c153f4bb","","null","
                            <div style=""font-family: Arial; margin-bottom: 20px;""><h3>Which image is worth <b>more money</b>?</h3></div>
                            <div class=""stimulus-container"" style=""display: flex; width: 800px; justify-content: center; gap: 30px;"">
                                <img src=""images/semantic_sequence/maintaining_a_car_semantic/maintaining_a_car_semantic_7.png"" class=""small-image"">
                                <img src=""images/semantic_sequence/maintaining_a_car_semantic/maintaining_a_car_semantic_5.png"" class=""small-image"">
                            </div>","null","","","","","","","","","",""
"","","","","","html-button-response","74","300827","0.0-58.0-1.0","06B376D9913647B39A08A4FB720BF2D1","019db62b-0b8e-77ce-a4bc-cad593922658","019db609-2a35-76b9-807a-e0c4c153f4bb","","661","
                            <div style=""font-family: Arial; margin-bottom: 20px;""><h3>Which image is worth <b>more money</b>?</h3></div>
                            <div class=""stimulus-container"" style=""display: flex; width: 800px; justify-content: center; gap: 30px;"">
                                <img src=""images/semantic_sequence/maintaining_a_car_semantic/maintaining_a_car_semantic_7.png"" class=""small-image"">
                                <img src=""images/semantic_sequence/maintaining_a_car_semantic/maintaining_a_car_semantic_5.png"" class=""small-image"">
                            </div>","1","part3_choice_neighbors","maintaining_a_car_semantic","semantic_sequence","","","1","6","5","0",""
"","","","","","html-keyboard-response","75","303829","0.0-59.0-0.0","06B376D9913647B39A08A4FB720BF2D1","019db62b-0b8e-77ce-a4bc-cad593922658","019db609-2a35-76b9-807a-e0c4c153f4bb","","null","
                            <div style=""font-family: Arial; margin-bottom: 20px;""><h3>Which image is worth <b>more money</b>?</h3></div>
                            <div class=""stimulus-container"" style=""display: flex; width: 800px; justify-content: center; gap: 30px;"">
                                <img src=""images/semantic_sequence/physical_activity_semantic/physical_activity_semantic_4.png"" class=""small-image"">
                                <img src=""images/semantic_sequence/physical_activity_semantic/physical_activity_semantic_8.png"" class=""small-image"">
                            </div>","null","","","","","","","","","",""
"","","","","","html-button-response","76","316808","0.0-59.0-1.0","06B376D9913647B39A08A4FB720BF2D1","019db62b-0b8e-77ce-a4bc-cad593922658","019db609-2a35-76b9-807a-e0c4c153f4bb","","12977","
                            <div style=""font-family: Arial; margin-bottom: 20px;""><h3>Which image is worth <b>more money</b>?</h3></div>
                            <div class=""stimulus-container"" style=""display: flex; width: 800px; justify-content: center; gap: 30px;"">
                                <img src=""images/semantic_sequence/physical_activity_semantic/physical_activity_semantic_4.png"" class=""small-image"">
                                <img src=""images/semantic_sequence/physical_activity_semantic/physical_activity_semantic_8.png"" class=""small-image"">
                            </div>","1","part3_choice_neighbors","physical_activity_semantic","semantic_sequence","","","2","6","8","1",""
"","","","","","html-keyboard-response","77","319811","0.0-60.0-0.0","06B376D9913647B39A08A4FB720BF2D1","019db62b-0b8e-77ce-a4bc-cad593922658","019db609-2a35-76b9-807a-e0c4c153f4bb","","null","
                            <div style=""font-family: Arial; margin-bottom: 20px;""><h3>Which image is worth <b>more money</b>?</h3></div>
                            <div class=""stimulus-container"" style=""display: flex; width: 800px; justify-content: center; gap: 30px;"">
                                <img src=""images/semantic_sequence/kitchen_operations_semantic/kitchen_operations_semantic_8.png"" class=""small-image"">
                                <img src=""images/semantic_sequence/kitchen_operations_semantic/kitchen_operations_semantic_2.png"" class=""small-image"">
                            </div>","null","","","","","","","","","",""
"","","","","","html-button-response","78","320609","0.0-60.0-1.0","06B376D9913647B39A08A4FB720BF2D1","019db62b-0b8e-77ce-a4bc-cad593922658","019db609-2a35-76b9-807a-e0c4c153f4bb","","796","
                            <div style=""font-family: Arial; margin-bottom: 20px;""><h3>Which image is worth <b>more money</b>?</h3></div>
                            <div class=""stimulus-container"" style=""display: flex; width: 800px; justify-content: center; gap: 30px;"">
                                <img src=""images/semantic_sequence/kitchen_operations_semantic/kitchen_operations_semantic_8.png"" class=""small-image"">
                                <img src=""images/semantic_sequence/kitchen_operations_semantic/kitchen_operations_semantic_2.png"" class=""small-image"">
                            </div>","0","part3_choice_neighbors","kitchen_operations_semantic","semantic_sequence","","","3","5","8","1",""
"","","","","","html-keyboard-response","79","323611","0.0-61.0-0.0","06B376D9913647B39A08A4FB720BF2D1","019db62b-0b8e-77ce-a4bc-cad593922658","019db609-2a35-76b9-807a-e0c4c153f4bb","","null","
                            <div style=""font-family: Arial; margin-bottom: 20px;""><h3>Which image is worth <b>more money</b>?</h3></div>
                            <div class=""stimulus-container"" style=""display: flex; width: 800px; justify-content: center; gap: 30px;"">
                                <img src=""images/schematic_sequence/restaurant_scheme/restaurant_scheme_2.png"" class=""small-image"">
                                <img src=""images/schematic_sequence/restaurant_scheme/restaurant_scheme_8.png"" class=""small-image"">
                            </div>","null","","","","","","","","","",""
"","","","","","html-button-response","80","329728","0.0-61.0-1.0","06B376D9913647B39A08A4FB720BF2D1","019db62b-0b8e-77ce-a4bc-cad593922658","019db609-2a35-76b9-807a-e0c4c153f4bb","","6114","
                            <div style=""font-family: Arial; margin-bottom: 20px;""><h3>Which image is worth <b>more money</b>?</h3></div>
                            <div class=""stimulus-container"" style=""display: flex; width: 800px; justify-content: center; gap: 30px;"">
                                <img src=""images/schematic_sequence/restaurant_scheme/restaurant_scheme_2.png"" class=""small-image"">
                                <img src=""images/schematic_sequence/restaurant_scheme/restaurant_scheme_8.png"" class=""small-image"">
                            </div>","1","part3_choice_neighbors","restaurant_scheme","schematic_sequence","","","3","5","8","1",""
"","","","","","html-keyboard-response","81","332730","0.0-62.0-0.0","06B376D9913647B39A08A4FB720BF2D1","019db62b-0b8e-77ce-a4bc-cad593922658","019db609-2a35-76b9-807a-e0c4c153f4bb","","null","
                            <div style=""font-family: Arial; margin-bottom: 20px;""><h3>Which image is worth <b>more money</b>?</h3></div>
                            <div class=""stimulus-container"" style=""display: flex; width: 800px; justify-content: center; gap: 30px;"">
                                <img src=""images/semantic_sequence/self_care_activities_semantic/self_care_activities_semantic_ten.png"" class=""small-image"">
                                <img src=""images/semantic_sequence/self_care_activities_semantic/self_care_activities_semantic_4.png"" class=""small-image"">
                            </div>","null","","","","","","","","","",""
"","","","","","html-button-response","82","333311","0.0-62.0-1.0","06B376D9913647B39A08A4FB720BF2D1","019db62b-0b8e-77ce-a4bc-cad593922658","019db609-2a35-76b9-807a-e0c4c153f4bb","","579","
                            <div style=""font-family: Arial; margin-bottom: 20px;""><h3>Which image is worth <b>more money</b>?</h3></div>
                            <div class=""stimulus-container"" style=""display: flex; width: 800px; justify-content: center; gap: 30px;"">
                                <img src=""images/semantic_sequence/self_care_activities_semantic/self_care_activities_semantic_ten.png"" class=""small-image"">
                                <img src=""images/semantic_sequence/self_care_activities_semantic/self_care_activities_semantic_4.png"" class=""small-image"">
                            </div>","0","part3_choice_neighbors","self_care_activities_semantic","semantic_sequence","","","3","7","10","1",""
"","","","","","html-keyboard-response","83","336313","0.0-63.0-0.0","06B376D9913647B39A08A4FB720BF2D1","019db62b-0b8e-77ce-a4bc-cad593922658","019db609-2a35-76b9-807a-e0c4c153f4bb","","null","
                            <div style=""font-family: Arial; margin-bottom: 20px;""><h3>Which image is worth <b>more money</b>?</h3></div>
                            <div class=""stimulus-container"" style=""display: flex; width: 800px; justify-content: center; gap: 30px;"">
                                <img src=""images/schematic_sequence/hotel_scheme/hotel_scheme_4.png"" class=""small-image"">
                                <img src=""images/schematic_sequence/hotel_scheme/hotel_scheme_6.png"" class=""small-image"">
                            </div>","null","","","","","","","","","",""
"","","","","","html-button-response","84","336858","0.0-63.0-1.0","06B376D9913647B39A08A4FB720BF2D1","019db62b-0b8e-77ce-a4bc-cad593922658","019db609-2a35-76b9-807a-e0c4c153f4bb","","543","
                            <div style=""font-family: Arial; margin-bottom: 20px;""><h3>Which image is worth <b>more money</b>?</h3></div>
                            <div class=""stimulus-container"" style=""display: flex; width: 800px; justify-content: center; gap: 30px;"">
                                <img src=""images/schematic_sequence/hotel_scheme/hotel_scheme_4.png"" class=""small-image"">
                                <img src=""images/schematic_sequence/hotel_scheme/hotel_scheme_6.png"" class=""small-image"">
                            </div>","1","part3_choice_neighbors","hotel_scheme","schematic_sequence","","","1","5","6","1",""
"","","","","","html-keyboard-response","85","339860","0.0-64.0-0.0","06B376D9913647B39A08A4FB720BF2D1","019db62b-0b8e-77ce-a4bc-cad593922658","019db609-2a35-76b9-807a-e0c4c153f4bb","","null","
                            <div style=""font-family: Arial; margin-bottom: 20px;""><h3>Which image is worth <b>more money</b>?</h3></div>
                            <div class=""stimulus-container"" style=""display: flex; width: 800px; justify-content: center; gap: 30px;"">
                                <img src=""images/schematic_sequence/interview_scheme/interview_scheme_6.png"" class=""small-image"">
                                <img src=""images/schematic_sequence/interview_scheme/interview_scheme_2.png"" class=""small-image"">
                            </div>","null","","","","","","","","","",""
"","","","","","html-button-response","86","340943","0.0-64.0-1.0","06B376D9913647B39A08A4FB720BF2D1","019db62b-0b8e-77ce-a4bc-cad593922658","019db609-2a35-76b9-807a-e0c4c153f4bb","","1081","
                            <div style=""font-family: Arial; margin-bottom: 20px;""><h3>Which image is worth <b>more money</b>?</h3></div>
                            <div class=""stimulus-container"" style=""display: flex; width: 800px; justify-content: center; gap: 30px;"">
                                <img src=""images/schematic_sequence/interview_scheme/interview_scheme_6.png"" class=""small-image"">
                                <img src=""images/schematic_sequence/interview_scheme/interview_scheme_2.png"" class=""small-image"">
                            </div>","1","part3_choice_neighbors","interview_scheme","schematic_sequence","","","2","4","2","0",""
"","","","","","html-keyboard-response","87","343946","0.0-65.0-0.0","06B376D9913647B39A08A4FB720BF2D1","019db62b-0b8e-77ce-a4bc-cad593922658","019db609-2a35-76b9-807a-e0c4c153f4bb","","null","
                            <div style=""font-family: Arial; margin-bottom: 20px;""><h3>Which image is worth <b>more money</b>?</h3></div>
                            <div class=""stimulus-container"" style=""display: flex; width: 800px; justify-content: center; gap: 30px;"">
                                <img src=""images/schematic_sequence/supermarket_scheme/supermarket_scheme_1.png"" class=""small-image"">
                                <img src=""images/schematic_sequence/supermarket_scheme/supermarket_scheme_7.png"" class=""small-image"">
                            </div>","null","","","","","","","","","",""
"","","","","","html-button-response","88","345093","0.0-65.0-1.0","06B376D9913647B39A08A4FB720BF2D1","019db62b-0b8e-77ce-a4bc-cad593922658","019db609-2a35-76b9-807a-e0c4c153f4bb","","1144","
                            <div style=""font-family: Arial; margin-bottom: 20px;""><h3>Which image is worth <b>more money</b>?</h3></div>
                            <div class=""stimulus-container"" style=""display: flex; width: 800px; justify-content: center; gap: 30px;"">
                                <img src=""images/schematic_sequence/supermarket_scheme/supermarket_scheme_1.png"" class=""small-image"">
                                <img src=""images/schematic_sequence/supermarket_scheme/supermarket_scheme_7.png"" class=""small-image"">
                            </div>","0","part3_choice_neighbors","supermarket_scheme","schematic_sequence","","","3","4","1","0",""
"","","","","","html-keyboard-response","89","348095","0.0-66.0-0.0","06B376D9913647B39A08A4FB720BF2D1","019db62b-0b8e-77ce-a4bc-cad593922658","019db609-2a35-76b9-807a-e0c4c153f4bb","","null","<div style=""font-family: Arial; margin-bottom: 20px;""><h3>Which image is worth <b>more money?</h3></div>
                            <div class=""stimulus-container"" style=""display: flex; width: 800px; justify-content: center; gap: 30px;"">
                                <img src=""images/semantic_sequence/kitchen_operations_semantic/kitchen_operations_semantic_5.png"" class=""small-image"">
                                <img src=""images/schematic_sequence/flight_scheme/flight_scheme_7.png"" class=""small-image"">
                            </div>","null","","","","","","","","","",""
"","","","","","html-button-response","90","348693","0.0-66.0-1.0","06B376D9913647B39A08A4FB720BF2D1","019db62b-0b8e-77ce-a4bc-cad593922658","019db609-2a35-76b9-807a-e0c4c153f4bb","","596","<div style=""font-family: Arial; margin-bottom: 20px;""><h3>Which image is worth <b>more money</b>?</h3></div>
                            <div class=""stimulus-container"" style=""display: flex; width: 800px; justify-content: center; gap: 30px;"">
                                <img src=""images/semantic_sequence/kitchen_operations_semantic/kitchen_operations_semantic_5.png"" class=""small-image"">
                                <img src=""images/schematic_sequence/flight_scheme/flight_scheme_7.png"" class=""small-image"">
                            </div>","0","part3_valuable_vs_neutral_direct","","","","","","","","","true"
"","","","","","html-keyboard-response","91","351696","0.0-67.0-0.0","06B376D9913647B39A08A4FB720BF2D1","019db62b-0b8e-77ce-a4bc-cad593922658","019db609-2a35-76b9-807a-e0c4c153f4bb","","null","
                            <div style=""font-family: Arial; margin-bottom: 20px;""><h3>Which image is worth <b>more money</b>?</h3></div>
                            <div class=""stimulus-container"" style=""display: flex; width: 800px; justify-content: center; gap: 30px;"">
                                <img src=""images/semantic_sequence/housework_semantic/housework_semantic_5.png"" class=""small-image"">
                                <img src=""images/semantic_sequence/housework_semantic/housework_semantic_7.png"" class=""small-image"">
                            </div>","null","","","","","","","","","",""
"","","","","","html-button-response","92","354561","0.0-67.0-1.0","06B376D9913647B39A08A4FB720BF2D1","019db62b-0b8e-77ce-a4bc-cad593922658","019db609-2a35-76b9-807a-e0c4c153f4bb","","2864","
                            <div style=""font-family: Arial; margin-bottom: 20px;""><h3>Which image is worth <b>more money</b>?</h3></div>
                            <div class=""stimulus-container"" style=""display: flex; width: 800px; justify-content: center; gap: 30px;"">
                                <img src=""images/semantic_sequence/housework_semantic/housework_semantic_5.png"" class=""small-image"">
                                <img src=""images/semantic_sequence/housework_semantic/housework_semantic_7.png"" class=""small-image"">
                            </div>","0","part3_choice_neighbors","housework_semantic","semantic_sequence","","","1","6","5","0",""
"","","","","","html-keyboard-response","93","357564","0.0-68.0-0.0","06B376D9913647B39A08A4FB720BF2D1","019db62b-0b8e-77ce-a4bc-cad593922658","019db609-2a35-76b9-807a-e0c4c153f4bb","","null","
                            <div style=""font-family: Arial; margin-bottom: 20px;""><h3>Which image is worth <b>more money</b>?</h3></div>
                            <div class=""stimulus-container"" style=""display: flex; width: 800px; justify-content: center; gap: 30px;"">
                                <img src=""images/semantic_sequence/physical_activity_semantic/physical_activity_semantic_9.png"" class=""small-image"">
                                <img src=""images/semantic_sequence/physical_activity_semantic/physical_activity_semantic_3.png"" class=""small-image"">
                            </div>","null","","","","","","","","","",""
"","","","","","html-button-response","94","358426","0.0-68.0-1.0","06B376D9913647B39A08A4FB720BF2D1","019db62b-0b8e-77ce-a4bc-cad593922658","019db609-2a35-76b9-807a-e0c4c153f4bb","","860","
                            <div style=""font-family: Arial; margin-bottom: 20px;""><h3>Which image is worth <b>more money</b>?</h3></div>
                            <div class=""stimulus-container"" style=""display: flex; width: 800px; justify-content: center; gap: 30px;"">
                                <img src=""images/semantic_sequence/physical_activity_semantic/physical_activity_semantic_9.png"" class=""small-image"">
                                <img src=""images/semantic_sequence/physical_activity_semantic/physical_activity_semantic_3.png"" class=""small-image"">
                            </div>","1","part3_choice_neighbors","physical_activity_semantic","semantic_sequence","","","3","6","3","0",""
"","","","","","html-keyboard-response","95","361429","0.0-69.0-0.0","06B376D9913647B39A08A4FB720BF2D1","019db62b-0b8e-77ce-a4bc-cad593922658","019db609-2a35-76b9-807a-e0c4c153f4bb","","null","
                            <div style=""font-family: Arial; margin-bottom: 20px;""><h3>Which image is worth <b>more money</b>?</h3></div>
                            <div class=""stimulus-container"" style=""display: flex; width: 800px; justify-content: center; gap: 30px;"">
                                <img src=""images/semantic_sequence/kitchen_operations_semantic/kitchen_operations_semantic_6.png"" class=""small-image"">
                                <img src=""images/semantic_sequence/kitchen_operations_semantic/kitchen_operations_semantic_4.png"" class=""small-image"">
                            </div>","null","","","","","","","","","",""
"","","","","","html-button-response","96","362093","0.0-69.0-1.0","06B376D9913647B39A08A4FB720BF2D1","019db62b-0b8e-77ce-a4bc-cad593922658","019db609-2a35-76b9-807a-e0c4c153f4bb","","662","
                            <div style=""font-family: Arial; margin-bottom: 20px;""><h3>Which image is worth <b>more money</b>?</h3></div>
                            <div class=""stimulus-container"" style=""display: flex; width: 800px; justify-content: center; gap: 30px;"">
                                <img src=""images/semantic_sequence/kitchen_operations_semantic/kitchen_operations_semantic_6.png"" class=""small-image"">
                                <img src=""images/semantic_sequence/kitchen_operations_semantic/kitchen_operations_semantic_4.png"" class=""small-image"">
                            </div>","1","part3_choice_neighbors","kitchen_operations_semantic","semantic_sequence","","","1","5","4","0",""
"","","","","","html-keyboard-response","97","365095","0.0-70.0-0.0","06B376D9913647B39A08A4FB720BF2D1","019db62b-0b8e-77ce-a4bc-cad593922658","019db609-2a35-76b9-807a-e0c4c153f4bb","","null","
                            <div style=""font-family: Arial; margin-bottom: 20px;""><h3>Which image is worth <b>more money</b>?</h3></div>
                            <div class=""stimulus-container"" style=""display: flex; width: 800px; justify-content: center; gap: 30px;"">
                                <img src=""images/schematic_sequence/dinner_party_scheme/dinner_party_scheme_9.png"" class=""small-image"">
                                <img src=""images/schematic_sequence/dinner_party_scheme/dinner_party_scheme_3.png"" class=""small-image"">
                            </div>","null","","","","","","","","","",""
"","","","","","html-button-response","98","365843","0.0-70.0-1.0","06B376D9913647B39A08A4FB720BF2D1","019db62b-0b8e-77ce-a4bc-cad593922658","019db609-2a35-76b9-807a-e0c4c153f4bb","","746","
                            <div style=""font-family: Arial; margin-bottom: 20px;""><h3>Which image is worth <b>more money</b>?</h3></div>
                            <div class=""stimulus-container"" style=""display: flex; width: 800px; justify-content: center; gap: 30px;"">
                                <img src=""images/schematic_sequence/dinner_party_scheme/dinner_party_scheme_9.png"" class=""small-image"">
                                <img src=""images/schematic_sequence/dinner_party_scheme/dinner_party_scheme_3.png"" class=""small-image"">
                            </div>","0","part3_choice_neighbors","dinner_party_scheme","schematic_sequence","","","3","6","9","1",""
"","","","","","html-keyboard-response","99","368845","0.0-71.0-0.0","06B376D9913647B39A08A4FB720BF2D1","019db62b-0b8e-77ce-a4bc-cad593922658","019db609-2a35-76b9-807a-e0c4c153f4bb","","null","
                            <div style=""font-family: Arial; margin-bottom: 20px;""><h3>Which image is worth <b>more money</b>?</h3></div>
                            <div class=""stimulus-container"" style=""display: flex; width: 800px; justify-content: center; gap: 30px;"">
                                <img src=""images/semantic_sequence/self_care_activities_semantic/self_care_activities_semantic_9.png"" class=""small-image"">
                                <img src=""images/semantic_sequence/self_care_activities_semantic/self_care_activities_semantic_5.png"" class=""small-image"">
                            </div>","null","","","","","","","","","",""
"","","","","","html-button-response","100","369443","0.0-71.0-1.0","06B376D9913647B39A08A4FB720BF2D1","019db62b-0b8e-77ce-a4bc-cad593922658","019db609-2a35-76b9-807a-e0c4c153f4bb","","596","
                            <div style=""font-family: Arial; margin-bottom: 20px;""><h3>Which image is worth <b>more money</b>?</h3></div>
                            <div class=""stimulus-container"" style=""display: flex; width: 800px; justify-content: center; gap: 30px;"">
                                <img src=""images/semantic_sequence/self_care_activities_semantic/self_care_activities_semantic_9.png"" class=""small-image"">
                                <img src=""images/semantic_sequence/self_care_activities_semantic/self_care_activities_semantic_5.png"" class=""small-image"">
                            </div>","0","part3_choice_neighbors","self_care_activities_semantic","semantic_sequence","","","2","7","9","1",""
"","","","","","html-keyboard-response","101","372444","0.0-72.0-0.0","06B376D9913647B39A08A4FB720BF2D1","019db62b-0b8e-77ce-a4bc-cad593922658","019db609-2a35-76b9-807a-e0c4c153f4bb","","null","<div style=""font-family: Arial; margin-bottom: 20px;""><h3>Which image is worth <b>more money?</h3></div>
                            <div class=""stimulus-container"" style=""display: flex; width: 800px; justify-content: center; gap: 30px;"">
                                <img src=""images/schematic_sequence/supermarket_scheme/supermarket_scheme_4.png"" class=""small-image"">
                                <img src=""images/semantic_sequence/self_care_activities_semantic/self_care_activities_semantic_7.png"" class=""small-image"">
                            </div>","null","","","","","","","","","",""
"","","","","","html-button-response","102","373111","0.0-72.0-1.0","06B376D9913647B39A08A4FB720BF2D1","019db62b-0b8e-77ce-a4bc-cad593922658","019db609-2a35-76b9-807a-e0c4c153f4bb","","666","<div style=""font-family: Arial; margin-bottom: 20px;""><h3>Which image is worth <b>more money</b>?</h3></div>
                            <div class=""stimulus-container"" style=""display: flex; width: 800px; justify-content: center; gap: 30px;"">
                                <img src=""images/schematic_sequence/supermarket_scheme/supermarket_scheme_4.png"" class=""small-image"">
                                <img src=""images/semantic_sequence/self_care_activities_semantic/self_care_activities_semantic_7.png"" class=""small-image"">
                            </div>","1","part3_valuable_vs_neutral_direct","","","","","","","","","false"
"","","","","","html-keyboard-response","103","376113","0.0-73.0-0.0","06B376D9913647B39A08A4FB720BF2D1","019db62b-0b8e-77ce-a4bc-cad593922658","019db609-2a35-76b9-807a-e0c4c153f4bb","","null","
                            <div style=""font-family: Arial; margin-bottom: 20px;""><h3>Which image is worth <b>more money</b>?</h3></div>
                            <div class=""stimulus-container"" style=""display: flex; width: 800px; justify-content: center; gap: 30px;"">
                                <img src=""images/schematic_sequence/flight_scheme/flight_scheme_6.png"" class=""small-image"">
                                <img src=""images/schematic_sequence/flight_scheme/flight_scheme_8.png"" class=""small-image"">
                            </div>","null","","","","","","","","","",""
"","","","","","html-button-response","104","376727","0.0-73.0-1.0","06B376D9913647B39A08A4FB720BF2D1","019db62b-0b8e-77ce-a4bc-cad593922658","019db609-2a35-76b9-807a-e0c4c153f4bb","","612","
                            <div style=""font-family: Arial; margin-bottom: 20px;""><h3>Which image is worth <b>more money</b>?</h3></div>
                            <div class=""stimulus-container"" style=""display: flex; width: 800px; justify-content: center; gap: 30px;"">
                                <img src=""images/schematic_sequence/flight_scheme/flight_scheme_6.png"" class=""small-image"">
                                <img src=""images/schematic_sequence/flight_scheme/flight_scheme_8.png"" class=""small-image"">
                            </div>","0","part3_choice_neighbors","flight_scheme","schematic_sequence","","","1","7","6","0",""
"","","","","","html-keyboard-response","105","379730","0.0-74.0-0.0","06B376D9913647B39A08A4FB720BF2D1","019db62b-0b8e-77ce-a4bc-cad593922658","019db609-2a35-76b9-807a-e0c4c153f4bb","","null","<div style=""font-family: Arial; margin-bottom: 20px;""><h3>Which image is worth <b>more money?</h3></div>
                            <div class=""stimulus-container"" style=""display: flex; width: 800px; justify-content: center; gap: 30px;"">
                                <img src=""images/schematic_sequence/hotel_scheme/hotel_scheme_5.png"" class=""small-image"">
                                <img src=""images/schematic_sequence/dinner_party_scheme/dinner_party_scheme_6.png"" class=""small-image"">
                            </div>","null","","","","","","","","","",""
"","","","","","html-button-response","106","380394","0.0-74.0-1.0","06B376D9913647B39A08A4FB720BF2D1","019db62b-0b8e-77ce-a4bc-cad593922658","019db609-2a35-76b9-807a-e0c4c153f4bb","","663","<div style=""font-family: Arial; margin-bottom: 20px;""><h3>Which image is worth <b>more money</b>?</h3></div>
                            <div class=""stimulus-container"" style=""display: flex; width: 800px; justify-content: center; gap: 30px;"">
                                <img src=""images/schematic_sequence/hotel_scheme/hotel_scheme_5.png"" class=""small-image"">
                                <img src=""images/schematic_sequence/dinner_party_scheme/dinner_party_scheme_6.png"" class=""small-image"">
                            </div>","0","part3_valuable_vs_neutral_direct","","","","","","","","","false"
"","","","","","html-keyboard-response","107","383397","0.0-75.0-0.0","06B376D9913647B39A08A4FB720BF2D1","019db62b-0b8e-77ce-a4bc-cad593922658","019db609-2a35-76b9-807a-e0c4c153f4bb","","null","
                            <div style=""font-family: Arial; margin-bottom: 20px;""><h3>Which image is worth <b>more money</b>?</h3></div>
                            <div class=""stimulus-container"" style=""display: flex; width: 800px; justify-content: center; gap: 30px;"">
                                <img src=""images/semantic_sequence/physical_activity_semantic/physical_activity_semantic_5.png"" class=""small-image"">
                                <img src=""images/semantic_sequence/physical_activity_semantic/physical_activity_semantic_7.png"" class=""small-image"">
                            </div>","null","","","","","","","","","",""
"","","","","","html-button-response","108","384194","0.0-75.0-1.0","06B376D9913647B39A08A4FB720BF2D1","019db62b-0b8e-77ce-a4bc-cad593922658","019db609-2a35-76b9-807a-e0c4c153f4bb","","795","
                            <div style=""font-family: Arial; margin-bottom: 20px;""><h3>Which image is worth <b>more money</b>?</h3></div>
                            <div class=""stimulus-container"" style=""display: flex; width: 800px; justify-content: center; gap: 30px;"">
                                <img src=""images/semantic_sequence/physical_activity_semantic/physical_activity_semantic_5.png"" class=""small-image"">
                                <img src=""images/semantic_sequence/physical_activity_semantic/physical_activity_semantic_7.png"" class=""small-image"">
                            </div>","1","part3_choice_neighbors","physical_activity_semantic","semantic_sequence","","","1","6","7","1",""
"","","","","","html-keyboard-response","109","387196","0.0-76.0-0.0","06B376D9913647B39A08A4FB720BF2D1","019db62b-0b8e-77ce-a4bc-cad593922658","019db609-2a35-76b9-807a-e0c4c153f4bb","","null","
                            <div style=""font-family: Arial; margin-bottom: 20px;""><h3>Which image is worth <b>more money</b>?</h3></div>
                            <div class=""stimulus-container"" style=""display: flex; width: 800px; justify-content: center; gap: 30px;"">
                                <img src=""images/semantic_sequence/visiting_cities_semantic/visiting_cities_semantic_3.png"" class=""small-image"">
                                <img src=""images/semantic_sequence/visiting_cities_semantic/visiting_cities_semantic_5.png"" class=""small-image"">
                            </div>","null","","","","","","","","","",""
"","","","","","html-button-response","110","387876","0.0-76.0-1.0","06B376D9913647B39A08A4FB720BF2D1","019db62b-0b8e-77ce-a4bc-cad593922658","019db609-2a35-76b9-807a-e0c4c153f4bb","","680","
                            <div style=""font-family: Arial; margin-bottom: 20px;""><h3>Which image is worth <b>more money</b>?</h3></div>
                            <div class=""stimulus-container"" style=""display: flex; width: 800px; justify-content: center; gap: 30px;"">
                                <img src=""images/semantic_sequence/visiting_cities_semantic/visiting_cities_semantic_3.png"" class=""small-image"">
                                <img src=""images/semantic_sequence/visiting_cities_semantic/visiting_cities_semantic_5.png"" class=""small-image"">
                            </div>","0","part3_choice_neighbors","visiting_cities_semantic","semantic_sequence","","","1","4","3","0",""
"","","","","","html-keyboard-response","111","390879","0.0-77.0-0.0","06B376D9913647B39A08A4FB720BF2D1","019db62b-0b8e-77ce-a4bc-cad593922658","019db609-2a35-76b9-807a-e0c4c153f4bb","","null","
                            <div style=""font-family: Arial; margin-bottom: 20px;""><h3>Which image is worth <b>more money</b>?</h3></div>
                            <div class=""stimulus-container"" style=""display: flex; width: 800px; justify-content: center; gap: 30px;"">
                                <img src=""images/semantic_sequence/kitchen_operations_semantic/kitchen_operations_semantic_7.png"" class=""small-image"">
                                <img src=""images/semantic_sequence/kitchen_operations_semantic/kitchen_operations_semantic_3.png"" class=""small-image"">
                            </div>","null","","","","","","","","","",""
"","","","","","html-button-response","112","391576","0.0-77.0-1.0","06B376D9913647B39A08A4FB720BF2D1","019db62b-0b8e-77ce-a4bc-cad593922658","019db609-2a35-76b9-807a-e0c4c153f4bb","","695","
                            <div style=""font-family: Arial; margin-bottom: 20px;""><h3>Which image is worth <b>more money</b>?</h3></div>
                            <div class=""stimulus-container"" style=""display: flex; width: 800px; justify-content: center; gap: 30px;"">
                                <img src=""images/semantic_sequence/kitchen_operations_semantic/kitchen_operations_semantic_7.png"" class=""small-image"">
                                <img src=""images/semantic_sequence/kitchen_operations_semantic/kitchen_operations_semantic_3.png"" class=""small-image"">
                            </div>","0","part3_choice_neighbors","kitchen_operations_semantic","semantic_sequence","","","2","5","7","1",""
"","","","","","html-keyboard-response","113","394578","0.0-78.0-0.0","06B376D9913647B39A08A4FB720BF2D1","019db62b-0b8e-77ce-a4bc-cad593922658","019db609-2a35-76b9-807a-e0c4c153f4bb","","null","
                            <div style=""font-family: Arial; margin-bottom: 20px;""><h3>Which image is worth <b>more money</b>?</h3></div>
                            <div class=""stimulus-container"" style=""display: flex; width: 800px; justify-content: center; gap: 30px;"">
                                <img src=""images/schematic_sequence/hotel_scheme/hotel_scheme_8.png"" class=""small-image"">
                                <img src=""images/schematic_sequence/hotel_scheme/hotel_scheme_2.png"" class=""small-image"">
                            </div>","null","","","","","","","","","",""
"","","","","","html-button-response","114","395178","0.0-78.0-1.0","06B376D9913647B39A08A4FB720BF2D1","019db62b-0b8e-77ce-a4bc-cad593922658","019db609-2a35-76b9-807a-e0c4c153f4bb","","599","
                            <div style=""font-family: Arial; margin-bottom: 20px;""><h3>Which image is worth <b>more money</b>?</h3></div>
                            <div class=""stimulus-container"" style=""display: flex; width: 800px; justify-content: center; gap: 30px;"">
                                <img src=""images/schematic_sequence/hotel_scheme/hotel_scheme_8.png"" class=""small-image"">
                                <img src=""images/schematic_sequence/hotel_scheme/hotel_scheme_2.png"" class=""small-image"">
                            </div>","0","part3_choice_neighbors","hotel_scheme","schematic_sequence","","","3","5","8","1",""
"","","","","","html-keyboard-response","115","398180","0.0-79.0-0.0","06B376D9913647B39A08A4FB720BF2D1","019db62b-0b8e-77ce-a4bc-cad593922658","019db609-2a35-76b9-807a-e0c4c153f4bb","","null","
                            <div style=""font-family: Arial; margin-bottom: 20px;""><h3>Which image is worth <b>more money</b>?</h3></div>
                            <div class=""stimulus-container"" style=""display: flex; width: 800px; justify-content: center; gap: 30px;"">
                                <img src=""images/semantic_sequence/visiting_cities_semantic/visiting_cities_semantic_1.png"" class=""small-image"">
                                <img src=""images/semantic_sequence/visiting_cities_semantic/visiting_cities_semantic_7.png"" class=""small-image"">
                            </div>","null","","","","","","","","","",""
"","","","","","html-button-response","116","398861","0.0-79.0-1.0","06B376D9913647B39A08A4FB720BF2D1","019db62b-0b8e-77ce-a4bc-cad593922658","019db609-2a35-76b9-807a-e0c4c153f4bb","","678","
                            <div style=""font-family: Arial; margin-bottom: 20px;""><h3>Which image is worth <b>more money</b>?</h3></div>
                            <div class=""stimulus-container"" style=""display: flex; width: 800px; justify-content: center; gap: 30px;"">
                                <img src=""images/semantic_sequence/visiting_cities_semantic/visiting_cities_semantic_1.png"" class=""small-image"">
                                <img src=""images/semantic_sequence/visiting_cities_semantic/visiting_cities_semantic_7.png"" class=""small-image"">
                            </div>","0","part3_choice_neighbors","visiting_cities_semantic","semantic_sequence","","","3","4","1","0",""
"","","","","","html-keyboard-response","117","401864","0.0-80.0-0.0","06B376D9913647B39A08A4FB720BF2D1","019db62b-0b8e-77ce-a4bc-cad593922658","019db609-2a35-76b9-807a-e0c4c153f4bb","","null","<div style=""font-family: Arial; margin-bottom: 20px;""><h3>Which image is worth <b>more money?</h3></div>
                            <div class=""stimulus-container"" style=""display: flex; width: 800px; justify-content: center; gap: 30px;"">
                                <img src=""images/semantic_sequence/physical_activity_semantic/physical_activity_semantic_6.png"" class=""small-image"">
                                <img src=""images/semantic_sequence/housework_semantic/housework_semantic_6.png"" class=""small-image"">
                            </div>","null","","","","","","","","","",""
"","","","","","html-button-response","118","403260","0.0-80.0-1.0","06B376D9913647B39A08A4FB720BF2D1","019db62b-0b8e-77ce-a4bc-cad593922658","019db609-2a35-76b9-807a-e0c4c153f4bb","","1395","<div style=""font-family: Arial; margin-bottom: 20px;""><h3>Which image is worth <b>more money</b>?</h3></div>
                            <div class=""stimulus-container"" style=""display: flex; width: 800px; justify-content: center; gap: 30px;"">
                                <img src=""images/semantic_sequence/physical_activity_semantic/physical_activity_semantic_6.png"" class=""small-image"">
                                <img src=""images/semantic_sequence/housework_semantic/housework_semantic_6.png"" class=""small-image"">
                            </div>","0","part3_valuable_vs_neutral_direct","","","","","","","","","true"
"","","","","","html-keyboard-response","119","406263","0.0-81.0-0.0","06B376D9913647B39A08A4FB720BF2D1","019db62b-0b8e-77ce-a4bc-cad593922658","019db609-2a35-76b9-807a-e0c4c153f4bb","","null","
                            <div style=""font-family: Arial; margin-bottom: 20px;""><h3>Which image is worth <b>more money</b>?</h3></div>
                            <div class=""stimulus-container"" style=""display: flex; width: 800px; justify-content: center; gap: 30px;"">
                                <img src=""images/schematic_sequence/restaurant_scheme/restaurant_scheme_3.png"" class=""small-image"">
                                <img src=""images/schematic_sequence/restaurant_scheme/restaurant_scheme_7.png"" class=""small-image"">
                            </div>","null","","","","","","","","","",""
"","","","","","html-button-response","120","406944","0.0-81.0-1.0","06B376D9913647B39A08A4FB720BF2D1","019db62b-0b8e-77ce-a4bc-cad593922658","019db609-2a35-76b9-807a-e0c4c153f4bb","","679","
                            <div style=""font-family: Arial; margin-bottom: 20px;""><h3>Which image is worth <b>more money</b>?</h3></div>
                            <div class=""stimulus-container"" style=""display: flex; width: 800px; justify-content: center; gap: 30px;"">
                                <img src=""images/schematic_sequence/restaurant_scheme/restaurant_scheme_3.png"" class=""small-image"">
                                <img src=""images/schematic_sequence/restaurant_scheme/restaurant_scheme_7.png"" class=""small-image"">
                            </div>","1","part3_choice_neighbors","restaurant_scheme","schematic_sequence","","","2","5","7","1",""
"","","","","","html-keyboard-response","121","409946","0.0-82.0-0.0","06B376D9913647B39A08A4FB720BF2D1","019db62b-0b8e-77ce-a4bc-cad593922658","019db609-2a35-76b9-807a-e0c4c153f4bb","","null","<div style=""font-family: Arial; margin-bottom: 20px;""><h3>Which image is worth <b>more money?</h3></div>
                            <div class=""stimulus-container"" style=""display: flex; width: 800px; justify-content: center; gap: 30px;"">
                                <img src=""images/schematic_sequence/interview_scheme/interview_scheme_4.png"" class=""small-image"">
                                <img src=""images/semantic_sequence/visiting_cities_semantic/visiting_cities_semantic_4.png"" class=""small-image"">
                            </div>","null","","","","","","","","","",""
"","","","","","html-button-response","122","410661","0.0-82.0-1.0","06B376D9913647B39A08A4FB720BF2D1","019db62b-0b8e-77ce-a4bc-cad593922658","019db609-2a35-76b9-807a-e0c4c153f4bb","","714","<div style=""font-family: Arial; margin-bottom: 20px;""><h3>Which image is worth <b>more money</b>?</h3></div>
                            <div class=""stimulus-container"" style=""display: flex; width: 800px; justify-content: center; gap: 30px;"">
                                <img src=""images/schematic_sequence/interview_scheme/interview_scheme_4.png"" class=""small-image"">
                                <img src=""images/semantic_sequence/visiting_cities_semantic/visiting_cities_semantic_4.png"" class=""small-image"">
                            </div>","1","part3_valuable_vs_neutral_direct","","","","","","","","","true"
"","","","","","html-keyboard-response","123","413665","0.0-83.0-0.0","06B376D9913647B39A08A4FB720BF2D1","019db62b-0b8e-77ce-a4bc-cad593922658","019db609-2a35-76b9-807a-e0c4c153f4bb","","null","<div style=""font-family: Arial; margin-bottom: 20px;""><h3>Which image is worth <b>more money?</h3></div>
                            <div class=""stimulus-container"" style=""display: flex; width: 800px; justify-content: center; gap: 30px;"">
                                <img src=""images/schematic_sequence/restaurant_scheme/restaurant_scheme_5.png"" class=""small-image"">
                                <img src=""images/semantic_sequence/maintaining_a_car_semantic/maintaining_a_car_semantic_6.png"" class=""small-image"">
                            </div>","null","","","","","","","","","",""
"","","","","","html-button-response","124","414211","0.0-83.0-1.0","06B376D9913647B39A08A4FB720BF2D1","019db62b-0b8e-77ce-a4bc-cad593922658","019db609-2a35-76b9-807a-e0c4c153f4bb","","543","<div style=""font-family: Arial; margin-bottom: 20px;""><h3>Which image is worth <b>more money</b>?</h3></div>
                            <div class=""stimulus-container"" style=""display: flex; width: 800px; justify-content: center; gap: 30px;"">
                                <img src=""images/schematic_sequence/restaurant_scheme/restaurant_scheme_5.png"" class=""small-image"">
                                <img src=""images/semantic_sequence/maintaining_a_car_semantic/maintaining_a_car_semantic_6.png"" class=""small-image"">
                            </div>","0","part3_valuable_vs_neutral_direct","","","","","","","","","true"
"","","","","","html-keyboard-response","125","417212","0.0-84.0-0.0","06B376D9913647B39A08A4FB720BF2D1","019db62b-0b8e-77ce-a4bc-cad593922658","019db609-2a35-76b9-807a-e0c4c153f4bb","","null","
                            <div style=""font-family: Arial; margin-bottom: 20px;""><h3>Which image is worth <b>more money</b>?</h3></div>
                            <div class=""stimulus-container"" style=""display: flex; width: 800px; justify-content: center; gap: 30px;"">
                                <img src=""images/semantic_sequence/housework_semantic/housework_semantic_3.png"" class=""small-image"">
                                <img src=""images/semantic_sequence/housework_semantic/housework_semantic_9.png"" class=""small-image"">
                            </div>","null","","","","","","","","","",""
"","","","","","html-button-response","126","417792","0.0-84.0-1.0","06B376D9913647B39A08A4FB720BF2D1","019db62b-0b8e-77ce-a4bc-cad593922658","019db609-2a35-76b9-807a-e0c4c153f4bb","","578","
                            <div style=""font-family: Arial; margin-bottom: 20px;""><h3>Which image is worth <b>more money</b>?</h3></div>
                            <div class=""stimulus-container"" style=""display: flex; width: 800px; justify-content: center; gap: 30px;"">
                                <img src=""images/semantic_sequence/housework_semantic/housework_semantic_3.png"" class=""small-image"">
                                <img src=""images/semantic_sequence/housework_semantic/housework_semantic_9.png"" class=""small-image"">
                            </div>","1","part3_choice_neighbors","housework_semantic","semantic_sequence","","","3","6","9","1",""
"","","","","","survey-text","127","442011","0.0-85.0","06B376D9913647B39A08A4FB720BF2D1","019db62b-0b8e-77ce-a4bc-cad593922658","019db609-2a35-76b9-807a-e0c4c153f4bb","","24197","","{""gender"":""female"",""age"":""34"",""decision_strategy"":""tried to remember what I had seen and also used my instincts"",""consistency_check"":""yes, I tried to""}","demographics_and_strategy","","","","","","","","",""
"","","","","","instructions","128","447077","0.0-86.0","06B376D9913647B39A08A4FB720BF2D1","019db62b-0b8e-77ce-a4bc-cad593922658","019db609-2a35-76b9-807a-e0c4c153f4bb","[{""page_index"":0,""viewing_time"":5065}]","5065","","","","","","","","","","","",""
