"success","timeout","failed_images","failed_audio","failed_video","trial_type","trial_index","time_elapsed","internal_node_id","subject_id","study_id","session_id","view_history","rt","stimulus","response","task","image_index","folder","valuable_image_index","valuable_X","chosen_image_index","distance_from_X"
"false","false","[]","[]","[]","preload","0","18183","0.0-0.0","3D2DB2CE66AF4513A1DF345A9F5C1C1F","019ce7a9-dfdb-713d-886c-739c136c208f","019ce7a0-0965-7aa7-a556-174d32a8e773","","","","","","","","","","",""
"","","","","","instructions","1","28063","0.0-1.0","3D2DB2CE66AF4513A1DF345A9F5C1C1F","019ce7a9-dfdb-713d-886c-739c136c208f","019ce7a0-0965-7aa7-a556-174d32a8e773","[{""page_index"":0,""viewing_time"":9878}]","9879","","","","","","","","",""
"","","","","","instructions","2","33219","0.0-2.0","3D2DB2CE66AF4513A1DF345A9F5C1C1F","019ce7a9-dfdb-713d-886c-739c136c208f","019ce7a0-0965-7aa7-a556-174d32a8e773","[{""page_index"":0,""viewing_time"":5155}]","5155","","","","","","","","",""
"true","","","","","fullscreen","3","36274","0.0-3.0","3D2DB2CE66AF4513A1DF345A9F5C1C1F","019ce7a9-dfdb-713d-886c-739c136c208f","019ce7a0-0965-7aa7-a556-174d32a8e773","","2037","","","","","","","","",""
"","","","","","instructions","4","38788","0.0-4.0","3D2DB2CE66AF4513A1DF345A9F5C1C1F","019ce7a9-dfdb-713d-886c-739c136c208f","019ce7a0-0965-7aa7-a556-174d32a8e773","[{""page_index"":0,""viewing_time"":2511}]","2512","","","","","","","","",""
"","","","","","instructions","5","50374","0.0-5.0","3D2DB2CE66AF4513A1DF345A9F5C1C1F","019ce7a9-dfdb-713d-886c-739c136c208f","019ce7a0-0965-7aa7-a556-174d32a8e773","[{""page_index"":0,""viewing_time"":11584}]","11584","","","","","","","","",""
"","","","","","html-keyboard-response","6","54380","0.0-6.0","3D2DB2CE66AF4513A1DF345A9F5C1C1F","019ce7a9-dfdb-713d-886c-739c136c208f","019ce7a0-0965-7aa7-a556-174d32a8e773","","null","
                <div class=""stimulus-container"">
                    <img src=""images/instructions/movie_1.png"" class=""exp-image"">
                    <div class=""question-area""></div> 
                </div>","null","","","","","","",""
"","","","","","html-button-response","7","57390","0.0-7.0","3D2DB2CE66AF4513A1DF345A9F5C1C1F","019ce7a9-dfdb-713d-886c-739c136c208f","019ce7a0-0965-7aa7-a556-174d32a8e773","","null","
                <div class=""stimulus-container"">
                    <img src=""images/instructions/movie_1.png"" class=""exp-image"">
                    <div class=""question-area"">
                        <p style=""font-size: 20px; font-weight: bold; margin: 0;"">Was there a person in this image?</p>
                    </div>
                </div>","null","example_question","1","","","","",""
"","","","","","html-keyboard-response","8","61397","0.0-8.0","3D2DB2CE66AF4513A1DF345A9F5C1C1F","019ce7a9-dfdb-713d-886c-739c136c208f","019ce7a0-0965-7aa7-a556-174d32a8e773","","null","
                <div class=""stimulus-container"">
                    <img src=""images/instructions/movie_2.png"" class=""exp-image"">
                    <div class=""question-area""></div> 
                </div>","null","","","","","","",""
"","","","","","html-button-response","9","64407","0.0-9.0","3D2DB2CE66AF4513A1DF345A9F5C1C1F","019ce7a9-dfdb-713d-886c-739c136c208f","019ce7a0-0965-7aa7-a556-174d32a8e773","","null","
                <div class=""stimulus-container"">
                    <img src=""images/instructions/movie_2.png"" class=""exp-image"">
                    <div class=""question-area"">
                        <p style=""font-size: 20px; font-weight: bold; margin: 0;"">Was there a person in this image?</p>
                    </div>
                </div>","null","example_question","2","","","","",""
"","","","","","html-keyboard-response","10","68409","0.0-10.0","3D2DB2CE66AF4513A1DF345A9F5C1C1F","019ce7a9-dfdb-713d-886c-739c136c208f","019ce7a0-0965-7aa7-a556-174d32a8e773","","null","
                <div class=""stimulus-container"">
                    <img src=""images/instructions/movie_3.png"" class=""exp-image"">
                    <div class=""question-area""></div> 
                </div>","null","","","","","","",""
"","","","","","html-button-response","11","69811","0.0-11.0","3D2DB2CE66AF4513A1DF345A9F5C1C1F","019ce7a9-dfdb-713d-886c-739c136c208f","019ce7a0-0965-7aa7-a556-174d32a8e773","","1400","
                <div class=""stimulus-container"">
                    <img src=""images/instructions/movie_3.png"" class=""exp-image"">
                    <div class=""question-area"">
                        <p style=""font-size: 20px; font-weight: bold; margin: 0;"">Was there a person in this image?</p>
                    </div>
                </div>","0","example_question","3","","","","",""
"","","","","","html-keyboard-response","12","73820","0.0-12.0","3D2DB2CE66AF4513A1DF345A9F5C1C1F","019ce7a9-dfdb-713d-886c-739c136c208f","019ce7a0-0965-7aa7-a556-174d32a8e773","","null","
                <div class=""stimulus-container"">
                    <img src=""images/instructions/movie_4.png"" class=""exp-image"">
                    <div class=""question-area""></div> 
                </div>","null","","","","","","",""
"","","","","","html-button-response","13","75074","0.0-13.0","3D2DB2CE66AF4513A1DF345A9F5C1C1F","019ce7a9-dfdb-713d-886c-739c136c208f","019ce7a0-0965-7aa7-a556-174d32a8e773","","1253","
                <div class=""stimulus-container"">
                    <img src=""images/instructions/movie_4.png"" class=""exp-image"">
                    <div class=""question-area"">
                        <p style=""font-size: 20px; font-weight: bold; margin: 0;"">Was there a person in this image?</p>
                    </div>
                </div>","0","example_question","4","","","","",""
"","","","","","instructions","14","78170","0.0-14.0","3D2DB2CE66AF4513A1DF345A9F5C1C1F","019ce7a9-dfdb-713d-886c-739c136c208f","019ce7a0-0965-7aa7-a556-174d32a8e773","[{""page_index"":0,""viewing_time"":3094}]","3095","","","","","","","","",""
"","","","","","html-keyboard-response","15","79174","0.0-15.0","3D2DB2CE66AF4513A1DF345A9F5C1C1F","019ce7a9-dfdb-713d-886c-739c136c208f","019ce7a0-0965-7aa7-a556-174d32a8e773","","null","<div style=""background-color: gray; width: 100vw; height: 100vh;""></div>","null","","","","","","",""
"","","","","","html-keyboard-response","16","84178","0.0-16.0","3D2DB2CE66AF4513A1DF345A9F5C1C1F","019ce7a9-dfdb-713d-886c-739c136c208f","019ce7a0-0965-7aa7-a556-174d32a8e773","","null","
                    <div class=""stimulus-container"">
                        <img src=""images/causal_sequence/museum_causal/museum_causal_1.png"" class=""exp-image"">
                        <div class=""question-area""></div> 
                    </div>","null","","","","","","",""
"","","","","","html-button-response","17","85810","0.0-17.0","3D2DB2CE66AF4513A1DF345A9F5C1C1F","019ce7a9-dfdb-713d-886c-739c136c208f","019ce7a0-0965-7aa7-a556-174d32a8e773","","1628","
                    <div class=""stimulus-container"">
                        <img src=""images/causal_sequence/museum_causal/museum_causal_1.png"" class=""exp-image"">
                        <div class=""question-area"">
                            <p style=""font-size: 20px; font-weight: bold; margin: 0;"">Is there a person in this image?</p>
                        </div>
                    </div>","0","main_causal_task","1","museum_causal","","","",""
"","","","","","html-keyboard-response","18","90816","0.0-18.0","3D2DB2CE66AF4513A1DF345A9F5C1C1F","019ce7a9-dfdb-713d-886c-739c136c208f","019ce7a0-0965-7aa7-a556-174d32a8e773","","null","
                    <div class=""stimulus-container"">
                        <img src=""images/causal_sequence/museum_causal/museum_causal_2.png"" class=""exp-image"">
                        <div class=""question-area""></div> 
                    </div>","null","","","","","","",""
"","","","","","html-button-response","19","92461","0.0-19.0","3D2DB2CE66AF4513A1DF345A9F5C1C1F","019ce7a9-dfdb-713d-886c-739c136c208f","019ce7a0-0965-7aa7-a556-174d32a8e773","","1642","
                    <div class=""stimulus-container"">
                        <img src=""images/causal_sequence/museum_causal/museum_causal_2.png"" class=""exp-image"">
                        <div class=""question-area"">
                            <p style=""font-size: 20px; font-weight: bold; margin: 0;"">Is there a person in this image?</p>
                        </div>
                    </div>","1","main_causal_task","2","museum_causal","","","",""
"","","","","","html-keyboard-response","20","97471","0.0-20.0","3D2DB2CE66AF4513A1DF345A9F5C1C1F","019ce7a9-dfdb-713d-886c-739c136c208f","019ce7a0-0965-7aa7-a556-174d32a8e773","","null","
                    <div class=""stimulus-container"">
                        <img src=""images/causal_sequence/museum_causal/museum_causal_3.png"" class=""exp-image"">
                        <div class=""question-area""></div> 
                    </div>","null","","","","","","",""
"","","","","","html-button-response","21","98397","0.0-21.0","3D2DB2CE66AF4513A1DF345A9F5C1C1F","019ce7a9-dfdb-713d-886c-739c136c208f","019ce7a0-0965-7aa7-a556-174d32a8e773","","923","
                    <div class=""stimulus-container"">
                        <img src=""images/causal_sequence/museum_causal/museum_causal_3.png"" class=""exp-image"">
                        <div class=""question-area"">
                            <p style=""font-size: 20px; font-weight: bold; margin: 0;"">Is there a person in this image?</p>
                        </div>
                    </div>","0","main_causal_task","3","museum_causal","","","",""
"","","","","","html-keyboard-response","22","103414","0.0-22.0","3D2DB2CE66AF4513A1DF345A9F5C1C1F","019ce7a9-dfdb-713d-886c-739c136c208f","019ce7a0-0965-7aa7-a556-174d32a8e773","","null","
                    <div class=""stimulus-container"">
                        <img src=""images/causal_sequence/museum_causal/museum_causal_4.png"" class=""exp-image"">
                        <div class=""question-area""></div> 
                    </div>","null","","","","","","",""
"","","","","","html-button-response","23","104139","0.0-23.0","3D2DB2CE66AF4513A1DF345A9F5C1C1F","019ce7a9-dfdb-713d-886c-739c136c208f","019ce7a0-0965-7aa7-a556-174d32a8e773","","722","
                    <div class=""stimulus-container"">
                        <img src=""images/causal_sequence/museum_causal/museum_causal_4.png"" class=""exp-image"">
                        <div class=""question-area"">
                            <p style=""font-size: 20px; font-weight: bold; margin: 0;"">Is there a person in this image?</p>
                        </div>
                    </div>","1","main_causal_task","4","museum_causal","","","",""
"","","","","","html-keyboard-response","24","109149","0.0-24.0","3D2DB2CE66AF4513A1DF345A9F5C1C1F","019ce7a9-dfdb-713d-886c-739c136c208f","019ce7a0-0965-7aa7-a556-174d32a8e773","","null","
                    <div class=""stimulus-container"">
                        <img src=""images/causal_sequence/museum_causal/museum_causal_5.png"" class=""exp-image"">
                        <div class=""question-area""></div> 
                    </div>","null","","","","","","",""
"","","","","","html-button-response","25","110414","0.0-25.0","3D2DB2CE66AF4513A1DF345A9F5C1C1F","019ce7a9-dfdb-713d-886c-739c136c208f","019ce7a0-0965-7aa7-a556-174d32a8e773","","1261","
                    <div class=""stimulus-container"">
                        <img src=""images/causal_sequence/museum_causal/museum_causal_5.png"" class=""exp-image"">
                        <div class=""question-area"">
                            <p style=""font-size: 20px; font-weight: bold; margin: 0;"">Is there a person in this image?</p>
                        </div>
                    </div>","0","main_causal_task","5","museum_causal","","","",""
"","","","","","html-keyboard-response","26","115415","0.0-26.0","3D2DB2CE66AF4513A1DF345A9F5C1C1F","019ce7a9-dfdb-713d-886c-739c136c208f","019ce7a0-0965-7aa7-a556-174d32a8e773","","null","
                    <div class=""stimulus-container"">
                        <img src=""images/causal_sequence/museum_causal/museum_causal_6.png"" class=""exp-image"">
                        <div class=""question-area""></div> 
                    </div>","null","","","","","","",""
"","","","","","html-button-response","27","116208","0.0-27.0","3D2DB2CE66AF4513A1DF345A9F5C1C1F","019ce7a9-dfdb-713d-886c-739c136c208f","019ce7a0-0965-7aa7-a556-174d32a8e773","","790","
                    <div class=""stimulus-container"">
                        <img src=""images/causal_sequence/museum_causal/museum_causal_6.png"" class=""exp-image"">
                        <div class=""question-area"">
                            <p style=""font-size: 20px; font-weight: bold; margin: 0;"">Is there a person in this image?</p>
                        </div>
                    </div>","0","main_causal_task","6","museum_causal","","","",""
"","","","","","html-keyboard-response","28","121224","0.0-28.0","3D2DB2CE66AF4513A1DF345A9F5C1C1F","019ce7a9-dfdb-713d-886c-739c136c208f","019ce7a0-0965-7aa7-a556-174d32a8e773","","null","
                    <div class=""stimulus-container"">
                        <img src=""images/causal_sequence/museum_causal/museum_causal_7.png"" class=""exp-image"">
                        <div class=""question-area""></div> 
                    </div>","null","","","","","","",""
"","","","","","html-button-response","29","122144","0.0-29.0","3D2DB2CE66AF4513A1DF345A9F5C1C1F","019ce7a9-dfdb-713d-886c-739c136c208f","019ce7a0-0965-7aa7-a556-174d32a8e773","","917","
                    <div class=""stimulus-container"">
                        <img src=""images/causal_sequence/museum_causal/museum_causal_7.png"" class=""exp-image"">
                        <div class=""question-area"">
                            <p style=""font-size: 20px; font-weight: bold; margin: 0;"">Is there a person in this image?</p>
                        </div>
                    </div>","1","main_causal_task","7","museum_causal","","","",""
"","","","","","html-keyboard-response","30","127153","0.0-30.0","3D2DB2CE66AF4513A1DF345A9F5C1C1F","019ce7a9-dfdb-713d-886c-739c136c208f","019ce7a0-0965-7aa7-a556-174d32a8e773","","null","
                    <div class=""stimulus-container"">
                        <img src=""images/causal_sequence/museum_causal/museum_causal_8.png"" class=""exp-image"">
                        <div class=""question-area""></div> 
                    </div>","null","","","","","","",""
"","","","","","html-button-response","31","129589","0.0-31.0","3D2DB2CE66AF4513A1DF345A9F5C1C1F","019ce7a9-dfdb-713d-886c-739c136c208f","019ce7a0-0965-7aa7-a556-174d32a8e773","","2434","
                    <div class=""stimulus-container"">
                        <img src=""images/causal_sequence/museum_causal/museum_causal_8.png"" class=""exp-image"">
                        <div class=""question-area"">
                            <p style=""font-size: 20px; font-weight: bold; margin: 0;"">Is there a person in this image?</p>
                        </div>
                    </div>","0","main_causal_task","8","museum_causal","","","",""
"","","","","","html-keyboard-response","32","134596","0.0-32.0","3D2DB2CE66AF4513A1DF345A9F5C1C1F","019ce7a9-dfdb-713d-886c-739c136c208f","019ce7a0-0965-7aa7-a556-174d32a8e773","","null","
                    <div class=""stimulus-container"">
                        <img src=""images/causal_sequence/museum_causal/museum_causal_9.png"" class=""exp-image"">
                        <div class=""question-area""></div> 
                    </div>","null","","","","","","",""
"","","","","","html-button-response","33","135913","0.0-33.0","3D2DB2CE66AF4513A1DF345A9F5C1C1F","019ce7a9-dfdb-713d-886c-739c136c208f","019ce7a0-0965-7aa7-a556-174d32a8e773","","1315","
                    <div class=""stimulus-container"">
                        <img src=""images/causal_sequence/museum_causal/museum_causal_9.png"" class=""exp-image"">
                        <div class=""question-area"">
                            <p style=""font-size: 20px; font-weight: bold; margin: 0;"">Is there a person in this image?</p>
                        </div>
                    </div>","1","main_causal_task","9","museum_causal","","","",""
"","","","","","html-keyboard-response","34","136924","0.0-34.0","3D2DB2CE66AF4513A1DF345A9F5C1C1F","019ce7a9-dfdb-713d-886c-739c136c208f","019ce7a0-0965-7aa7-a556-174d32a8e773","","null","<div style=""background-color: gray; width: 100vw; height: 100vh;""></div>","null","","","","","","",""
"","","","","","html-keyboard-response","35","141929","0.0-35.0","3D2DB2CE66AF4513A1DF345A9F5C1C1F","019ce7a9-dfdb-713d-886c-739c136c208f","019ce7a0-0965-7aa7-a556-174d32a8e773","","null","
                    <div class=""stimulus-container"">
                        <img src=""images/causal_sequence/the_performance_causal/the_performance_causal_1.png"" class=""exp-image"">
                        <div class=""question-area""></div> 
                    </div>","null","","","","","","",""
"","","","","","html-button-response","36","143157","0.0-36.0","3D2DB2CE66AF4513A1DF345A9F5C1C1F","019ce7a9-dfdb-713d-886c-739c136c208f","019ce7a0-0965-7aa7-a556-174d32a8e773","","1224","
                    <div class=""stimulus-container"">
                        <img src=""images/causal_sequence/the_performance_causal/the_performance_causal_1.png"" class=""exp-image"">
                        <div class=""question-area"">
                            <p style=""font-size: 20px; font-weight: bold; margin: 0;"">Is there a person in this image?</p>
                        </div>
                    </div>","0","main_causal_task","1","the_performance_causal","","","",""
"","","","","","html-keyboard-response","37","148168","0.0-37.0","3D2DB2CE66AF4513A1DF345A9F5C1C1F","019ce7a9-dfdb-713d-886c-739c136c208f","019ce7a0-0965-7aa7-a556-174d32a8e773","","null","
                    <div class=""stimulus-container"">
                        <img src=""images/causal_sequence/the_performance_causal/the_performance_causal_2.png"" class=""exp-image"">
                        <div class=""question-area""></div> 
                    </div>","null","","","","","","",""
"","","","","","html-button-response","38","149078","0.0-38.0","3D2DB2CE66AF4513A1DF345A9F5C1C1F","019ce7a9-dfdb-713d-886c-739c136c208f","019ce7a0-0965-7aa7-a556-174d32a8e773","","908","
                    <div class=""stimulus-container"">
                        <img src=""images/causal_sequence/the_performance_causal/the_performance_causal_2.png"" class=""exp-image"">
                        <div class=""question-area"">
                            <p style=""font-size: 20px; font-weight: bold; margin: 0;"">Is there a person in this image?</p>
                        </div>
                    </div>","0","main_causal_task","2","the_performance_causal","","","",""
"","","","","","html-keyboard-response","39","154087","0.0-39.0","3D2DB2CE66AF4513A1DF345A9F5C1C1F","019ce7a9-dfdb-713d-886c-739c136c208f","019ce7a0-0965-7aa7-a556-174d32a8e773","","null","
                    <div class=""stimulus-container"">
                        <img src=""images/causal_sequence/the_performance_causal/the_performance_causal_3.png"" class=""exp-image"">
                        <div class=""question-area""></div> 
                    </div>","null","","","","","","",""
"","","","","","html-button-response","40","154330","0.0-40.0","3D2DB2CE66AF4513A1DF345A9F5C1C1F","019ce7a9-dfdb-713d-886c-739c136c208f","019ce7a0-0965-7aa7-a556-174d32a8e773","","241","
                    <div class=""stimulus-container"">
                        <img src=""images/causal_sequence/the_performance_causal/the_performance_causal_3.png"" class=""exp-image"">
                        <div class=""question-area"">
                            <p style=""font-size: 20px; font-weight: bold; margin: 0;"">Is there a person in this image?</p>
                        </div>
                    </div>","0","main_causal_task","3","the_performance_causal","","","",""
"","","","","","html-keyboard-response","41","159344","0.0-41.0","3D2DB2CE66AF4513A1DF345A9F5C1C1F","019ce7a9-dfdb-713d-886c-739c136c208f","019ce7a0-0965-7aa7-a556-174d32a8e773","","null","
                    <div class=""stimulus-container"">
                        <img src=""images/causal_sequence/the_performance_causal/the_performance_causal_4.png"" class=""exp-image"">
                        <div class=""question-area""></div> 
                    </div>","null","","","","","","",""
"","","","","","html-button-response","42","161775","0.0-42.0","3D2DB2CE66AF4513A1DF345A9F5C1C1F","019ce7a9-dfdb-713d-886c-739c136c208f","019ce7a0-0965-7aa7-a556-174d32a8e773","","2428","
                    <div class=""stimulus-container"">
                        <img src=""images/causal_sequence/the_performance_causal/the_performance_causal_4.png"" class=""exp-image"">
                        <div class=""question-area"">
                            <p style=""font-size: 20px; font-weight: bold; margin: 0;"">Is there a person in this image?</p>
                        </div>
                    </div>","0","main_causal_task","4","the_performance_causal","","","",""
"","","","","","html-keyboard-response","43","166790","0.0-43.0","3D2DB2CE66AF4513A1DF345A9F5C1C1F","019ce7a9-dfdb-713d-886c-739c136c208f","019ce7a0-0965-7aa7-a556-174d32a8e773","","null","
                    <div class=""stimulus-container"">
                        <img src=""images/causal_sequence/the_performance_causal/the_performance_causal_5.png"" class=""exp-image"">
                        <div class=""question-area""></div> 
                    </div>","null","","","","","","",""
"","","","","","html-button-response","44","169795","0.0-44.0","3D2DB2CE66AF4513A1DF345A9F5C1C1F","019ce7a9-dfdb-713d-886c-739c136c208f","019ce7a0-0965-7aa7-a556-174d32a8e773","","null","
                    <div class=""stimulus-container"">
                        <img src=""images/causal_sequence/the_performance_causal/the_performance_causal_5.png"" class=""exp-image"">
                        <div class=""question-area"">
                            <p style=""font-size: 20px; font-weight: bold; margin: 0;"">Is there a person in this image?</p>
                        </div>
                    </div>","null","main_causal_task","5","the_performance_causal","","","",""
"","","","","","html-keyboard-response","45","174807","0.0-45.0","3D2DB2CE66AF4513A1DF345A9F5C1C1F","019ce7a9-dfdb-713d-886c-739c136c208f","019ce7a0-0965-7aa7-a556-174d32a8e773","","null","
                    <div class=""stimulus-container"">
                        <img src=""images/causal_sequence/the_performance_causal/the_performance_causal_6.png"" class=""exp-image"">
                        <div class=""question-area""></div> 
                    </div>","null","","","","","","",""
"","","","","","html-button-response","46","175790","0.0-46.0","3D2DB2CE66AF4513A1DF345A9F5C1C1F","019ce7a9-dfdb-713d-886c-739c136c208f","019ce7a0-0965-7aa7-a556-174d32a8e773","","979","
                    <div class=""stimulus-container"">
                        <img src=""images/causal_sequence/the_performance_causal/the_performance_causal_6.png"" class=""exp-image"">
                        <div class=""question-area"">
                            <p style=""font-size: 20px; font-weight: bold; margin: 0;"">Is there a person in this image?</p>
                        </div>
                    </div>","0","main_causal_task","6","the_performance_causal","","","",""
"","","","","","html-keyboard-response","47","180793","0.0-47.0","3D2DB2CE66AF4513A1DF345A9F5C1C1F","019ce7a9-dfdb-713d-886c-739c136c208f","019ce7a0-0965-7aa7-a556-174d32a8e773","","null","
                    <div class=""stimulus-container"">
                        <img src=""images/causal_sequence/the_performance_causal/the_performance_causal_7.png"" class=""exp-image"">
                        <div class=""question-area""></div> 
                    </div>","null","","","","","","",""
"","","","","","html-button-response","48","181558","0.0-48.0","3D2DB2CE66AF4513A1DF345A9F5C1C1F","019ce7a9-dfdb-713d-886c-739c136c208f","019ce7a0-0965-7aa7-a556-174d32a8e773","","762","
                    <div class=""stimulus-container"">
                        <img src=""images/causal_sequence/the_performance_causal/the_performance_causal_7.png"" class=""exp-image"">
                        <div class=""question-area"">
                            <p style=""font-size: 20px; font-weight: bold; margin: 0;"">Is there a person in this image?</p>
                        </div>
                    </div>","0","main_causal_task","7","the_performance_causal","","","",""
"","","","","","html-keyboard-response","49","186574","0.0-49.0","3D2DB2CE66AF4513A1DF345A9F5C1C1F","019ce7a9-dfdb-713d-886c-739c136c208f","019ce7a0-0965-7aa7-a556-174d32a8e773","","null","
                    <div class=""stimulus-container"">
                        <img src=""images/causal_sequence/the_performance_causal/the_performance_causal_8.png"" class=""exp-image"">
                        <div class=""question-area""></div> 
                    </div>","null","","","","","","",""
"","","","","","html-button-response","50","187447","0.0-50.0","3D2DB2CE66AF4513A1DF345A9F5C1C1F","019ce7a9-dfdb-713d-886c-739c136c208f","019ce7a0-0965-7aa7-a556-174d32a8e773","","871","
                    <div class=""stimulus-container"">
                        <img src=""images/causal_sequence/the_performance_causal/the_performance_causal_8.png"" class=""exp-image"">
                        <div class=""question-area"">
                            <p style=""font-size: 20px; font-weight: bold; margin: 0;"">Is there a person in this image?</p>
                        </div>
                    </div>","0","main_causal_task","8","the_performance_causal","","","",""
"","","","","","html-keyboard-response","51","192460","0.0-51.0","3D2DB2CE66AF4513A1DF345A9F5C1C1F","019ce7a9-dfdb-713d-886c-739c136c208f","019ce7a0-0965-7aa7-a556-174d32a8e773","","null","
                    <div class=""stimulus-container"">
                        <img src=""images/causal_sequence/the_performance_causal/the_performance_causal_9.png"" class=""exp-image"">
                        <div class=""question-area""></div> 
                    </div>","null","","","","","","",""
"","","","","","html-button-response","52","195474","0.0-52.0","3D2DB2CE66AF4513A1DF345A9F5C1C1F","019ce7a9-dfdb-713d-886c-739c136c208f","019ce7a0-0965-7aa7-a556-174d32a8e773","","null","
                    <div class=""stimulus-container"">
                        <img src=""images/causal_sequence/the_performance_causal/the_performance_causal_9.png"" class=""exp-image"">
                        <div class=""question-area"">
                            <p style=""font-size: 20px; font-weight: bold; margin: 0;"">Is there a person in this image?</p>
                        </div>
                    </div>","null","main_causal_task","9","the_performance_causal","","","",""
"","","","","","html-keyboard-response","53","196484","0.0-53.0","3D2DB2CE66AF4513A1DF345A9F5C1C1F","019ce7a9-dfdb-713d-886c-739c136c208f","019ce7a0-0965-7aa7-a556-174d32a8e773","","null","<div style=""background-color: gray; width: 100vw; height: 100vh;""></div>","null","","","","","","",""
"","","","","","html-keyboard-response","54","201495","0.0-54.0","3D2DB2CE66AF4513A1DF345A9F5C1C1F","019ce7a9-dfdb-713d-886c-739c136c208f","019ce7a0-0965-7aa7-a556-174d32a8e773","","null","
                    <div class=""stimulus-container"">
                        <img src=""images/causal_sequence/coin_causal/coin_causal_1.png"" class=""exp-image"">
                        <div class=""question-area""></div> 
                    </div>","null","","","","","","",""
"","","","","","html-button-response","55","202512","0.0-55.0","3D2DB2CE66AF4513A1DF345A9F5C1C1F","019ce7a9-dfdb-713d-886c-739c136c208f","019ce7a0-0965-7aa7-a556-174d32a8e773","","1014","
                    <div class=""stimulus-container"">
                        <img src=""images/causal_sequence/coin_causal/coin_causal_1.png"" class=""exp-image"">
                        <div class=""question-area"">
                            <p style=""font-size: 20px; font-weight: bold; margin: 0;"">Is there a person in this image?</p>
                        </div>
                    </div>","0","main_causal_task","1","coin_causal","","","",""
"","","","","","html-keyboard-response","56","207526","0.0-56.0","3D2DB2CE66AF4513A1DF345A9F5C1C1F","019ce7a9-dfdb-713d-886c-739c136c208f","019ce7a0-0965-7aa7-a556-174d32a8e773","","null","
                    <div class=""stimulus-container"">
                        <img src=""images/causal_sequence/coin_causal/coin_causal_2.png"" class=""exp-image"">
                        <div class=""question-area""></div> 
                    </div>","null","","","","","","",""
"","","","","","html-button-response","57","208345","0.0-57.0","3D2DB2CE66AF4513A1DF345A9F5C1C1F","019ce7a9-dfdb-713d-886c-739c136c208f","019ce7a0-0965-7aa7-a556-174d32a8e773","","816","
                    <div class=""stimulus-container"">
                        <img src=""images/causal_sequence/coin_causal/coin_causal_2.png"" class=""exp-image"">
                        <div class=""question-area"">
                            <p style=""font-size: 20px; font-weight: bold; margin: 0;"">Is there a person in this image?</p>
                        </div>
                    </div>","0","main_causal_task","2","coin_causal","","","",""
"","","","","","html-keyboard-response","58","213351","0.0-58.0","3D2DB2CE66AF4513A1DF345A9F5C1C1F","019ce7a9-dfdb-713d-886c-739c136c208f","019ce7a0-0965-7aa7-a556-174d32a8e773","","null","
                    <div class=""stimulus-container"">
                        <img src=""images/causal_sequence/coin_causal/coin_causal_3.png"" class=""exp-image"">
                        <div class=""question-area""></div> 
                    </div>","null","","","","","","",""
"","","","","","html-button-response","59","214325","0.0-59.0","3D2DB2CE66AF4513A1DF345A9F5C1C1F","019ce7a9-dfdb-713d-886c-739c136c208f","019ce7a0-0965-7aa7-a556-174d32a8e773","","971","
                    <div class=""stimulus-container"">
                        <img src=""images/causal_sequence/coin_causal/coin_causal_3.png"" class=""exp-image"">
                        <div class=""question-area"">
                            <p style=""font-size: 20px; font-weight: bold; margin: 0;"">Is there a person in this image?</p>
                        </div>
                    </div>","0","main_causal_task","3","coin_causal","","","",""
"","","","","","html-keyboard-response","60","219334","0.0-60.0","3D2DB2CE66AF4513A1DF345A9F5C1C1F","019ce7a9-dfdb-713d-886c-739c136c208f","019ce7a0-0965-7aa7-a556-174d32a8e773","","null","
                    <div class=""stimulus-container"">
                        <img src=""images/causal_sequence/coin_causal/coin_causal_4.png"" class=""exp-image"">
                        <div class=""question-area""></div> 
                    </div>","null","","","","","","",""
"","","","","","html-button-response","61","220326","0.0-61.0","3D2DB2CE66AF4513A1DF345A9F5C1C1F","019ce7a9-dfdb-713d-886c-739c136c208f","019ce7a0-0965-7aa7-a556-174d32a8e773","","988","
                    <div class=""stimulus-container"">
                        <img src=""images/causal_sequence/coin_causal/coin_causal_4.png"" class=""exp-image"">
                        <div class=""question-area"">
                            <p style=""font-size: 20px; font-weight: bold; margin: 0;"">Is there a person in this image?</p>
                        </div>
                    </div>","0","main_causal_task","4","coin_causal","","","",""
"","","","","","html-keyboard-response","62","225336","0.0-62.0","3D2DB2CE66AF4513A1DF345A9F5C1C1F","019ce7a9-dfdb-713d-886c-739c136c208f","019ce7a0-0965-7aa7-a556-174d32a8e773","","null","
                    <div class=""stimulus-container"">
                        <img src=""images/causal_sequence/coin_causal/coin_causal_5.png"" class=""exp-image"">
                        <div class=""question-area""></div> 
                    </div>","null","","","","","","",""
"","","","","","html-button-response","63","226747","0.0-63.0","3D2DB2CE66AF4513A1DF345A9F5C1C1F","019ce7a9-dfdb-713d-886c-739c136c208f","019ce7a0-0965-7aa7-a556-174d32a8e773","","1409","
                    <div class=""stimulus-container"">
                        <img src=""images/causal_sequence/coin_causal/coin_causal_5.png"" class=""exp-image"">
                        <div class=""question-area"">
                            <p style=""font-size: 20px; font-weight: bold; margin: 0;"">Is there a person in this image?</p>
                        </div>
                    </div>","0","main_causal_task","5","coin_causal","","","",""
"","","","","","html-keyboard-response","64","231749","0.0-64.0","3D2DB2CE66AF4513A1DF345A9F5C1C1F","019ce7a9-dfdb-713d-886c-739c136c208f","019ce7a0-0965-7aa7-a556-174d32a8e773","","null","
                    <div class=""stimulus-container"">
                        <img src=""images/causal_sequence/coin_causal/coin_causal_6.png"" class=""exp-image"">
                        <div class=""question-area""></div> 
                    </div>","null","","","","","","",""
"","","","","","html-button-response","65","232583","0.0-65.0","3D2DB2CE66AF4513A1DF345A9F5C1C1F","019ce7a9-dfdb-713d-886c-739c136c208f","019ce7a0-0965-7aa7-a556-174d32a8e773","","832","
                    <div class=""stimulus-container"">
                        <img src=""images/causal_sequence/coin_causal/coin_causal_6.png"" class=""exp-image"">
                        <div class=""question-area"">
                            <p style=""font-size: 20px; font-weight: bold; margin: 0;"">Is there a person in this image?</p>
                        </div>
                    </div>","0","main_causal_task","6","coin_causal","","","",""
"","","","","","html-keyboard-response","66","237591","0.0-66.0","3D2DB2CE66AF4513A1DF345A9F5C1C1F","019ce7a9-dfdb-713d-886c-739c136c208f","019ce7a0-0965-7aa7-a556-174d32a8e773","","null","
                    <div class=""stimulus-container"">
                        <img src=""images/causal_sequence/coin_causal/coin_causal_7.png"" class=""exp-image"">
                        <div class=""question-area""></div> 
                    </div>","null","","","","","","",""
"","","","","","html-button-response","67","238390","0.0-67.0","3D2DB2CE66AF4513A1DF345A9F5C1C1F","019ce7a9-dfdb-713d-886c-739c136c208f","019ce7a0-0965-7aa7-a556-174d32a8e773","","798","
                    <div class=""stimulus-container"">
                        <img src=""images/causal_sequence/coin_causal/coin_causal_7.png"" class=""exp-image"">
                        <div class=""question-area"">
                            <p style=""font-size: 20px; font-weight: bold; margin: 0;"">Is there a person in this image?</p>
                        </div>
                    </div>","1","main_causal_task","7","coin_causal","","","",""
"","","","","","html-keyboard-response","68","243394","0.0-68.0","3D2DB2CE66AF4513A1DF345A9F5C1C1F","019ce7a9-dfdb-713d-886c-739c136c208f","019ce7a0-0965-7aa7-a556-174d32a8e773","","null","
                    <div class=""stimulus-container"">
                        <img src=""images/causal_sequence/coin_causal/coin_causal_8.png"" class=""exp-image"">
                        <div class=""question-area""></div> 
                    </div>","null","","","","","","",""
"","","","","","html-button-response","69","244281","0.0-69.0","3D2DB2CE66AF4513A1DF345A9F5C1C1F","019ce7a9-dfdb-713d-886c-739c136c208f","019ce7a0-0965-7aa7-a556-174d32a8e773","","886","
                    <div class=""stimulus-container"">
                        <img src=""images/causal_sequence/coin_causal/coin_causal_8.png"" class=""exp-image"">
                        <div class=""question-area"">
                            <p style=""font-size: 20px; font-weight: bold; margin: 0;"">Is there a person in this image?</p>
                        </div>
                    </div>","0","main_causal_task","8","coin_causal","","","",""
"","","","","","html-keyboard-response","70","249287","0.0-70.0","3D2DB2CE66AF4513A1DF345A9F5C1C1F","019ce7a9-dfdb-713d-886c-739c136c208f","019ce7a0-0965-7aa7-a556-174d32a8e773","","null","
                    <div class=""stimulus-container"">
                        <img src=""images/causal_sequence/coin_causal/coin_causal_9.png"" class=""exp-image"">
                        <div class=""question-area""></div> 
                    </div>","null","","","","","","",""
"","","","","","html-button-response","71","251658","0.0-71.0","3D2DB2CE66AF4513A1DF345A9F5C1C1F","019ce7a9-dfdb-713d-886c-739c136c208f","019ce7a0-0965-7aa7-a556-174d32a8e773","","2369","
                    <div class=""stimulus-container"">
                        <img src=""images/causal_sequence/coin_causal/coin_causal_9.png"" class=""exp-image"">
                        <div class=""question-area"">
                            <p style=""font-size: 20px; font-weight: bold; margin: 0;"">Is there a person in this image?</p>
                        </div>
                    </div>","0","main_causal_task","9","coin_causal","","","",""
"","","","","","html-keyboard-response","72","252674","0.0-72.0","3D2DB2CE66AF4513A1DF345A9F5C1C1F","019ce7a9-dfdb-713d-886c-739c136c208f","019ce7a0-0965-7aa7-a556-174d32a8e773","","null","<div style=""background-color: gray; width: 100vw; height: 100vh;""></div>","null","","","","","","",""
"","","","","","html-keyboard-response","73","257683","0.0-73.0","3D2DB2CE66AF4513A1DF345A9F5C1C1F","019ce7a9-dfdb-713d-886c-739c136c208f","019ce7a0-0965-7aa7-a556-174d32a8e773","","null","
                    <div class=""stimulus-container"">
                        <img src=""images/causal_sequence/saving_a_cat_causal/saving_a_cat_causal_1.png"" class=""exp-image"">
                        <div class=""question-area""></div> 
                    </div>","null","","","","","","",""
"","","","","","html-button-response","74","258821","0.0-74.0","3D2DB2CE66AF4513A1DF345A9F5C1C1F","019ce7a9-dfdb-713d-886c-739c136c208f","019ce7a0-0965-7aa7-a556-174d32a8e773","","1135","
                    <div class=""stimulus-container"">
                        <img src=""images/causal_sequence/saving_a_cat_causal/saving_a_cat_causal_1.png"" class=""exp-image"">
                        <div class=""question-area"">
                            <p style=""font-size: 20px; font-weight: bold; margin: 0;"">Is there a person in this image?</p>
                        </div>
                    </div>","0","main_causal_task","1","saving_a_cat_causal","","","",""
"","","","","","html-keyboard-response","75","263835","0.0-75.0","3D2DB2CE66AF4513A1DF345A9F5C1C1F","019ce7a9-dfdb-713d-886c-739c136c208f","019ce7a0-0965-7aa7-a556-174d32a8e773","","null","
                    <div class=""stimulus-container"">
                        <img src=""images/causal_sequence/saving_a_cat_causal/saving_a_cat_causal_2.png"" class=""exp-image"">
                        <div class=""question-area""></div> 
                    </div>","null","","","","","","",""
"","","","","","html-button-response","76","264522","0.0-76.0","3D2DB2CE66AF4513A1DF345A9F5C1C1F","019ce7a9-dfdb-713d-886c-739c136c208f","019ce7a0-0965-7aa7-a556-174d32a8e773","","683","
                    <div class=""stimulus-container"">
                        <img src=""images/causal_sequence/saving_a_cat_causal/saving_a_cat_causal_2.png"" class=""exp-image"">
                        <div class=""question-area"">
                            <p style=""font-size: 20px; font-weight: bold; margin: 0;"">Is there a person in this image?</p>
                        </div>
                    </div>","1","main_causal_task","2","saving_a_cat_causal","","","",""
"","","","","","html-keyboard-response","77","269527","0.0-77.0","3D2DB2CE66AF4513A1DF345A9F5C1C1F","019ce7a9-dfdb-713d-886c-739c136c208f","019ce7a0-0965-7aa7-a556-174d32a8e773","","null","
                    <div class=""stimulus-container"">
                        <img src=""images/causal_sequence/saving_a_cat_causal/saving_a_cat_causal_3.png"" class=""exp-image"">
                        <div class=""question-area""></div> 
                    </div>","null","","","","","","",""
"","","","","","html-button-response","78","270449","0.0-78.0","3D2DB2CE66AF4513A1DF345A9F5C1C1F","019ce7a9-dfdb-713d-886c-739c136c208f","019ce7a0-0965-7aa7-a556-174d32a8e773","","919","
                    <div class=""stimulus-container"">
                        <img src=""images/causal_sequence/saving_a_cat_causal/saving_a_cat_causal_3.png"" class=""exp-image"">
                        <div class=""question-area"">
                            <p style=""font-size: 20px; font-weight: bold; margin: 0;"">Is there a person in this image?</p>
                        </div>
                    </div>","0","main_causal_task","3","saving_a_cat_causal","","","",""
"","","","","","html-keyboard-response","79","275459","0.0-79.0","3D2DB2CE66AF4513A1DF345A9F5C1C1F","019ce7a9-dfdb-713d-886c-739c136c208f","019ce7a0-0965-7aa7-a556-174d32a8e773","","null","
                    <div class=""stimulus-container"">
                        <img src=""images/causal_sequence/saving_a_cat_causal/saving_a_cat_causal_4.png"" class=""exp-image"">
                        <div class=""question-area""></div> 
                    </div>","null","","","","","","",""
"","","","","","html-button-response","80","277036","0.0-80.0","3D2DB2CE66AF4513A1DF345A9F5C1C1F","019ce7a9-dfdb-713d-886c-739c136c208f","019ce7a0-0965-7aa7-a556-174d32a8e773","","1575","
                    <div class=""stimulus-container"">
                        <img src=""images/causal_sequence/saving_a_cat_causal/saving_a_cat_causal_4.png"" class=""exp-image"">
                        <div class=""question-area"">
                            <p style=""font-size: 20px; font-weight: bold; margin: 0;"">Is there a person in this image?</p>
                        </div>
                    </div>","0","main_causal_task","4","saving_a_cat_causal","","","",""
"","","","","","html-keyboard-response","81","282051","0.0-81.0","3D2DB2CE66AF4513A1DF345A9F5C1C1F","019ce7a9-dfdb-713d-886c-739c136c208f","019ce7a0-0965-7aa7-a556-174d32a8e773","","null","
                    <div class=""stimulus-container"">
                        <img src=""images/causal_sequence/saving_a_cat_causal/saving_a_cat_causal_5.png"" class=""exp-image"">
                        <div class=""question-area""></div> 
                    </div>","null","","","","","","",""
"","","","","","html-button-response","82","284990","0.0-82.0","3D2DB2CE66AF4513A1DF345A9F5C1C1F","019ce7a9-dfdb-713d-886c-739c136c208f","019ce7a0-0965-7aa7-a556-174d32a8e773","","2936","
                    <div class=""stimulus-container"">
                        <img src=""images/causal_sequence/saving_a_cat_causal/saving_a_cat_causal_5.png"" class=""exp-image"">
                        <div class=""question-area"">
                            <p style=""font-size: 20px; font-weight: bold; margin: 0;"">Is there a person in this image?</p>
                        </div>
                    </div>","0","main_causal_task","5","saving_a_cat_causal","","","",""
"","","","","","html-keyboard-response","83","289999","0.0-83.0","3D2DB2CE66AF4513A1DF345A9F5C1C1F","019ce7a9-dfdb-713d-886c-739c136c208f","019ce7a0-0965-7aa7-a556-174d32a8e773","","null","
                    <div class=""stimulus-container"">
                        <img src=""images/causal_sequence/saving_a_cat_causal/saving_a_cat_causal_6.png"" class=""exp-image"">
                        <div class=""question-area""></div> 
                    </div>","null","","","","","","",""
"","","","","","html-button-response","84","292632","0.0-84.0","3D2DB2CE66AF4513A1DF345A9F5C1C1F","019ce7a9-dfdb-713d-886c-739c136c208f","019ce7a0-0965-7aa7-a556-174d32a8e773","","2629","
                    <div class=""stimulus-container"">
                        <img src=""images/causal_sequence/saving_a_cat_causal/saving_a_cat_causal_6.png"" class=""exp-image"">
                        <div class=""question-area"">
                            <p style=""font-size: 20px; font-weight: bold; margin: 0;"">Is there a person in this image?</p>
                        </div>
                    </div>","0","main_causal_task","6","saving_a_cat_causal","","","",""
"","","","","","html-keyboard-response","85","297644","0.0-85.0","3D2DB2CE66AF4513A1DF345A9F5C1C1F","019ce7a9-dfdb-713d-886c-739c136c208f","019ce7a0-0965-7aa7-a556-174d32a8e773","","null","
                    <div class=""stimulus-container"">
                        <img src=""images/causal_sequence/saving_a_cat_causal/saving_a_cat_causal_7.png"" class=""exp-image"">
                        <div class=""question-area""></div> 
                    </div>","null","","","","","","",""
"","","","","","html-button-response","86","299116","0.0-86.0","3D2DB2CE66AF4513A1DF345A9F5C1C1F","019ce7a9-dfdb-713d-886c-739c136c208f","019ce7a0-0965-7aa7-a556-174d32a8e773","","1470","
                    <div class=""stimulus-container"">
                        <img src=""images/causal_sequence/saving_a_cat_causal/saving_a_cat_causal_7.png"" class=""exp-image"">
                        <div class=""question-area"">
                            <p style=""font-size: 20px; font-weight: bold; margin: 0;"">Is there a person in this image?</p>
                        </div>
                    </div>","0","main_causal_task","7","saving_a_cat_causal","","","",""
"","","","","","html-keyboard-response","87","304120","0.0-87.0","3D2DB2CE66AF4513A1DF345A9F5C1C1F","019ce7a9-dfdb-713d-886c-739c136c208f","019ce7a0-0965-7aa7-a556-174d32a8e773","","null","
                    <div class=""stimulus-container"">
                        <img src=""images/causal_sequence/saving_a_cat_causal/saving_a_cat_causal_8.png"" class=""exp-image"">
                        <div class=""question-area""></div> 
                    </div>","null","","","","","","",""
"","","","","","html-button-response","88","306396","0.0-88.0","3D2DB2CE66AF4513A1DF345A9F5C1C1F","019ce7a9-dfdb-713d-886c-739c136c208f","019ce7a0-0965-7aa7-a556-174d32a8e773","","2274","
                    <div class=""stimulus-container"">
                        <img src=""images/causal_sequence/saving_a_cat_causal/saving_a_cat_causal_8.png"" class=""exp-image"">
                        <div class=""question-area"">
                            <p style=""font-size: 20px; font-weight: bold; margin: 0;"">Is there a person in this image?</p>
                        </div>
                    </div>","0","main_causal_task","8","saving_a_cat_causal","","","",""
"","","","","","html-keyboard-response","89","311411","0.0-89.0","3D2DB2CE66AF4513A1DF345A9F5C1C1F","019ce7a9-dfdb-713d-886c-739c136c208f","019ce7a0-0965-7aa7-a556-174d32a8e773","","null","
                    <div class=""stimulus-container"">
                        <img src=""images/causal_sequence/saving_a_cat_causal/saving_a_cat_causal_9.png"" class=""exp-image"">
                        <div class=""question-area""></div> 
                    </div>","null","","","","","","",""
"","","","","","html-button-response","90","312968","0.0-90.0","3D2DB2CE66AF4513A1DF345A9F5C1C1F","019ce7a9-dfdb-713d-886c-739c136c208f","019ce7a0-0965-7aa7-a556-174d32a8e773","","1554","
                    <div class=""stimulus-container"">
                        <img src=""images/causal_sequence/saving_a_cat_causal/saving_a_cat_causal_9.png"" class=""exp-image"">
                        <div class=""question-area"">
                            <p style=""font-size: 20px; font-weight: bold; margin: 0;"">Is there a person in this image?</p>
                        </div>
                    </div>","0","main_causal_task","9","saving_a_cat_causal","","","",""
"","","","","","html-keyboard-response","91","313975","0.0-91.0","3D2DB2CE66AF4513A1DF345A9F5C1C1F","019ce7a9-dfdb-713d-886c-739c136c208f","019ce7a0-0965-7aa7-a556-174d32a8e773","","null","<div style=""background-color: gray; width: 100vw; height: 100vh;""></div>","null","","","","","","",""
"","","","","","html-keyboard-response","92","318990","0.0-92.0","3D2DB2CE66AF4513A1DF345A9F5C1C1F","019ce7a9-dfdb-713d-886c-739c136c208f","019ce7a0-0965-7aa7-a556-174d32a8e773","","null","
                    <div class=""stimulus-container"">
                        <img src=""images/causal_sequence/package_causal/package_causal_1.png"" class=""exp-image"">
                        <div class=""question-area""></div> 
                    </div>","null","","","","","","",""
"","","","","","html-button-response","93","320571","0.0-93.0","3D2DB2CE66AF4513A1DF345A9F5C1C1F","019ce7a9-dfdb-713d-886c-739c136c208f","019ce7a0-0965-7aa7-a556-174d32a8e773","","1579","
                    <div class=""stimulus-container"">
                        <img src=""images/causal_sequence/package_causal/package_causal_1.png"" class=""exp-image"">
                        <div class=""question-area"">
                            <p style=""font-size: 20px; font-weight: bold; margin: 0;"">Is there a person in this image?</p>
                        </div>
                    </div>","0","main_causal_task","1","package_causal","","","",""
"","","","","","html-keyboard-response","94","325579","0.0-94.0","3D2DB2CE66AF4513A1DF345A9F5C1C1F","019ce7a9-dfdb-713d-886c-739c136c208f","019ce7a0-0965-7aa7-a556-174d32a8e773","","null","
                    <div class=""stimulus-container"">
                        <img src=""images/causal_sequence/package_causal/package_causal_2.png"" class=""exp-image"">
                        <div class=""question-area""></div> 
                    </div>","null","","","","","","",""
"","","","","","html-button-response","95","326549","0.0-95.0","3D2DB2CE66AF4513A1DF345A9F5C1C1F","019ce7a9-dfdb-713d-886c-739c136c208f","019ce7a0-0965-7aa7-a556-174d32a8e773","","967","
                    <div class=""stimulus-container"">
                        <img src=""images/causal_sequence/package_causal/package_causal_2.png"" class=""exp-image"">
                        <div class=""question-area"">
                            <p style=""font-size: 20px; font-weight: bold; margin: 0;"">Is there a person in this image?</p>
                        </div>
                    </div>","0","main_causal_task","2","package_causal","","","",""
"","","","","","html-keyboard-response","96","331555","0.0-96.0","3D2DB2CE66AF4513A1DF345A9F5C1C1F","019ce7a9-dfdb-713d-886c-739c136c208f","019ce7a0-0965-7aa7-a556-174d32a8e773","","null","
                    <div class=""stimulus-container"">
                        <img src=""images/causal_sequence/package_causal/package_causal_3.png"" class=""exp-image"">
                        <div class=""question-area""></div> 
                    </div>","null","","","","","","",""
"","","","","","html-button-response","97","333991","0.0-97.0","3D2DB2CE66AF4513A1DF345A9F5C1C1F","019ce7a9-dfdb-713d-886c-739c136c208f","019ce7a0-0965-7aa7-a556-174d32a8e773","","2432","
                    <div class=""stimulus-container"">
                        <img src=""images/causal_sequence/package_causal/package_causal_3.png"" class=""exp-image"">
                        <div class=""question-area"">
                            <p style=""font-size: 20px; font-weight: bold; margin: 0;"">Is there a person in this image?</p>
                        </div>
                    </div>","1","main_causal_task","3","package_causal","","","",""
"","","","","","html-keyboard-response","98","339006","0.0-98.0","3D2DB2CE66AF4513A1DF345A9F5C1C1F","019ce7a9-dfdb-713d-886c-739c136c208f","019ce7a0-0965-7aa7-a556-174d32a8e773","","null","
                    <div class=""stimulus-container"">
                        <img src=""images/causal_sequence/package_causal/package_causal_4.png"" class=""exp-image"">
                        <div class=""question-area""></div> 
                    </div>","null","","","","","","",""
"","","","","","html-button-response","99","340351","0.0-99.0","3D2DB2CE66AF4513A1DF345A9F5C1C1F","019ce7a9-dfdb-713d-886c-739c136c208f","019ce7a0-0965-7aa7-a556-174d32a8e773","","1341","
                    <div class=""stimulus-container"">
                        <img src=""images/causal_sequence/package_causal/package_causal_4.png"" class=""exp-image"">
                        <div class=""question-area"">
                            <p style=""font-size: 20px; font-weight: bold; margin: 0;"">Is there a person in this image?</p>
                        </div>
                    </div>","1","main_causal_task","4","package_causal","","","",""
"","","","","","html-keyboard-response","100","345359","0.0-100.0","3D2DB2CE66AF4513A1DF345A9F5C1C1F","019ce7a9-dfdb-713d-886c-739c136c208f","019ce7a0-0965-7aa7-a556-174d32a8e773","","null","
                    <div class=""stimulus-container"">
                        <img src=""images/causal_sequence/package_causal/package_causal_5.png"" class=""exp-image"">
                        <div class=""question-area""></div> 
                    </div>","null","","","","","","",""
"","","","","","html-button-response","101","348360","0.0-101.0","3D2DB2CE66AF4513A1DF345A9F5C1C1F","019ce7a9-dfdb-713d-886c-739c136c208f","019ce7a0-0965-7aa7-a556-174d32a8e773","","null","
                    <div class=""stimulus-container"">
                        <img src=""images/causal_sequence/package_causal/package_causal_5.png"" class=""exp-image"">
                        <div class=""question-area"">
                            <p style=""font-size: 20px; font-weight: bold; margin: 0;"">Is there a person in this image?</p>
                        </div>
                    </div>","null","main_causal_task","5","package_causal","","","",""
"","","","","","html-keyboard-response","102","353370","0.0-102.0","3D2DB2CE66AF4513A1DF345A9F5C1C1F","019ce7a9-dfdb-713d-886c-739c136c208f","019ce7a0-0965-7aa7-a556-174d32a8e773","","null","
                    <div class=""stimulus-container"">
                        <img src=""images/causal_sequence/package_causal/package_causal_6.png"" class=""exp-image"">
                        <div class=""question-area""></div> 
                    </div>","null","","","","","","",""
"","","","","","html-button-response","103","356379","0.0-103.0","3D2DB2CE66AF4513A1DF345A9F5C1C1F","019ce7a9-dfdb-713d-886c-739c136c208f","019ce7a0-0965-7aa7-a556-174d32a8e773","","null","
                    <div class=""stimulus-container"">
                        <img src=""images/causal_sequence/package_causal/package_causal_6.png"" class=""exp-image"">
                        <div class=""question-area"">
                            <p style=""font-size: 20px; font-weight: bold; margin: 0;"">Is there a person in this image?</p>
                        </div>
                    </div>","null","main_causal_task","6","package_causal","","","",""
"","","","","","html-keyboard-response","104","361384","0.0-104.0","3D2DB2CE66AF4513A1DF345A9F5C1C1F","019ce7a9-dfdb-713d-886c-739c136c208f","019ce7a0-0965-7aa7-a556-174d32a8e773","","null","
                    <div class=""stimulus-container"">
                        <img src=""images/causal_sequence/package_causal/package_causal_7.png"" class=""exp-image"">
                        <div class=""question-area""></div> 
                    </div>","null","","","","","","",""
"","","","","","html-button-response","105","364392","0.0-105.0","3D2DB2CE66AF4513A1DF345A9F5C1C1F","019ce7a9-dfdb-713d-886c-739c136c208f","019ce7a0-0965-7aa7-a556-174d32a8e773","","null","
                    <div class=""stimulus-container"">
                        <img src=""images/causal_sequence/package_causal/package_causal_7.png"" class=""exp-image"">
                        <div class=""question-area"">
                            <p style=""font-size: 20px; font-weight: bold; margin: 0;"">Is there a person in this image?</p>
                        </div>
                    </div>","null","main_causal_task","7","package_causal","","","",""
"","","","","","html-keyboard-response","106","369408","0.0-106.0","3D2DB2CE66AF4513A1DF345A9F5C1C1F","019ce7a9-dfdb-713d-886c-739c136c208f","019ce7a0-0965-7aa7-a556-174d32a8e773","","null","
                    <div class=""stimulus-container"">
                        <img src=""images/causal_sequence/package_causal/package_causal_8.png"" class=""exp-image"">
                        <div class=""question-area""></div> 
                    </div>","null","","","","","","",""
"","","","","","html-button-response","107","370248","0.0-107.0","3D2DB2CE66AF4513A1DF345A9F5C1C1F","019ce7a9-dfdb-713d-886c-739c136c208f","019ce7a0-0965-7aa7-a556-174d32a8e773","","838","
                    <div class=""stimulus-container"">
                        <img src=""images/causal_sequence/package_causal/package_causal_8.png"" class=""exp-image"">
                        <div class=""question-area"">
                            <p style=""font-size: 20px; font-weight: bold; margin: 0;"">Is there a person in this image?</p>
                        </div>
                    </div>","0","main_causal_task","8","package_causal","","","",""
"","","","","","html-keyboard-response","108","375255","0.0-108.0","3D2DB2CE66AF4513A1DF345A9F5C1C1F","019ce7a9-dfdb-713d-886c-739c136c208f","019ce7a0-0965-7aa7-a556-174d32a8e773","","null","
                    <div class=""stimulus-container"">
                        <img src=""images/causal_sequence/package_causal/package_causal_9.png"" class=""exp-image"">
                        <div class=""question-area""></div> 
                    </div>","null","","","","","","",""
"","","","","","html-button-response","109","376231","0.0-109.0","3D2DB2CE66AF4513A1DF345A9F5C1C1F","019ce7a9-dfdb-713d-886c-739c136c208f","019ce7a0-0965-7aa7-a556-174d32a8e773","","974","
                    <div class=""stimulus-container"">
                        <img src=""images/causal_sequence/package_causal/package_causal_9.png"" class=""exp-image"">
                        <div class=""question-area"">
                            <p style=""font-size: 20px; font-weight: bold; margin: 0;"">Is there a person in this image?</p>
                        </div>
                    </div>","0","main_causal_task","9","package_causal","","","",""
"","","","","","html-keyboard-response","110","377241","0.0-110.0","3D2DB2CE66AF4513A1DF345A9F5C1C1F","019ce7a9-dfdb-713d-886c-739c136c208f","019ce7a0-0965-7aa7-a556-174d32a8e773","","null","<div style=""background-color: gray; width: 100vw; height: 100vh;""></div>","null","","","","","","",""
"","","","","","html-keyboard-response","111","382257","0.0-111.0","3D2DB2CE66AF4513A1DF345A9F5C1C1F","019ce7a9-dfdb-713d-886c-739c136c208f","019ce7a0-0965-7aa7-a556-174d32a8e773","","null","
                    <div class=""stimulus-container"">
                        <img src=""images/causal_sequence/dog_causal/dog_causal_1.png"" class=""exp-image"">
                        <div class=""question-area""></div> 
                    </div>","null","","","","","","",""
"","","","","","html-button-response","112","383120","0.0-112.0","3D2DB2CE66AF4513A1DF345A9F5C1C1F","019ce7a9-dfdb-713d-886c-739c136c208f","019ce7a0-0965-7aa7-a556-174d32a8e773","","861","
                    <div class=""stimulus-container"">
                        <img src=""images/causal_sequence/dog_causal/dog_causal_1.png"" class=""exp-image"">
                        <div class=""question-area"">
                            <p style=""font-size: 20px; font-weight: bold; margin: 0;"">Is there a person in this image?</p>
                        </div>
                    </div>","0","main_causal_task","1","dog_causal","","","",""
"","","","","","html-keyboard-response","113","388125","0.0-113.0","3D2DB2CE66AF4513A1DF345A9F5C1C1F","019ce7a9-dfdb-713d-886c-739c136c208f","019ce7a0-0965-7aa7-a556-174d32a8e773","","null","
                    <div class=""stimulus-container"">
                        <img src=""images/causal_sequence/dog_causal/dog_causal_2.png"" class=""exp-image"">
                        <div class=""question-area""></div> 
                    </div>","null","","","","","","",""
"","","","","","html-button-response","114","389117","0.0-114.0","3D2DB2CE66AF4513A1DF345A9F5C1C1F","019ce7a9-dfdb-713d-886c-739c136c208f","019ce7a0-0965-7aa7-a556-174d32a8e773","","991","
                    <div class=""stimulus-container"">
                        <img src=""images/causal_sequence/dog_causal/dog_causal_2.png"" class=""exp-image"">
                        <div class=""question-area"">
                            <p style=""font-size: 20px; font-weight: bold; margin: 0;"">Is there a person in this image?</p>
                        </div>
                    </div>","0","main_causal_task","2","dog_causal","","","",""
"","","","","","html-keyboard-response","115","394129","0.0-115.0","3D2DB2CE66AF4513A1DF345A9F5C1C1F","019ce7a9-dfdb-713d-886c-739c136c208f","019ce7a0-0965-7aa7-a556-174d32a8e773","","null","
                    <div class=""stimulus-container"">
                        <img src=""images/causal_sequence/dog_causal/dog_causal_3.png"" class=""exp-image"">
                        <div class=""question-area""></div> 
                    </div>","null","","","","","","",""
"","","","","","html-button-response","116","395536","0.0-116.0","3D2DB2CE66AF4513A1DF345A9F5C1C1F","019ce7a9-dfdb-713d-886c-739c136c208f","019ce7a0-0965-7aa7-a556-174d32a8e773","","1405","
                    <div class=""stimulus-container"">
                        <img src=""images/causal_sequence/dog_causal/dog_causal_3.png"" class=""exp-image"">
                        <div class=""question-area"">
                            <p style=""font-size: 20px; font-weight: bold; margin: 0;"">Is there a person in this image?</p>
                        </div>
                    </div>","0","main_causal_task","3","dog_causal","","","",""
"","","","","","html-keyboard-response","117","400549","0.0-117.0","3D2DB2CE66AF4513A1DF345A9F5C1C1F","019ce7a9-dfdb-713d-886c-739c136c208f","019ce7a0-0965-7aa7-a556-174d32a8e773","","null","
                    <div class=""stimulus-container"">
                        <img src=""images/causal_sequence/dog_causal/dog_causal_4.png"" class=""exp-image"">
                        <div class=""question-area""></div> 
                    </div>","null","","","","","","",""
"","","","","","html-button-response","118","401427","0.0-118.0","3D2DB2CE66AF4513A1DF345A9F5C1C1F","019ce7a9-dfdb-713d-886c-739c136c208f","019ce7a0-0965-7aa7-a556-174d32a8e773","","875","
                    <div class=""stimulus-container"">
                        <img src=""images/causal_sequence/dog_causal/dog_causal_4.png"" class=""exp-image"">
                        <div class=""question-area"">
                            <p style=""font-size: 20px; font-weight: bold; margin: 0;"">Is there a person in this image?</p>
                        </div>
                    </div>","0","main_causal_task","4","dog_causal","","","",""
"","","","","","html-keyboard-response","119","406436","0.0-119.0","3D2DB2CE66AF4513A1DF345A9F5C1C1F","019ce7a9-dfdb-713d-886c-739c136c208f","019ce7a0-0965-7aa7-a556-174d32a8e773","","null","
                    <div class=""stimulus-container"">
                        <img src=""images/causal_sequence/dog_causal/dog_causal_5.png"" class=""exp-image"">
                        <div class=""question-area""></div> 
                    </div>","null","","","","","","",""
"","","","","","html-button-response","120","408335","0.0-120.0","3D2DB2CE66AF4513A1DF345A9F5C1C1F","019ce7a9-dfdb-713d-886c-739c136c208f","019ce7a0-0965-7aa7-a556-174d32a8e773","","1897","
                    <div class=""stimulus-container"">
                        <img src=""images/causal_sequence/dog_causal/dog_causal_5.png"" class=""exp-image"">
                        <div class=""question-area"">
                            <p style=""font-size: 20px; font-weight: bold; margin: 0;"">Is there a person in this image?</p>
                        </div>
                    </div>","0","main_causal_task","5","dog_causal","","","",""
"","","","","","html-keyboard-response","121","413350","0.0-121.0","3D2DB2CE66AF4513A1DF345A9F5C1C1F","019ce7a9-dfdb-713d-886c-739c136c208f","019ce7a0-0965-7aa7-a556-174d32a8e773","","null","
                    <div class=""stimulus-container"">
                        <img src=""images/causal_sequence/dog_causal/dog_causal_6.png"" class=""exp-image"">
                        <div class=""question-area""></div> 
                    </div>","null","","","","","","",""
"","","","","","html-button-response","122","414054","0.0-122.0","3D2DB2CE66AF4513A1DF345A9F5C1C1F","019ce7a9-dfdb-713d-886c-739c136c208f","019ce7a0-0965-7aa7-a556-174d32a8e773","","701","
                    <div class=""stimulus-container"">
                        <img src=""images/causal_sequence/dog_causal/dog_causal_6.png"" class=""exp-image"">
                        <div class=""question-area"">
                            <p style=""font-size: 20px; font-weight: bold; margin: 0;"">Is there a person in this image?</p>
                        </div>
                    </div>","0","main_causal_task","6","dog_causal","","","",""
"","","","","","html-keyboard-response","123","419058","0.0-123.0","3D2DB2CE66AF4513A1DF345A9F5C1C1F","019ce7a9-dfdb-713d-886c-739c136c208f","019ce7a0-0965-7aa7-a556-174d32a8e773","","null","
                    <div class=""stimulus-container"">
                        <img src=""images/causal_sequence/dog_causal/dog_causal_7.png"" class=""exp-image"">
                        <div class=""question-area""></div> 
                    </div>","null","","","","","","",""
"","","","","","html-button-response","124","420036","0.0-124.0","3D2DB2CE66AF4513A1DF345A9F5C1C1F","019ce7a9-dfdb-713d-886c-739c136c208f","019ce7a0-0965-7aa7-a556-174d32a8e773","","975","
                    <div class=""stimulus-container"">
                        <img src=""images/causal_sequence/dog_causal/dog_causal_7.png"" class=""exp-image"">
                        <div class=""question-area"">
                            <p style=""font-size: 20px; font-weight: bold; margin: 0;"">Is there a person in this image?</p>
                        </div>
                    </div>","0","main_causal_task","7","dog_causal","","","",""
"","","","","","html-keyboard-response","125","425046","0.0-125.0","3D2DB2CE66AF4513A1DF345A9F5C1C1F","019ce7a9-dfdb-713d-886c-739c136c208f","019ce7a0-0965-7aa7-a556-174d32a8e773","","null","
                    <div class=""stimulus-container"">
                        <img src=""images/causal_sequence/dog_causal/dog_causal_8.png"" class=""exp-image"">
                        <div class=""question-area""></div> 
                    </div>","null","","","","","","",""
"","","","","","html-button-response","126","426190","0.0-126.0","3D2DB2CE66AF4513A1DF345A9F5C1C1F","019ce7a9-dfdb-713d-886c-739c136c208f","019ce7a0-0965-7aa7-a556-174d32a8e773","","1142","
                    <div class=""stimulus-container"">
                        <img src=""images/causal_sequence/dog_causal/dog_causal_8.png"" class=""exp-image"">
                        <div class=""question-area"">
                            <p style=""font-size: 20px; font-weight: bold; margin: 0;"">Is there a person in this image?</p>
                        </div>
                    </div>","0","main_causal_task","8","dog_causal","","","",""
"","","","","","html-keyboard-response","127","431196","0.0-127.0","3D2DB2CE66AF4513A1DF345A9F5C1C1F","019ce7a9-dfdb-713d-886c-739c136c208f","019ce7a0-0965-7aa7-a556-174d32a8e773","","null","
                    <div class=""stimulus-container"">
                        <img src=""images/causal_sequence/dog_causal/dog_causal_9.png"" class=""exp-image"">
                        <div class=""question-area""></div> 
                    </div>","null","","","","","","",""
"","","","","","html-button-response","128","433070","0.0-128.0","3D2DB2CE66AF4513A1DF345A9F5C1C1F","019ce7a9-dfdb-713d-886c-739c136c208f","019ce7a0-0965-7aa7-a556-174d32a8e773","","1871","
                    <div class=""stimulus-container"">
                        <img src=""images/causal_sequence/dog_causal/dog_causal_9.png"" class=""exp-image"">
                        <div class=""question-area"">
                            <p style=""font-size: 20px; font-weight: bold; margin: 0;"">Is there a person in this image?</p>
                        </div>
                    </div>","0","main_causal_task","9","dog_causal","","","",""
"","","","","","instructions","129","435746","0.0-129.0","3D2DB2CE66AF4513A1DF345A9F5C1C1F","019ce7a9-dfdb-713d-886c-739c136c208f","019ce7a0-0965-7aa7-a556-174d32a8e773","[{""page_index"":0,""viewing_time"":2674}]","2675","","","","","","","","",""
"","","","","","instructions","130","443145","0.0-130.0","3D2DB2CE66AF4513A1DF345A9F5C1C1F","019ce7a9-dfdb-713d-886c-739c136c208f","019ce7a0-0965-7aa7-a556-174d32a8e773","[{""page_index"":0,""viewing_time"":7398}]","7399","","","","","","","","",""
"","","","","","html-keyboard-response","131","444155","0.0-131.0","3D2DB2CE66AF4513A1DF345A9F5C1C1F","019ce7a9-dfdb-713d-886c-739c136c208f","019ce7a0-0965-7aa7-a556-174d32a8e773","","null","
        <div class=""stimulus-container"" style=""display: flex; align-items: center; justify-content: center; gap: 30px;"">
            <img src=""images/instructions/movie_1.png"" class=""exp-image"">
            <div style=""font-size: 40px; font-weight: bold; color: green; border: 5px solid green; padding: 25px; border-radius: 15px; background-color: #f0fff0;"">
                WORTH<br>$1
            </div>
        </div>
        <div class=""question-area""></div>","null","","","","","","",""
"","","","","","html-button-response","132","447165","0.0-132.0","3D2DB2CE66AF4513A1DF345A9F5C1C1F","019ce7a9-dfdb-713d-886c-739c136c208f","019ce7a0-0965-7aa7-a556-174d32a8e773","","null","
        <div class=""stimulus-container"" style=""display: flex; align-items: center; justify-content: center; gap: 30px;"">
            <img src=""images/instructions/movie_1.png"" class=""exp-image"">
            <div style=""font-size: 40px; font-weight: bold; color: green; border: 5px solid green; padding: 25px; border-radius: 15px; background-color: #f0fff0;"">
                WORTH<br>$1
            </div>
        </div>
        <div class=""question-area"">
            <p style=""font-size: 20px; font-weight: bold; margin: 0;"">Was there a person in this image?</p>
        </div>","null","","","","","","",""
"","","","","","instructions","133","449658","0.0-133.0","3D2DB2CE66AF4513A1DF345A9F5C1C1F","019ce7a9-dfdb-713d-886c-739c136c208f","019ce7a0-0965-7aa7-a556-174d32a8e773","[{""page_index"":0,""viewing_time"":2492}]","2493","","","","","","","","",""
"","","","","","html-keyboard-response","134","459675","0.0-134.0","3D2DB2CE66AF4513A1DF345A9F5C1C1F","019ce7a9-dfdb-713d-886c-739c136c208f","019ce7a0-0965-7aa7-a556-174d32a8e773","","null","
            <div class=""stimulus-container"" style=""display: flex; align-items: center; justify-content: center; gap: 30px;"">
                <img src=""images/causal_sequence/the_performance_causal/the_performance_causal_7.png"" class=""exp-image"">
                <div style=""font-size: 40px; font-weight: bold; color: green; border: 5px solid green; padding: 25px; border-radius: 15px; background-color: #f0fff0;"">
                    WORTH<br>$1
                </div>
            </div>
            <div class=""question-area""></div>","null","","","","","","",""
"","","","","","html-button-response","135","461020","0.0-135.0","3D2DB2CE66AF4513A1DF345A9F5C1C1F","019ce7a9-dfdb-713d-886c-739c136c208f","019ce7a0-0965-7aa7-a556-174d32a8e773","","1342","
            <div class=""stimulus-container"" style=""display: flex; align-items: center; justify-content: center; gap: 30px;"">
                <img src=""images/causal_sequence/the_performance_causal/the_performance_causal_7.png"" class=""exp-image"">
                <div style=""font-size: 40px; font-weight: bold; color: green; border: 5px solid green; padding: 25px; border-radius: 15px; background-color: #f0fff0;"">
                    WORTH<br>$1
                </div>
            </div>
            <div class=""question-area"">
                <p style=""font-size: 20px; font-weight: bold; margin: 0;"">Was there a person in this image?</p>
            </div>","0","part2_value_learning","","the_performance_causal","7","","",""
"","","","","","html-keyboard-response","136","471030","0.0-136.0","3D2DB2CE66AF4513A1DF345A9F5C1C1F","019ce7a9-dfdb-713d-886c-739c136c208f","019ce7a0-0965-7aa7-a556-174d32a8e773","","null","
            <div class=""stimulus-container"" style=""display: flex; align-items: center; justify-content: center; gap: 30px;"">
                <img src=""images/causal_sequence/saving_a_cat_causal/saving_a_cat_causal_3.png"" class=""exp-image"">
                <div style=""font-size: 40px; font-weight: bold; color: green; border: 5px solid green; padding: 25px; border-radius: 15px; background-color: #f0fff0;"">
                    WORTH<br>$1
                </div>
            </div>
            <div class=""question-area""></div>","null","","","","","","",""
"","","","","","html-button-response","137","472257","0.0-137.0","3D2DB2CE66AF4513A1DF345A9F5C1C1F","019ce7a9-dfdb-713d-886c-739c136c208f","019ce7a0-0965-7aa7-a556-174d32a8e773","","1224","
            <div class=""stimulus-container"" style=""display: flex; align-items: center; justify-content: center; gap: 30px;"">
                <img src=""images/causal_sequence/saving_a_cat_causal/saving_a_cat_causal_3.png"" class=""exp-image"">
                <div style=""font-size: 40px; font-weight: bold; color: green; border: 5px solid green; padding: 25px; border-radius: 15px; background-color: #f0fff0;"">
                    WORTH<br>$1
                </div>
            </div>
            <div class=""question-area"">
                <p style=""font-size: 20px; font-weight: bold; margin: 0;"">Was there a person in this image?</p>
            </div>","1","part2_value_learning","","saving_a_cat_causal","3","","",""
"","","","","","html-keyboard-response","138","482268","0.0-138.0","3D2DB2CE66AF4513A1DF345A9F5C1C1F","019ce7a9-dfdb-713d-886c-739c136c208f","019ce7a0-0965-7aa7-a556-174d32a8e773","","null","
            <div class=""stimulus-container"" style=""display: flex; align-items: center; justify-content: center; gap: 30px;"">
                <img src=""images/causal_sequence/dog_causal/dog_causal_6.png"" class=""exp-image"">
                <div style=""font-size: 40px; font-weight: bold; color: green; border: 5px solid green; padding: 25px; border-radius: 15px; background-color: #f0fff0;"">
                    WORTH<br>$1
                </div>
            </div>
            <div class=""question-area""></div>","null","","","","","","",""
"","","","","","html-button-response","139","483219","0.0-139.0","3D2DB2CE66AF4513A1DF345A9F5C1C1F","019ce7a9-dfdb-713d-886c-739c136c208f","019ce7a0-0965-7aa7-a556-174d32a8e773","","949","
            <div class=""stimulus-container"" style=""display: flex; align-items: center; justify-content: center; gap: 30px;"">
                <img src=""images/causal_sequence/dog_causal/dog_causal_6.png"" class=""exp-image"">
                <div style=""font-size: 40px; font-weight: bold; color: green; border: 5px solid green; padding: 25px; border-radius: 15px; background-color: #f0fff0;"">
                    WORTH<br>$1
                </div>
            </div>
            <div class=""question-area"">
                <p style=""font-size: 20px; font-weight: bold; margin: 0;"">Was there a person in this image?</p>
            </div>","1","part2_value_learning","","dog_causal","6","","",""
"","","","","","html-keyboard-response","140","493225","0.0-140.0","3D2DB2CE66AF4513A1DF345A9F5C1C1F","019ce7a9-dfdb-713d-886c-739c136c208f","019ce7a0-0965-7aa7-a556-174d32a8e773","","null","
            <div class=""stimulus-container"" style=""display: flex; align-items: center; justify-content: center; gap: 30px;"">
                <img src=""images/causal_sequence/museum_causal/museum_causal_4.png"" class=""exp-image"">
                <div style=""font-size: 40px; font-weight: bold; color: green; border: 5px solid green; padding: 25px; border-radius: 15px; background-color: #f0fff0;"">
                    WORTH<br>$1
                </div>
            </div>
            <div class=""question-area""></div>","null","","","","","","",""
"","","","","","html-button-response","141","495232","0.0-141.0","3D2DB2CE66AF4513A1DF345A9F5C1C1F","019ce7a9-dfdb-713d-886c-739c136c208f","019ce7a0-0965-7aa7-a556-174d32a8e773","","2004","
            <div class=""stimulus-container"" style=""display: flex; align-items: center; justify-content: center; gap: 30px;"">
                <img src=""images/causal_sequence/museum_causal/museum_causal_4.png"" class=""exp-image"">
                <div style=""font-size: 40px; font-weight: bold; color: green; border: 5px solid green; padding: 25px; border-radius: 15px; background-color: #f0fff0;"">
                    WORTH<br>$1
                </div>
            </div>
            <div class=""question-area"">
                <p style=""font-size: 20px; font-weight: bold; margin: 0;"">Was there a person in this image?</p>
            </div>","1","part2_value_learning","","museum_causal","4","","",""
"","","","","","html-keyboard-response","142","505236","0.0-142.0","3D2DB2CE66AF4513A1DF345A9F5C1C1F","019ce7a9-dfdb-713d-886c-739c136c208f","019ce7a0-0965-7aa7-a556-174d32a8e773","","null","
            <div class=""stimulus-container"" style=""display: flex; align-items: center; justify-content: center; gap: 30px;"">
                <img src=""images/causal_sequence/coin_causal/coin_causal_5.png"" class=""exp-image"">
                <div style=""font-size: 40px; font-weight: bold; color: green; border: 5px solid green; padding: 25px; border-radius: 15px; background-color: #f0fff0;"">
                    WORTH<br>$1
                </div>
            </div>
            <div class=""question-area""></div>","null","","","","","","",""
"","","","","","html-button-response","143","507418","0.0-143.0","3D2DB2CE66AF4513A1DF345A9F5C1C1F","019ce7a9-dfdb-713d-886c-739c136c208f","019ce7a0-0965-7aa7-a556-174d32a8e773","","2180","
            <div class=""stimulus-container"" style=""display: flex; align-items: center; justify-content: center; gap: 30px;"">
                <img src=""images/causal_sequence/coin_causal/coin_causal_5.png"" class=""exp-image"">
                <div style=""font-size: 40px; font-weight: bold; color: green; border: 5px solid green; padding: 25px; border-radius: 15px; background-color: #f0fff0;"">
                    WORTH<br>$1
                </div>
            </div>
            <div class=""question-area"">
                <p style=""font-size: 20px; font-weight: bold; margin: 0;"">Was there a person in this image?</p>
            </div>","0","part2_value_learning","","coin_causal","5","","",""
"","","","","","html-keyboard-response","144","517430","0.0-144.0","3D2DB2CE66AF4513A1DF345A9F5C1C1F","019ce7a9-dfdb-713d-886c-739c136c208f","019ce7a0-0965-7aa7-a556-174d32a8e773","","null","
            <div class=""stimulus-container"" style=""display: flex; align-items: center; justify-content: center; gap: 30px;"">
                <img src=""images/causal_sequence/package_causal/package_causal_3.png"" class=""exp-image"">
                <div style=""font-size: 40px; font-weight: bold; color: green; border: 5px solid green; padding: 25px; border-radius: 15px; background-color: #f0fff0;"">
                    WORTH<br>$1
                </div>
            </div>
            <div class=""question-area""></div>","null","","","","","","",""
"","","","","","html-button-response","145","519173","0.0-145.0","3D2DB2CE66AF4513A1DF345A9F5C1C1F","019ce7a9-dfdb-713d-886c-739c136c208f","019ce7a0-0965-7aa7-a556-174d32a8e773","","1741","
            <div class=""stimulus-container"" style=""display: flex; align-items: center; justify-content: center; gap: 30px;"">
                <img src=""images/causal_sequence/package_causal/package_causal_3.png"" class=""exp-image"">
                <div style=""font-size: 40px; font-weight: bold; color: green; border: 5px solid green; padding: 25px; border-radius: 15px; background-color: #f0fff0;"">
                    WORTH<br>$1
                </div>
            </div>
            <div class=""question-area"">
                <p style=""font-size: 20px; font-weight: bold; margin: 0;"">Was there a person in this image?</p>
            </div>","0","part2_value_learning","","package_causal","3","","",""
"","","","","","instructions","146","524688","0.0-146.0","3D2DB2CE66AF4513A1DF345A9F5C1C1F","019ce7a9-dfdb-713d-886c-739c136c208f","019ce7a0-0965-7aa7-a556-174d32a8e773","[{""page_index"":0,""viewing_time"":5513}]","5514","","","","","","","","",""
"","","","","","instructions","147","526295","0.0-147.0","3D2DB2CE66AF4513A1DF345A9F5C1C1F","019ce7a9-dfdb-713d-886c-739c136c208f","019ce7a0-0965-7aa7-a556-174d32a8e773","[{""page_index"":0,""viewing_time"":1606}]","1606","","","","","","","","",""
"","","","","","html-keyboard-response","148","536314","0.0-148.0-0.0","3D2DB2CE66AF4513A1DF345A9F5C1C1F","019ce7a9-dfdb-713d-886c-739c136c208f","019ce7a0-0965-7aa7-a556-174d32a8e773","","null","
                        <div style=""font-family: Arial; margin-bottom: 20px;""><h3>Which image is more valuable?</h3></div>
                        <div class=""stimulus-container"" style=""display: flex; width: 1100px; justify-content: center; gap: 50px;"">
                            <img src=""images/causal_sequence/package_causal/package_causal_1.png"" class=""exp-image"">
                            <img src=""images/causal_sequence/package_causal/package_causal_5.png"" class=""exp-image"">
                        </div>","null","","","","","","",""
"","","","","","html-button-response","149","537736","0.0-148.0-1.0","3D2DB2CE66AF4513A1DF345A9F5C1C1F","019ce7a9-dfdb-713d-886c-739c136c208f","019ce7a0-0965-7aa7-a556-174d32a8e773","","1418","
                        <div style=""font-family: Arial; margin-bottom: 20px;""><h3>Which image is more valuable?</h3></div>
                        <div class=""stimulus-container"" style=""display: flex; width: 1100px; justify-content: center; gap: 50px;"">
                            <img src=""images/causal_sequence/package_causal/package_causal_1.png"" class=""exp-image"">
                            <img src=""images/causal_sequence/package_causal/package_causal_5.png"" class=""exp-image"">
                        </div>","0","part3_final_choice","","package_causal","","3","1","-2"
"","","","","","html-keyboard-response","150","547755","0.0-149.0-0.0","3D2DB2CE66AF4513A1DF345A9F5C1C1F","019ce7a9-dfdb-713d-886c-739c136c208f","019ce7a0-0965-7aa7-a556-174d32a8e773","","null","
                        <div style=""font-family: Arial; margin-bottom: 20px;""><h3>Which image is more valuable?</h3></div>
                        <div class=""stimulus-container"" style=""display: flex; width: 1100px; justify-content: center; gap: 50px;"">
                            <img src=""images/causal_sequence/the_performance_causal/the_performance_causal_5.png"" class=""exp-image"">
                            <img src=""images/causal_sequence/the_performance_causal/the_performance_causal_9.png"" class=""exp-image"">
                        </div>","null","","","","","","",""
"","","","","","html-button-response","151","549199","0.0-149.0-1.0","3D2DB2CE66AF4513A1DF345A9F5C1C1F","019ce7a9-dfdb-713d-886c-739c136c208f","019ce7a0-0965-7aa7-a556-174d32a8e773","","1441","
                        <div style=""font-family: Arial; margin-bottom: 20px;""><h3>Which image is more valuable?</h3></div>
                        <div class=""stimulus-container"" style=""display: flex; width: 1100px; justify-content: center; gap: 50px;"">
                            <img src=""images/causal_sequence/the_performance_causal/the_performance_causal_5.png"" class=""exp-image"">
                            <img src=""images/causal_sequence/the_performance_causal/the_performance_causal_9.png"" class=""exp-image"">
                        </div>","0","part3_final_choice","","the_performance_causal","","7","5","-2"
"","","","","","html-keyboard-response","152","559209","0.0-150.0-0.0","3D2DB2CE66AF4513A1DF345A9F5C1C1F","019ce7a9-dfdb-713d-886c-739c136c208f","019ce7a0-0965-7aa7-a556-174d32a8e773","","null","
                        <div style=""font-family: Arial; margin-bottom: 20px;""><h3>Which image is more valuable?</h3></div>
                        <div class=""stimulus-container"" style=""display: flex; width: 1100px; justify-content: center; gap: 50px;"">
                            <img src=""images/causal_sequence/dog_causal/dog_causal_4.png"" class=""exp-image"">
                            <img src=""images/causal_sequence/dog_causal/dog_causal_8.png"" class=""exp-image"">
                        </div>","null","","","","","","",""
"","","","","","html-button-response","153","560037","0.0-150.0-1.0","3D2DB2CE66AF4513A1DF345A9F5C1C1F","019ce7a9-dfdb-713d-886c-739c136c208f","019ce7a0-0965-7aa7-a556-174d32a8e773","","825","
                        <div style=""font-family: Arial; margin-bottom: 20px;""><h3>Which image is more valuable?</h3></div>
                        <div class=""stimulus-container"" style=""display: flex; width: 1100px; justify-content: center; gap: 50px;"">
                            <img src=""images/causal_sequence/dog_causal/dog_causal_4.png"" class=""exp-image"">
                            <img src=""images/causal_sequence/dog_causal/dog_causal_8.png"" class=""exp-image"">
                        </div>","0","part3_final_choice","","dog_causal","","6","4","-2"
"","","","","","html-keyboard-response","154","570044","0.0-151.0-0.0","3D2DB2CE66AF4513A1DF345A9F5C1C1F","019ce7a9-dfdb-713d-886c-739c136c208f","019ce7a0-0965-7aa7-a556-174d32a8e773","","null","
                        <div style=""font-family: Arial; margin-bottom: 20px;""><h3>Which image is more valuable?</h3></div>
                        <div class=""stimulus-container"" style=""display: flex; width: 1100px; justify-content: center; gap: 50px;"">
                            <img src=""images/causal_sequence/saving_a_cat_causal/saving_a_cat_causal_5.png"" class=""exp-image"">
                            <img src=""images/causal_sequence/saving_a_cat_causal/saving_a_cat_causal_1.png"" class=""exp-image"">
                        </div>","null","","","","","","",""
"","","","","","html-button-response","155","575252","0.0-151.0-1.0","3D2DB2CE66AF4513A1DF345A9F5C1C1F","019ce7a9-dfdb-713d-886c-739c136c208f","019ce7a0-0965-7aa7-a556-174d32a8e773","","5206","
                        <div style=""font-family: Arial; margin-bottom: 20px;""><h3>Which image is more valuable?</h3></div>
                        <div class=""stimulus-container"" style=""display: flex; width: 1100px; justify-content: center; gap: 50px;"">
                            <img src=""images/causal_sequence/saving_a_cat_causal/saving_a_cat_causal_5.png"" class=""exp-image"">
                            <img src=""images/causal_sequence/saving_a_cat_causal/saving_a_cat_causal_1.png"" class=""exp-image"">
                        </div>","0","part3_final_choice","","saving_a_cat_causal","","3","5","2"
"","","","","","html-keyboard-response","156","585265","0.0-152.0-0.0","3D2DB2CE66AF4513A1DF345A9F5C1C1F","019ce7a9-dfdb-713d-886c-739c136c208f","019ce7a0-0965-7aa7-a556-174d32a8e773","","null","
                        <div style=""font-family: Arial; margin-bottom: 20px;""><h3>Which image is more valuable?</h3></div>
                        <div class=""stimulus-container"" style=""display: flex; width: 1100px; justify-content: center; gap: 50px;"">
                            <img src=""images/causal_sequence/museum_causal/museum_causal_6.png"" class=""exp-image"">
                            <img src=""images/causal_sequence/museum_causal/museum_causal_2.png"" class=""exp-image"">
                        </div>","null","","","","","","",""
"","","","","","html-button-response","157","587686","0.0-152.0-1.0","3D2DB2CE66AF4513A1DF345A9F5C1C1F","019ce7a9-dfdb-713d-886c-739c136c208f","019ce7a0-0965-7aa7-a556-174d32a8e773","","2418","
                        <div style=""font-family: Arial; margin-bottom: 20px;""><h3>Which image is more valuable?</h3></div>
                        <div class=""stimulus-container"" style=""display: flex; width: 1100px; justify-content: center; gap: 50px;"">
                            <img src=""images/causal_sequence/museum_causal/museum_causal_6.png"" class=""exp-image"">
                            <img src=""images/causal_sequence/museum_causal/museum_causal_2.png"" class=""exp-image"">
                        </div>","0","part3_final_choice","","museum_causal","","4","6","2"
"","","","","","html-keyboard-response","158","597695","0.0-153.0-0.0","3D2DB2CE66AF4513A1DF345A9F5C1C1F","019ce7a9-dfdb-713d-886c-739c136c208f","019ce7a0-0965-7aa7-a556-174d32a8e773","","null","
                        <div style=""font-family: Arial; margin-bottom: 20px;""><h3>Which image is more valuable?</h3></div>
                        <div class=""stimulus-container"" style=""display: flex; width: 1100px; justify-content: center; gap: 50px;"">
                            <img src=""images/causal_sequence/coin_causal/coin_causal_7.png"" class=""exp-image"">
                            <img src=""images/causal_sequence/coin_causal/coin_causal_3.png"" class=""exp-image"">
                        </div>","null","","","","","","",""
"","","","","","html-button-response","159","601175","0.0-153.0-1.0","3D2DB2CE66AF4513A1DF345A9F5C1C1F","019ce7a9-dfdb-713d-886c-739c136c208f","019ce7a0-0965-7aa7-a556-174d32a8e773","","3476","
                        <div style=""font-family: Arial; margin-bottom: 20px;""><h3>Which image is more valuable?</h3></div>
                        <div class=""stimulus-container"" style=""display: flex; width: 1100px; justify-content: center; gap: 50px;"">
                            <img src=""images/causal_sequence/coin_causal/coin_causal_7.png"" class=""exp-image"">
                            <img src=""images/causal_sequence/coin_causal/coin_causal_3.png"" class=""exp-image"">
                        </div>","0","part3_final_choice","","coin_causal","","5","7","2"
"","","","","","survey-text","160","681209","0.0-154.0","3D2DB2CE66AF4513A1DF345A9F5C1C1F","019ce7a9-dfdb-713d-886c-739c136c208f","019ce7a0-0965-7aa7-a556-174d32a8e773","","79990","","{""gender"":""MALE"",""age"":""30"",""decision_strategy"":""the quality of the image"",""consistency_check"":""i picked whichever felt right ""}","demographics_and_strategy","","","","","",""
"","","","","","instructions","161","688567","0.0-155.0","3D2DB2CE66AF4513A1DF345A9F5C1C1F","019ce7a9-dfdb-713d-886c-739c136c208f","019ce7a0-0965-7aa7-a556-174d32a8e773","[{""page_index"":0,""viewing_time"":7356}]","7356","","","","","","","","",""
