"success","timeout","failed_images","failed_audio","failed_video","trial_type","trial_index","time_elapsed","internal_node_id","subject_id","study_id","session_id","view_history","rt","stimulus","response","task","image_index","folder","valuable_image_index","reward_type","valuable_X","chosen_image_index","distance_from_X"
"false","false","[]","[]","[]","preload","0","993","0.0-0.0","85D480DC6DCC41B2AAD743C485F46898","019ce87d-a0a9-75ea-8b9c-ad37f8652cfb","019ce875-66c2-7f0b-b5e8-086c75889f84","","","","","","","","","","","",""
"","","","","","instructions","1","3859","0.0-1.0","85D480DC6DCC41B2AAD743C485F46898","019ce87d-a0a9-75ea-8b9c-ad37f8652cfb","019ce875-66c2-7f0b-b5e8-086c75889f84","[{""page_index"":0,""viewing_time"":2867}]","2867","","","","","","","","","",""
"","","","","","instructions","2","6327","0.0-2.0","85D480DC6DCC41B2AAD743C485F46898","019ce87d-a0a9-75ea-8b9c-ad37f8652cfb","019ce875-66c2-7f0b-b5e8-086c75889f84","[{""page_index"":0,""viewing_time"":2467}]","2467","","","","","","","","","",""
"true","","","","","fullscreen","3","11117","0.0-3.0","85D480DC6DCC41B2AAD743C485F46898","019ce87d-a0a9-75ea-8b9c-ad37f8652cfb","019ce875-66c2-7f0b-b5e8-086c75889f84","","3784","","","","","","","","","",""
"","","","","","instructions","4","24566","0.0-4.0","85D480DC6DCC41B2AAD743C485F46898","019ce87d-a0a9-75ea-8b9c-ad37f8652cfb","019ce875-66c2-7f0b-b5e8-086c75889f84","[{""page_index"":0,""viewing_time"":13449}]","13449","","","","","","","","","",""
"","","","","","instructions","5","34471","0.0-5.0","85D480DC6DCC41B2AAD743C485F46898","019ce87d-a0a9-75ea-8b9c-ad37f8652cfb","019ce875-66c2-7f0b-b5e8-086c75889f84","[{""page_index"":0,""viewing_time"":9903}]","9903","","","","","","","","","",""
"","","","","","html-keyboard-response","6","38665","0.0-6.0","85D480DC6DCC41B2AAD743C485F46898","019ce87d-a0a9-75ea-8b9c-ad37f8652cfb","019ce875-66c2-7f0b-b5e8-086c75889f84","","null","
                <div class=""stimulus-container"">
                    <img src=""images/instructions/movie_1.png"" class=""exp-image"">
                    <div class=""question-area""></div> 
                </div>","null","","","","","","","",""
"","","","","","html-button-response","7","41303","0.0-7.0","85D480DC6DCC41B2AAD743C485F46898","019ce87d-a0a9-75ea-8b9c-ad37f8652cfb","019ce875-66c2-7f0b-b5e8-086c75889f84","","2637","
                <div class=""stimulus-container"">
                    <img src=""images/instructions/movie_1.png"" class=""exp-image"">
                    <div class=""question-area"">
                        <p style=""font-size: 20px; font-weight: bold; margin: 0;"">Was there a person in this image?</p>
                    </div>
                </div>","0","example_question","1","","","","","",""
"","","","","","html-keyboard-response","8","45314","0.0-8.0","85D480DC6DCC41B2AAD743C485F46898","019ce87d-a0a9-75ea-8b9c-ad37f8652cfb","019ce875-66c2-7f0b-b5e8-086c75889f84","","null","
                <div class=""stimulus-container"">
                    <img src=""images/instructions/movie_2.png"" class=""exp-image"">
                    <div class=""question-area""></div> 
                </div>","null","","","","","","","",""
"","","","","","html-button-response","9","47169","0.0-9.0","85D480DC6DCC41B2AAD743C485F46898","019ce87d-a0a9-75ea-8b9c-ad37f8652cfb","019ce875-66c2-7f0b-b5e8-086c75889f84","","1855","
                <div class=""stimulus-container"">
                    <img src=""images/instructions/movie_2.png"" class=""exp-image"">
                    <div class=""question-area"">
                        <p style=""font-size: 20px; font-weight: bold; margin: 0;"">Was there a person in this image?</p>
                    </div>
                </div>","0","example_question","2","","","","","",""
"","","","","","html-keyboard-response","10","51398","0.0-10.0","85D480DC6DCC41B2AAD743C485F46898","019ce87d-a0a9-75ea-8b9c-ad37f8652cfb","019ce875-66c2-7f0b-b5e8-086c75889f84","","null","
                <div class=""stimulus-container"">
                    <img src=""images/instructions/movie_3.png"" class=""exp-image"">
                    <div class=""question-area""></div> 
                </div>","null","","","","","","","",""
"","","","","","html-button-response","11","52572","0.0-11.0","85D480DC6DCC41B2AAD743C485F46898","019ce87d-a0a9-75ea-8b9c-ad37f8652cfb","019ce875-66c2-7f0b-b5e8-086c75889f84","","1173","
                <div class=""stimulus-container"">
                    <img src=""images/instructions/movie_3.png"" class=""exp-image"">
                    <div class=""question-area"">
                        <p style=""font-size: 20px; font-weight: bold; margin: 0;"">Was there a person in this image?</p>
                    </div>
                </div>","0","example_question","3","","","","","",""
"","","","","","html-keyboard-response","12","56911","0.0-12.0","85D480DC6DCC41B2AAD743C485F46898","019ce87d-a0a9-75ea-8b9c-ad37f8652cfb","019ce875-66c2-7f0b-b5e8-086c75889f84","","null","
                <div class=""stimulus-container"">
                    <img src=""images/instructions/movie_4.png"" class=""exp-image"">
                    <div class=""question-area""></div> 
                </div>","null","","","","","","","",""
"","","","","","html-button-response","13","57887","0.0-13.0","85D480DC6DCC41B2AAD743C485F46898","019ce87d-a0a9-75ea-8b9c-ad37f8652cfb","019ce875-66c2-7f0b-b5e8-086c75889f84","","975","
                <div class=""stimulus-container"">
                    <img src=""images/instructions/movie_4.png"" class=""exp-image"">
                    <div class=""question-area"">
                        <p style=""font-size: 20px; font-weight: bold; margin: 0;"">Was there a person in this image?</p>
                    </div>
                </div>","0","example_question","4","","","","","",""
"","","","","","instructions","14","60637","0.0-14.0","85D480DC6DCC41B2AAD743C485F46898","019ce87d-a0a9-75ea-8b9c-ad37f8652cfb","019ce875-66c2-7f0b-b5e8-086c75889f84","[{""page_index"":0,""viewing_time"":2750}]","2750","","","","","","","","","",""
"","","","","","html-keyboard-response","15","61696","0.0-15.0","85D480DC6DCC41B2AAD743C485F46898","019ce87d-a0a9-75ea-8b9c-ad37f8652cfb","019ce875-66c2-7f0b-b5e8-086c75889f84","","null","<div style=""background-color: gray; width: 100vw; height: 100vh;""></div>","null","","","","","","","",""
"","","","","","html-keyboard-response","16","66859","0.0-16.0","85D480DC6DCC41B2AAD743C485F46898","019ce87d-a0a9-75ea-8b9c-ad37f8652cfb","019ce875-66c2-7f0b-b5e8-086c75889f84","","null","
                    <div class=""stimulus-container"">
                        <img src=""images/causal_sequence/dog_causal/dog_causal_1.png"" class=""exp-image"">
                        <div class=""question-area""></div> 
                    </div>","null","","","","","","","",""
"","","","","","html-button-response","17","69599","0.0-17.0","85D480DC6DCC41B2AAD743C485F46898","019ce87d-a0a9-75ea-8b9c-ad37f8652cfb","019ce875-66c2-7f0b-b5e8-086c75889f84","","2739","
                    <div class=""stimulus-container"">
                        <img src=""images/causal_sequence/dog_causal/dog_causal_1.png"" class=""exp-image"">
                        <div class=""question-area"">
                            <p style=""font-size: 20px; font-weight: bold; margin: 0;"">Is there a person in this image?</p>
                        </div>
                    </div>","0","main_causal_task","1","dog_causal","","","","",""
"","","","","","html-keyboard-response","18","74602","0.0-18.0","85D480DC6DCC41B2AAD743C485F46898","019ce87d-a0a9-75ea-8b9c-ad37f8652cfb","019ce875-66c2-7f0b-b5e8-086c75889f84","","null","
                    <div class=""stimulus-container"">
                        <img src=""images/causal_sequence/dog_causal/dog_causal_2.png"" class=""exp-image"">
                        <div class=""question-area""></div> 
                    </div>","null","","","","","","","",""
"","","","","","html-button-response","19","75637","0.0-19.0","85D480DC6DCC41B2AAD743C485F46898","019ce87d-a0a9-75ea-8b9c-ad37f8652cfb","019ce875-66c2-7f0b-b5e8-086c75889f84","","1035","
                    <div class=""stimulus-container"">
                        <img src=""images/causal_sequence/dog_causal/dog_causal_2.png"" class=""exp-image"">
                        <div class=""question-area"">
                            <p style=""font-size: 20px; font-weight: bold; margin: 0;"">Is there a person in this image?</p>
                        </div>
                    </div>","0","main_causal_task","2","dog_causal","","","","",""
"","","","","","html-keyboard-response","20","80645","0.0-20.0","85D480DC6DCC41B2AAD743C485F46898","019ce87d-a0a9-75ea-8b9c-ad37f8652cfb","019ce875-66c2-7f0b-b5e8-086c75889f84","","null","
                    <div class=""stimulus-container"">
                        <img src=""images/causal_sequence/dog_causal/dog_causal_3.png"" class=""exp-image"">
                        <div class=""question-area""></div> 
                    </div>","null","","","","","","","",""
"","","","","","html-button-response","21","82939","0.0-21.0","85D480DC6DCC41B2AAD743C485F46898","019ce87d-a0a9-75ea-8b9c-ad37f8652cfb","019ce875-66c2-7f0b-b5e8-086c75889f84","","2294","
                    <div class=""stimulus-container"">
                        <img src=""images/causal_sequence/dog_causal/dog_causal_3.png"" class=""exp-image"">
                        <div class=""question-area"">
                            <p style=""font-size: 20px; font-weight: bold; margin: 0;"">Is there a person in this image?</p>
                        </div>
                    </div>","0","main_causal_task","3","dog_causal","","","","",""
"","","","","","html-keyboard-response","22","88120","0.0-22.0","85D480DC6DCC41B2AAD743C485F46898","019ce87d-a0a9-75ea-8b9c-ad37f8652cfb","019ce875-66c2-7f0b-b5e8-086c75889f84","","null","
                    <div class=""stimulus-container"">
                        <img src=""images/causal_sequence/dog_causal/dog_causal_4.png"" class=""exp-image"">
                        <div class=""question-area""></div> 
                    </div>","null","","","","","","","",""
"","","","","","html-button-response","23","89248","0.0-23.0","85D480DC6DCC41B2AAD743C485F46898","019ce87d-a0a9-75ea-8b9c-ad37f8652cfb","019ce875-66c2-7f0b-b5e8-086c75889f84","","1126","
                    <div class=""stimulus-container"">
                        <img src=""images/causal_sequence/dog_causal/dog_causal_4.png"" class=""exp-image"">
                        <div class=""question-area"">
                            <p style=""font-size: 20px; font-weight: bold; margin: 0;"">Is there a person in this image?</p>
                        </div>
                    </div>","0","main_causal_task","4","dog_causal","","","","",""
"","","","","","html-keyboard-response","24","94493","0.0-24.0","85D480DC6DCC41B2AAD743C485F46898","019ce87d-a0a9-75ea-8b9c-ad37f8652cfb","019ce875-66c2-7f0b-b5e8-086c75889f84","","null","
                    <div class=""stimulus-container"">
                        <img src=""images/causal_sequence/dog_causal/dog_causal_5.png"" class=""exp-image"">
                        <div class=""question-area""></div> 
                    </div>","null","","","","","","","",""
"","","","","","html-button-response","25","95601","0.0-25.0","85D480DC6DCC41B2AAD743C485F46898","019ce87d-a0a9-75ea-8b9c-ad37f8652cfb","019ce875-66c2-7f0b-b5e8-086c75889f84","","1108","
                    <div class=""stimulus-container"">
                        <img src=""images/causal_sequence/dog_causal/dog_causal_5.png"" class=""exp-image"">
                        <div class=""question-area"">
                            <p style=""font-size: 20px; font-weight: bold; margin: 0;"">Is there a person in this image?</p>
                        </div>
                    </div>","0","main_causal_task","5","dog_causal","","","","",""
"","","","","","html-keyboard-response","26","100865","0.0-26.0","85D480DC6DCC41B2AAD743C485F46898","019ce87d-a0a9-75ea-8b9c-ad37f8652cfb","019ce875-66c2-7f0b-b5e8-086c75889f84","","null","
                    <div class=""stimulus-container"">
                        <img src=""images/causal_sequence/dog_causal/dog_causal_6.png"" class=""exp-image"">
                        <div class=""question-area""></div> 
                    </div>","null","","","","","","","",""
"","","","","","html-button-response","27","101881","0.0-27.0","85D480DC6DCC41B2AAD743C485F46898","019ce87d-a0a9-75ea-8b9c-ad37f8652cfb","019ce875-66c2-7f0b-b5e8-086c75889f84","","1016","
                    <div class=""stimulus-container"">
                        <img src=""images/causal_sequence/dog_causal/dog_causal_6.png"" class=""exp-image"">
                        <div class=""question-area"">
                            <p style=""font-size: 20px; font-weight: bold; margin: 0;"">Is there a person in this image?</p>
                        </div>
                    </div>","0","main_causal_task","6","dog_causal","","","","",""
"","","","","","html-keyboard-response","28","106951","0.0-28.0","85D480DC6DCC41B2AAD743C485F46898","019ce87d-a0a9-75ea-8b9c-ad37f8652cfb","019ce875-66c2-7f0b-b5e8-086c75889f84","","null","
                    <div class=""stimulus-container"">
                        <img src=""images/causal_sequence/dog_causal/dog_causal_7.png"" class=""exp-image"">
                        <div class=""question-area""></div> 
                    </div>","null","","","","","","","",""
"","","","","","html-button-response","29","110161","0.0-29.0","85D480DC6DCC41B2AAD743C485F46898","019ce87d-a0a9-75ea-8b9c-ad37f8652cfb","019ce875-66c2-7f0b-b5e8-086c75889f84","","null","
                    <div class=""stimulus-container"">
                        <img src=""images/causal_sequence/dog_causal/dog_causal_7.png"" class=""exp-image"">
                        <div class=""question-area"">
                            <p style=""font-size: 20px; font-weight: bold; margin: 0;"">Is there a person in this image?</p>
                        </div>
                    </div>","null","main_causal_task","7","dog_causal","","","","",""
"","","","","","html-keyboard-response","30","115168","0.0-30.0","85D480DC6DCC41B2AAD743C485F46898","019ce87d-a0a9-75ea-8b9c-ad37f8652cfb","019ce875-66c2-7f0b-b5e8-086c75889f84","","null","
                    <div class=""stimulus-container"">
                        <img src=""images/causal_sequence/dog_causal/dog_causal_8.png"" class=""exp-image"">
                        <div class=""question-area""></div> 
                    </div>","null","","","","","","","",""
"","","","","","html-button-response","31","116211","0.0-31.0","85D480DC6DCC41B2AAD743C485F46898","019ce87d-a0a9-75ea-8b9c-ad37f8652cfb","019ce875-66c2-7f0b-b5e8-086c75889f84","","1043","
                    <div class=""stimulus-container"">
                        <img src=""images/causal_sequence/dog_causal/dog_causal_8.png"" class=""exp-image"">
                        <div class=""question-area"">
                            <p style=""font-size: 20px; font-weight: bold; margin: 0;"">Is there a person in this image?</p>
                        </div>
                    </div>","0","main_causal_task","8","dog_causal","","","","",""
"","","","","","html-keyboard-response","32","121212","0.0-32.0","85D480DC6DCC41B2AAD743C485F46898","019ce87d-a0a9-75ea-8b9c-ad37f8652cfb","019ce875-66c2-7f0b-b5e8-086c75889f84","","null","
                    <div class=""stimulus-container"">
                        <img src=""images/causal_sequence/dog_causal/dog_causal_9.png"" class=""exp-image"">
                        <div class=""question-area""></div> 
                    </div>","null","","","","","","","",""
"","","","","","html-button-response","33","123084","0.0-33.0","85D480DC6DCC41B2AAD743C485F46898","019ce87d-a0a9-75ea-8b9c-ad37f8652cfb","019ce875-66c2-7f0b-b5e8-086c75889f84","","1872","
                    <div class=""stimulus-container"">
                        <img src=""images/causal_sequence/dog_causal/dog_causal_9.png"" class=""exp-image"">
                        <div class=""question-area"">
                            <p style=""font-size: 20px; font-weight: bold; margin: 0;"">Is there a person in this image?</p>
                        </div>
                    </div>","0","main_causal_task","9","dog_causal","","","","",""
"","","","","","html-keyboard-response","34","124089","0.0-34.0","85D480DC6DCC41B2AAD743C485F46898","019ce87d-a0a9-75ea-8b9c-ad37f8652cfb","019ce875-66c2-7f0b-b5e8-086c75889f84","","null","<div style=""background-color: gray; width: 100vw; height: 100vh;""></div>","null","","","","","","","",""
"","","","","","html-keyboard-response","35","129191","0.0-35.0","85D480DC6DCC41B2AAD743C485F46898","019ce87d-a0a9-75ea-8b9c-ad37f8652cfb","019ce875-66c2-7f0b-b5e8-086c75889f84","","null","
                    <div class=""stimulus-container"">
                        <img src=""images/causal_sequence/saving_a_cat_causal/saving_a_cat_causal_1.png"" class=""exp-image"">
                        <div class=""question-area""></div> 
                    </div>","null","","","","","","","",""
"","","","","","html-button-response","36","130371","0.0-36.0","85D480DC6DCC41B2AAD743C485F46898","019ce87d-a0a9-75ea-8b9c-ad37f8652cfb","019ce875-66c2-7f0b-b5e8-086c75889f84","","1178","
                    <div class=""stimulus-container"">
                        <img src=""images/causal_sequence/saving_a_cat_causal/saving_a_cat_causal_1.png"" class=""exp-image"">
                        <div class=""question-area"">
                            <p style=""font-size: 20px; font-weight: bold; margin: 0;"">Is there a person in this image?</p>
                        </div>
                    </div>","0","main_causal_task","1","saving_a_cat_causal","","","","",""
"","","","","","html-keyboard-response","37","135383","0.0-37.0","85D480DC6DCC41B2AAD743C485F46898","019ce87d-a0a9-75ea-8b9c-ad37f8652cfb","019ce875-66c2-7f0b-b5e8-086c75889f84","","null","
                    <div class=""stimulus-container"">
                        <img src=""images/causal_sequence/saving_a_cat_causal/saving_a_cat_causal_2.png"" class=""exp-image"">
                        <div class=""question-area""></div> 
                    </div>","null","","","","","","","",""
"","","","","","html-button-response","38","137251","0.0-38.0","85D480DC6DCC41B2AAD743C485F46898","019ce87d-a0a9-75ea-8b9c-ad37f8652cfb","019ce875-66c2-7f0b-b5e8-086c75889f84","","1868","
                    <div class=""stimulus-container"">
                        <img src=""images/causal_sequence/saving_a_cat_causal/saving_a_cat_causal_2.png"" class=""exp-image"">
                        <div class=""question-area"">
                            <p style=""font-size: 20px; font-weight: bold; margin: 0;"">Is there a person in this image?</p>
                        </div>
                    </div>","1","main_causal_task","2","saving_a_cat_causal","","","","",""
"","","","","","html-keyboard-response","39","142262","0.0-39.0","85D480DC6DCC41B2AAD743C485F46898","019ce87d-a0a9-75ea-8b9c-ad37f8652cfb","019ce875-66c2-7f0b-b5e8-086c75889f84","","null","
                    <div class=""stimulus-container"">
                        <img src=""images/causal_sequence/saving_a_cat_causal/saving_a_cat_causal_3.png"" class=""exp-image"">
                        <div class=""question-area""></div> 
                    </div>","null","","","","","","","",""
"","","","","","html-button-response","40","143322","0.0-40.0","85D480DC6DCC41B2AAD743C485F46898","019ce87d-a0a9-75ea-8b9c-ad37f8652cfb","019ce875-66c2-7f0b-b5e8-086c75889f84","","1059","
                    <div class=""stimulus-container"">
                        <img src=""images/causal_sequence/saving_a_cat_causal/saving_a_cat_causal_3.png"" class=""exp-image"">
                        <div class=""question-area"">
                            <p style=""font-size: 20px; font-weight: bold; margin: 0;"">Is there a person in this image?</p>
                        </div>
                    </div>","1","main_causal_task","3","saving_a_cat_causal","","","","",""
"","","","","","html-keyboard-response","41","148348","0.0-41.0","85D480DC6DCC41B2AAD743C485F46898","019ce87d-a0a9-75ea-8b9c-ad37f8652cfb","019ce875-66c2-7f0b-b5e8-086c75889f84","","null","
                    <div class=""stimulus-container"">
                        <img src=""images/causal_sequence/saving_a_cat_causal/saving_a_cat_causal_4.png"" class=""exp-image"">
                        <div class=""question-area""></div> 
                    </div>","null","","","","","","","",""
"","","","","","html-button-response","42","149537","0.0-42.0","85D480DC6DCC41B2AAD743C485F46898","019ce87d-a0a9-75ea-8b9c-ad37f8652cfb","019ce875-66c2-7f0b-b5e8-086c75889f84","","1189","
                    <div class=""stimulus-container"">
                        <img src=""images/causal_sequence/saving_a_cat_causal/saving_a_cat_causal_4.png"" class=""exp-image"">
                        <div class=""question-area"">
                            <p style=""font-size: 20px; font-weight: bold; margin: 0;"">Is there a person in this image?</p>
                        </div>
                    </div>","0","main_causal_task","4","saving_a_cat_causal","","","","",""
"","","","","","html-keyboard-response","43","154665","0.0-43.0","85D480DC6DCC41B2AAD743C485F46898","019ce87d-a0a9-75ea-8b9c-ad37f8652cfb","019ce875-66c2-7f0b-b5e8-086c75889f84","","null","
                    <div class=""stimulus-container"">
                        <img src=""images/causal_sequence/saving_a_cat_causal/saving_a_cat_causal_5.png"" class=""exp-image"">
                        <div class=""question-area""></div> 
                    </div>","null","","","","","","","",""
"","","","","","html-button-response","44","155462","0.0-44.0","85D480DC6DCC41B2AAD743C485F46898","019ce87d-a0a9-75ea-8b9c-ad37f8652cfb","019ce875-66c2-7f0b-b5e8-086c75889f84","","797","
                    <div class=""stimulus-container"">
                        <img src=""images/causal_sequence/saving_a_cat_causal/saving_a_cat_causal_5.png"" class=""exp-image"">
                        <div class=""question-area"">
                            <p style=""font-size: 20px; font-weight: bold; margin: 0;"">Is there a person in this image?</p>
                        </div>
                    </div>","0","main_causal_task","5","saving_a_cat_causal","","","","",""
"","","","","","html-keyboard-response","45","160713","0.0-45.0","85D480DC6DCC41B2AAD743C485F46898","019ce87d-a0a9-75ea-8b9c-ad37f8652cfb","019ce875-66c2-7f0b-b5e8-086c75889f84","","null","
                    <div class=""stimulus-container"">
                        <img src=""images/causal_sequence/saving_a_cat_causal/saving_a_cat_causal_6.png"" class=""exp-image"">
                        <div class=""question-area""></div> 
                    </div>","null","","","","","","","",""
"","","","","","html-button-response","46","161621","0.0-46.0","85D480DC6DCC41B2AAD743C485F46898","019ce87d-a0a9-75ea-8b9c-ad37f8652cfb","019ce875-66c2-7f0b-b5e8-086c75889f84","","909","
                    <div class=""stimulus-container"">
                        <img src=""images/causal_sequence/saving_a_cat_causal/saving_a_cat_causal_6.png"" class=""exp-image"">
                        <div class=""question-area"">
                            <p style=""font-size: 20px; font-weight: bold; margin: 0;"">Is there a person in this image?</p>
                        </div>
                    </div>","0","main_causal_task","6","saving_a_cat_causal","","","","",""
"","","","","","html-keyboard-response","47","166623","0.0-47.0","85D480DC6DCC41B2AAD743C485F46898","019ce87d-a0a9-75ea-8b9c-ad37f8652cfb","019ce875-66c2-7f0b-b5e8-086c75889f84","","null","
                    <div class=""stimulus-container"">
                        <img src=""images/causal_sequence/saving_a_cat_causal/saving_a_cat_causal_7.png"" class=""exp-image"">
                        <div class=""question-area""></div> 
                    </div>","null","","","","","","","",""
"","","","","","html-button-response","48","167725","0.0-48.0","85D480DC6DCC41B2AAD743C485F46898","019ce87d-a0a9-75ea-8b9c-ad37f8652cfb","019ce875-66c2-7f0b-b5e8-086c75889f84","","1102","
                    <div class=""stimulus-container"">
                        <img src=""images/causal_sequence/saving_a_cat_causal/saving_a_cat_causal_7.png"" class=""exp-image"">
                        <div class=""question-area"">
                            <p style=""font-size: 20px; font-weight: bold; margin: 0;"">Is there a person in this image?</p>
                        </div>
                    </div>","0","main_causal_task","7","saving_a_cat_causal","","","","",""
"","","","","","html-keyboard-response","49","172944","0.0-49.0","85D480DC6DCC41B2AAD743C485F46898","019ce87d-a0a9-75ea-8b9c-ad37f8652cfb","019ce875-66c2-7f0b-b5e8-086c75889f84","","null","
                    <div class=""stimulus-container"">
                        <img src=""images/causal_sequence/saving_a_cat_causal/saving_a_cat_causal_8.png"" class=""exp-image"">
                        <div class=""question-area""></div> 
                    </div>","null","","","","","","","",""
"","","","","","html-button-response","50","174267","0.0-50.0","85D480DC6DCC41B2AAD743C485F46898","019ce87d-a0a9-75ea-8b9c-ad37f8652cfb","019ce875-66c2-7f0b-b5e8-086c75889f84","","1324","
                    <div class=""stimulus-container"">
                        <img src=""images/causal_sequence/saving_a_cat_causal/saving_a_cat_causal_8.png"" class=""exp-image"">
                        <div class=""question-area"">
                            <p style=""font-size: 20px; font-weight: bold; margin: 0;"">Is there a person in this image?</p>
                        </div>
                    </div>","0","main_causal_task","8","saving_a_cat_causal","","","","",""
"","","","","","html-keyboard-response","51","179277","0.0-51.0","85D480DC6DCC41B2AAD743C485F46898","019ce87d-a0a9-75ea-8b9c-ad37f8652cfb","019ce875-66c2-7f0b-b5e8-086c75889f84","","null","
                    <div class=""stimulus-container"">
                        <img src=""images/causal_sequence/saving_a_cat_causal/saving_a_cat_causal_9.png"" class=""exp-image"">
                        <div class=""question-area""></div> 
                    </div>","null","","","","","","","",""
"","","","","","html-button-response","52","180103","0.0-52.0","85D480DC6DCC41B2AAD743C485F46898","019ce87d-a0a9-75ea-8b9c-ad37f8652cfb","019ce875-66c2-7f0b-b5e8-086c75889f84","","826","
                    <div class=""stimulus-container"">
                        <img src=""images/causal_sequence/saving_a_cat_causal/saving_a_cat_causal_9.png"" class=""exp-image"">
                        <div class=""question-area"">
                            <p style=""font-size: 20px; font-weight: bold; margin: 0;"">Is there a person in this image?</p>
                        </div>
                    </div>","0","main_causal_task","9","saving_a_cat_causal","","","","",""
"","","","","","html-keyboard-response","53","181113","0.0-53.0","85D480DC6DCC41B2AAD743C485F46898","019ce87d-a0a9-75ea-8b9c-ad37f8652cfb","019ce875-66c2-7f0b-b5e8-086c75889f84","","null","<div style=""background-color: gray; width: 100vw; height: 100vh;""></div>","null","","","","","","","",""
"","","","","","html-keyboard-response","54","186265","0.0-54.0","85D480DC6DCC41B2AAD743C485F46898","019ce87d-a0a9-75ea-8b9c-ad37f8652cfb","019ce875-66c2-7f0b-b5e8-086c75889f84","","null","
                    <div class=""stimulus-container"">
                        <img src=""images/causal_sequence/the_performance_causal/the_performance_causal_1.png"" class=""exp-image"">
                        <div class=""question-area""></div> 
                    </div>","null","","","","","","","",""
"","","","","","html-button-response","55","187056","0.0-55.0","85D480DC6DCC41B2AAD743C485F46898","019ce87d-a0a9-75ea-8b9c-ad37f8652cfb","019ce875-66c2-7f0b-b5e8-086c75889f84","","791","
                    <div class=""stimulus-container"">
                        <img src=""images/causal_sequence/the_performance_causal/the_performance_causal_1.png"" class=""exp-image"">
                        <div class=""question-area"">
                            <p style=""font-size: 20px; font-weight: bold; margin: 0;"">Is there a person in this image?</p>
                        </div>
                    </div>","0","main_causal_task","1","the_performance_causal","","","","",""
"","","","","","html-keyboard-response","56","192392","0.0-56.0","85D480DC6DCC41B2AAD743C485F46898","019ce87d-a0a9-75ea-8b9c-ad37f8652cfb","019ce875-66c2-7f0b-b5e8-086c75889f84","","null","
                    <div class=""stimulus-container"">
                        <img src=""images/causal_sequence/the_performance_causal/the_performance_causal_2.png"" class=""exp-image"">
                        <div class=""question-area""></div> 
                    </div>","null","","","","","","","",""
"","","","","","html-button-response","57","193260","0.0-57.0","85D480DC6DCC41B2AAD743C485F46898","019ce87d-a0a9-75ea-8b9c-ad37f8652cfb","019ce875-66c2-7f0b-b5e8-086c75889f84","","867","
                    <div class=""stimulus-container"">
                        <img src=""images/causal_sequence/the_performance_causal/the_performance_causal_2.png"" class=""exp-image"">
                        <div class=""question-area"">
                            <p style=""font-size: 20px; font-weight: bold; margin: 0;"">Is there a person in this image?</p>
                        </div>
                    </div>","0","main_causal_task","2","the_performance_causal","","","","",""
"","","","","","html-keyboard-response","58","198267","0.0-58.0","85D480DC6DCC41B2AAD743C485F46898","019ce87d-a0a9-75ea-8b9c-ad37f8652cfb","019ce875-66c2-7f0b-b5e8-086c75889f84","","null","
                    <div class=""stimulus-container"">
                        <img src=""images/causal_sequence/the_performance_causal/the_performance_causal_3.png"" class=""exp-image"">
                        <div class=""question-area""></div> 
                    </div>","null","","","","","","","",""
"","","","","","html-button-response","59","199249","0.0-59.0","85D480DC6DCC41B2AAD743C485F46898","019ce87d-a0a9-75ea-8b9c-ad37f8652cfb","019ce875-66c2-7f0b-b5e8-086c75889f84","","982","
                    <div class=""stimulus-container"">
                        <img src=""images/causal_sequence/the_performance_causal/the_performance_causal_3.png"" class=""exp-image"">
                        <div class=""question-area"">
                            <p style=""font-size: 20px; font-weight: bold; margin: 0;"">Is there a person in this image?</p>
                        </div>
                    </div>","0","main_causal_task","3","the_performance_causal","","","","",""
"","","","","","html-keyboard-response","60","204253","0.0-60.0","85D480DC6DCC41B2AAD743C485F46898","019ce87d-a0a9-75ea-8b9c-ad37f8652cfb","019ce875-66c2-7f0b-b5e8-086c75889f84","","null","
                    <div class=""stimulus-container"">
                        <img src=""images/causal_sequence/the_performance_causal/the_performance_causal_4.png"" class=""exp-image"">
                        <div class=""question-area""></div> 
                    </div>","null","","","","","","","",""
"","","","","","html-button-response","61","205277","0.0-61.0","85D480DC6DCC41B2AAD743C485F46898","019ce87d-a0a9-75ea-8b9c-ad37f8652cfb","019ce875-66c2-7f0b-b5e8-086c75889f84","","1023","
                    <div class=""stimulus-container"">
                        <img src=""images/causal_sequence/the_performance_causal/the_performance_causal_4.png"" class=""exp-image"">
                        <div class=""question-area"">
                            <p style=""font-size: 20px; font-weight: bold; margin: 0;"">Is there a person in this image?</p>
                        </div>
                    </div>","0","main_causal_task","4","the_performance_causal","","","","",""
"","","","","","html-keyboard-response","62","210289","0.0-62.0","85D480DC6DCC41B2AAD743C485F46898","019ce87d-a0a9-75ea-8b9c-ad37f8652cfb","019ce875-66c2-7f0b-b5e8-086c75889f84","","null","
                    <div class=""stimulus-container"">
                        <img src=""images/causal_sequence/the_performance_causal/the_performance_causal_5.png"" class=""exp-image"">
                        <div class=""question-area""></div> 
                    </div>","null","","","","","","","",""
"","","","","","html-button-response","63","211016","0.0-63.0","85D480DC6DCC41B2AAD743C485F46898","019ce87d-a0a9-75ea-8b9c-ad37f8652cfb","019ce875-66c2-7f0b-b5e8-086c75889f84","","727","
                    <div class=""stimulus-container"">
                        <img src=""images/causal_sequence/the_performance_causal/the_performance_causal_5.png"" class=""exp-image"">
                        <div class=""question-area"">
                            <p style=""font-size: 20px; font-weight: bold; margin: 0;"">Is there a person in this image?</p>
                        </div>
                    </div>","0","main_causal_task","5","the_performance_causal","","","","",""
"","","","","","html-keyboard-response","64","216274","0.0-64.0","85D480DC6DCC41B2AAD743C485F46898","019ce87d-a0a9-75ea-8b9c-ad37f8652cfb","019ce875-66c2-7f0b-b5e8-086c75889f84","","null","
                    <div class=""stimulus-container"">
                        <img src=""images/causal_sequence/the_performance_causal/the_performance_causal_6.png"" class=""exp-image"">
                        <div class=""question-area""></div> 
                    </div>","null","","","","","","","",""
"","","","","","html-button-response","65","217227","0.0-65.0","85D480DC6DCC41B2AAD743C485F46898","019ce87d-a0a9-75ea-8b9c-ad37f8652cfb","019ce875-66c2-7f0b-b5e8-086c75889f84","","952","
                    <div class=""stimulus-container"">
                        <img src=""images/causal_sequence/the_performance_causal/the_performance_causal_6.png"" class=""exp-image"">
                        <div class=""question-area"">
                            <p style=""font-size: 20px; font-weight: bold; margin: 0;"">Is there a person in this image?</p>
                        </div>
                    </div>","0","main_causal_task","6","the_performance_causal","","","","",""
"","","","","","html-keyboard-response","66","222239","0.0-66.0","85D480DC6DCC41B2AAD743C485F46898","019ce87d-a0a9-75ea-8b9c-ad37f8652cfb","019ce875-66c2-7f0b-b5e8-086c75889f84","","null","
                    <div class=""stimulus-container"">
                        <img src=""images/causal_sequence/the_performance_causal/the_performance_causal_7.png"" class=""exp-image"">
                        <div class=""question-area""></div> 
                    </div>","null","","","","","","","",""
"","","","","","html-button-response","67","223078","0.0-67.0","85D480DC6DCC41B2AAD743C485F46898","019ce87d-a0a9-75ea-8b9c-ad37f8652cfb","019ce875-66c2-7f0b-b5e8-086c75889f84","","838","
                    <div class=""stimulus-container"">
                        <img src=""images/causal_sequence/the_performance_causal/the_performance_causal_7.png"" class=""exp-image"">
                        <div class=""question-area"">
                            <p style=""font-size: 20px; font-weight: bold; margin: 0;"">Is there a person in this image?</p>
                        </div>
                    </div>","0","main_causal_task","7","the_performance_causal","","","","",""
"","","","","","html-keyboard-response","68","228083","0.0-68.0","85D480DC6DCC41B2AAD743C485F46898","019ce87d-a0a9-75ea-8b9c-ad37f8652cfb","019ce875-66c2-7f0b-b5e8-086c75889f84","","null","
                    <div class=""stimulus-container"">
                        <img src=""images/causal_sequence/the_performance_causal/the_performance_causal_8.png"" class=""exp-image"">
                        <div class=""question-area""></div> 
                    </div>","null","","","","","","","",""
"","","","","","html-button-response","69","229188","0.0-69.0","85D480DC6DCC41B2AAD743C485F46898","019ce87d-a0a9-75ea-8b9c-ad37f8652cfb","019ce875-66c2-7f0b-b5e8-086c75889f84","","1104","
                    <div class=""stimulus-container"">
                        <img src=""images/causal_sequence/the_performance_causal/the_performance_causal_8.png"" class=""exp-image"">
                        <div class=""question-area"">
                            <p style=""font-size: 20px; font-weight: bold; margin: 0;"">Is there a person in this image?</p>
                        </div>
                    </div>","0","main_causal_task","8","the_performance_causal","","","","",""
"","","","","","html-keyboard-response","70","234420","0.0-70.0","85D480DC6DCC41B2AAD743C485F46898","019ce87d-a0a9-75ea-8b9c-ad37f8652cfb","019ce875-66c2-7f0b-b5e8-086c75889f84","","null","
                    <div class=""stimulus-container"">
                        <img src=""images/causal_sequence/the_performance_causal/the_performance_causal_9.png"" class=""exp-image"">
                        <div class=""question-area""></div> 
                    </div>","null","","","","","","","",""
"","","","","","html-button-response","71","235941","0.0-71.0","85D480DC6DCC41B2AAD743C485F46898","019ce87d-a0a9-75ea-8b9c-ad37f8652cfb","019ce875-66c2-7f0b-b5e8-086c75889f84","","1520","
                    <div class=""stimulus-container"">
                        <img src=""images/causal_sequence/the_performance_causal/the_performance_causal_9.png"" class=""exp-image"">
                        <div class=""question-area"">
                            <p style=""font-size: 20px; font-weight: bold; margin: 0;"">Is there a person in this image?</p>
                        </div>
                    </div>","0","main_causal_task","9","the_performance_causal","","","","",""
"","","","","","html-keyboard-response","72","236943","0.0-72.0","85D480DC6DCC41B2AAD743C485F46898","019ce87d-a0a9-75ea-8b9c-ad37f8652cfb","019ce875-66c2-7f0b-b5e8-086c75889f84","","null","<div style=""background-color: gray; width: 100vw; height: 100vh;""></div>","null","","","","","","","",""
"","","","","","html-keyboard-response","73","241947","0.0-73.0","85D480DC6DCC41B2AAD743C485F46898","019ce87d-a0a9-75ea-8b9c-ad37f8652cfb","019ce875-66c2-7f0b-b5e8-086c75889f84","","null","
                    <div class=""stimulus-container"">
                        <img src=""images/causal_sequence/package_causal/package_causal_1.png"" class=""exp-image"">
                        <div class=""question-area""></div> 
                    </div>","null","","","","","","","",""
"","","","","","html-button-response","74","243981","0.0-74.0","85D480DC6DCC41B2AAD743C485F46898","019ce87d-a0a9-75ea-8b9c-ad37f8652cfb","019ce875-66c2-7f0b-b5e8-086c75889f84","","2034","
                    <div class=""stimulus-container"">
                        <img src=""images/causal_sequence/package_causal/package_causal_1.png"" class=""exp-image"">
                        <div class=""question-area"">
                            <p style=""font-size: 20px; font-weight: bold; margin: 0;"">Is there a person in this image?</p>
                        </div>
                    </div>","0","main_causal_task","1","package_causal","","","","",""
"","","","","","html-keyboard-response","75","248995","0.0-75.0","85D480DC6DCC41B2AAD743C485F46898","019ce87d-a0a9-75ea-8b9c-ad37f8652cfb","019ce875-66c2-7f0b-b5e8-086c75889f84","","null","
                    <div class=""stimulus-container"">
                        <img src=""images/causal_sequence/package_causal/package_causal_2.png"" class=""exp-image"">
                        <div class=""question-area""></div> 
                    </div>","null","","","","","","","",""
"","","","","","html-button-response","76","251753","0.0-76.0","85D480DC6DCC41B2AAD743C485F46898","019ce87d-a0a9-75ea-8b9c-ad37f8652cfb","019ce875-66c2-7f0b-b5e8-086c75889f84","","2756","
                    <div class=""stimulus-container"">
                        <img src=""images/causal_sequence/package_causal/package_causal_2.png"" class=""exp-image"">
                        <div class=""question-area"">
                            <p style=""font-size: 20px; font-weight: bold; margin: 0;"">Is there a person in this image?</p>
                        </div>
                    </div>","0","main_causal_task","2","package_causal","","","","",""
"","","","","","html-keyboard-response","77","256762","0.0-77.0","85D480DC6DCC41B2AAD743C485F46898","019ce87d-a0a9-75ea-8b9c-ad37f8652cfb","019ce875-66c2-7f0b-b5e8-086c75889f84","","null","
                    <div class=""stimulus-container"">
                        <img src=""images/causal_sequence/package_causal/package_causal_3.png"" class=""exp-image"">
                        <div class=""question-area""></div> 
                    </div>","null","","","","","","","",""
"","","","","","html-button-response","78","257643","0.0-78.0","85D480DC6DCC41B2AAD743C485F46898","019ce87d-a0a9-75ea-8b9c-ad37f8652cfb","019ce875-66c2-7f0b-b5e8-086c75889f84","","881","
                    <div class=""stimulus-container"">
                        <img src=""images/causal_sequence/package_causal/package_causal_3.png"" class=""exp-image"">
                        <div class=""question-area"">
                            <p style=""font-size: 20px; font-weight: bold; margin: 0;"">Is there a person in this image?</p>
                        </div>
                    </div>","0","main_causal_task","3","package_causal","","","","",""
"","","","","","html-keyboard-response","79","262737","0.0-79.0","85D480DC6DCC41B2AAD743C485F46898","019ce87d-a0a9-75ea-8b9c-ad37f8652cfb","019ce875-66c2-7f0b-b5e8-086c75889f84","","null","
                    <div class=""stimulus-container"">
                        <img src=""images/causal_sequence/package_causal/package_causal_4.png"" class=""exp-image"">
                        <div class=""question-area""></div> 
                    </div>","null","","","","","","","",""
"","","","","","html-button-response","80","263687","0.0-80.0","85D480DC6DCC41B2AAD743C485F46898","019ce87d-a0a9-75ea-8b9c-ad37f8652cfb","019ce875-66c2-7f0b-b5e8-086c75889f84","","949","
                    <div class=""stimulus-container"">
                        <img src=""images/causal_sequence/package_causal/package_causal_4.png"" class=""exp-image"">
                        <div class=""question-area"">
                            <p style=""font-size: 20px; font-weight: bold; margin: 0;"">Is there a person in this image?</p>
                        </div>
                    </div>","1","main_causal_task","4","package_causal","","","","",""
"","","","","","html-keyboard-response","81","268921","0.0-81.0","85D480DC6DCC41B2AAD743C485F46898","019ce87d-a0a9-75ea-8b9c-ad37f8652cfb","019ce875-66c2-7f0b-b5e8-086c75889f84","","null","
                    <div class=""stimulus-container"">
                        <img src=""images/causal_sequence/package_causal/package_causal_5.png"" class=""exp-image"">
                        <div class=""question-area""></div> 
                    </div>","null","","","","","","","",""
"","","","","","html-button-response","82","269733","0.0-82.0","85D480DC6DCC41B2AAD743C485F46898","019ce87d-a0a9-75ea-8b9c-ad37f8652cfb","019ce875-66c2-7f0b-b5e8-086c75889f84","","813","
                    <div class=""stimulus-container"">
                        <img src=""images/causal_sequence/package_causal/package_causal_5.png"" class=""exp-image"">
                        <div class=""question-area"">
                            <p style=""font-size: 20px; font-weight: bold; margin: 0;"">Is there a person in this image?</p>
                        </div>
                    </div>","0","main_causal_task","5","package_causal","","","","",""
"","","","","","html-keyboard-response","83","274745","0.0-83.0","85D480DC6DCC41B2AAD743C485F46898","019ce87d-a0a9-75ea-8b9c-ad37f8652cfb","019ce875-66c2-7f0b-b5e8-086c75889f84","","null","
                    <div class=""stimulus-container"">
                        <img src=""images/causal_sequence/package_causal/package_causal_6.png"" class=""exp-image"">
                        <div class=""question-area""></div> 
                    </div>","null","","","","","","","",""
"","","","","","html-button-response","84","276243","0.0-84.0","85D480DC6DCC41B2AAD743C485F46898","019ce87d-a0a9-75ea-8b9c-ad37f8652cfb","019ce875-66c2-7f0b-b5e8-086c75889f84","","1498","
                    <div class=""stimulus-container"">
                        <img src=""images/causal_sequence/package_causal/package_causal_6.png"" class=""exp-image"">
                        <div class=""question-area"">
                            <p style=""font-size: 20px; font-weight: bold; margin: 0;"">Is there a person in this image?</p>
                        </div>
                    </div>","0","main_causal_task","6","package_causal","","","","",""
"","","","","","html-keyboard-response","85","281592","0.0-85.0","85D480DC6DCC41B2AAD743C485F46898","019ce87d-a0a9-75ea-8b9c-ad37f8652cfb","019ce875-66c2-7f0b-b5e8-086c75889f84","","null","
                    <div class=""stimulus-container"">
                        <img src=""images/causal_sequence/package_causal/package_causal_7.png"" class=""exp-image"">
                        <div class=""question-area""></div> 
                    </div>","null","","","","","","","",""
"","","","","","html-button-response","86","282995","0.0-86.0","85D480DC6DCC41B2AAD743C485F46898","019ce87d-a0a9-75ea-8b9c-ad37f8652cfb","019ce875-66c2-7f0b-b5e8-086c75889f84","","1404","
                    <div class=""stimulus-container"">
                        <img src=""images/causal_sequence/package_causal/package_causal_7.png"" class=""exp-image"">
                        <div class=""question-area"">
                            <p style=""font-size: 20px; font-weight: bold; margin: 0;"">Is there a person in this image?</p>
                        </div>
                    </div>","0","main_causal_task","7","package_causal","","","","",""
"","","","","","html-keyboard-response","87","287998","0.0-87.0","85D480DC6DCC41B2AAD743C485F46898","019ce87d-a0a9-75ea-8b9c-ad37f8652cfb","019ce875-66c2-7f0b-b5e8-086c75889f84","","null","
                    <div class=""stimulus-container"">
                        <img src=""images/causal_sequence/package_causal/package_causal_8.png"" class=""exp-image"">
                        <div class=""question-area""></div> 
                    </div>","null","","","","","","","",""
"","","","","","html-button-response","88","289088","0.0-88.0","85D480DC6DCC41B2AAD743C485F46898","019ce87d-a0a9-75ea-8b9c-ad37f8652cfb","019ce875-66c2-7f0b-b5e8-086c75889f84","","1090","
                    <div class=""stimulus-container"">
                        <img src=""images/causal_sequence/package_causal/package_causal_8.png"" class=""exp-image"">
                        <div class=""question-area"">
                            <p style=""font-size: 20px; font-weight: bold; margin: 0;"">Is there a person in this image?</p>
                        </div>
                    </div>","0","main_causal_task","8","package_causal","","","","",""
"","","","","","html-keyboard-response","89","294233","0.0-89.0","85D480DC6DCC41B2AAD743C485F46898","019ce87d-a0a9-75ea-8b9c-ad37f8652cfb","019ce875-66c2-7f0b-b5e8-086c75889f84","","null","
                    <div class=""stimulus-container"">
                        <img src=""images/causal_sequence/package_causal/package_causal_9.png"" class=""exp-image"">
                        <div class=""question-area""></div> 
                    </div>","null","","","","","","","",""
"","","","","","html-button-response","90","294899","0.0-90.0","85D480DC6DCC41B2AAD743C485F46898","019ce87d-a0a9-75ea-8b9c-ad37f8652cfb","019ce875-66c2-7f0b-b5e8-086c75889f84","","666","
                    <div class=""stimulus-container"">
                        <img src=""images/causal_sequence/package_causal/package_causal_9.png"" class=""exp-image"">
                        <div class=""question-area"">
                            <p style=""font-size: 20px; font-weight: bold; margin: 0;"">Is there a person in this image?</p>
                        </div>
                    </div>","0","main_causal_task","9","package_causal","","","","",""
"","","","","","html-keyboard-response","91","295904","0.0-91.0","85D480DC6DCC41B2AAD743C485F46898","019ce87d-a0a9-75ea-8b9c-ad37f8652cfb","019ce875-66c2-7f0b-b5e8-086c75889f84","","null","<div style=""background-color: gray; width: 100vw; height: 100vh;""></div>","null","","","","","","","",""
"","","","","","html-keyboard-response","92","301201","0.0-92.0","85D480DC6DCC41B2AAD743C485F46898","019ce87d-a0a9-75ea-8b9c-ad37f8652cfb","019ce875-66c2-7f0b-b5e8-086c75889f84","","null","
                    <div class=""stimulus-container"">
                        <img src=""images/causal_sequence/coin_causal/coin_causal_1.png"" class=""exp-image"">
                        <div class=""question-area""></div> 
                    </div>","null","","","","","","","",""
"","","","","","html-button-response","93","302499","0.0-93.0","85D480DC6DCC41B2AAD743C485F46898","019ce87d-a0a9-75ea-8b9c-ad37f8652cfb","019ce875-66c2-7f0b-b5e8-086c75889f84","","1297","
                    <div class=""stimulus-container"">
                        <img src=""images/causal_sequence/coin_causal/coin_causal_1.png"" class=""exp-image"">
                        <div class=""question-area"">
                            <p style=""font-size: 20px; font-weight: bold; margin: 0;"">Is there a person in this image?</p>
                        </div>
                    </div>","0","main_causal_task","1","coin_causal","","","","",""
"","","","","","html-keyboard-response","94","307771","0.0-94.0","85D480DC6DCC41B2AAD743C485F46898","019ce87d-a0a9-75ea-8b9c-ad37f8652cfb","019ce875-66c2-7f0b-b5e8-086c75889f84","","null","
                    <div class=""stimulus-container"">
                        <img src=""images/causal_sequence/coin_causal/coin_causal_2.png"" class=""exp-image"">
                        <div class=""question-area""></div> 
                    </div>","null","","","","","","","",""
"","","","","","html-button-response","95","309141","0.0-95.0","85D480DC6DCC41B2AAD743C485F46898","019ce87d-a0a9-75ea-8b9c-ad37f8652cfb","019ce875-66c2-7f0b-b5e8-086c75889f84","","1368","
                    <div class=""stimulus-container"">
                        <img src=""images/causal_sequence/coin_causal/coin_causal_2.png"" class=""exp-image"">
                        <div class=""question-area"">
                            <p style=""font-size: 20px; font-weight: bold; margin: 0;"">Is there a person in this image?</p>
                        </div>
                    </div>","0","main_causal_task","2","coin_causal","","","","",""
"","","","","","html-keyboard-response","96","314155","0.0-96.0","85D480DC6DCC41B2AAD743C485F46898","019ce87d-a0a9-75ea-8b9c-ad37f8652cfb","019ce875-66c2-7f0b-b5e8-086c75889f84","","null","
                    <div class=""stimulus-container"">
                        <img src=""images/causal_sequence/coin_causal/coin_causal_3.png"" class=""exp-image"">
                        <div class=""question-area""></div> 
                    </div>","null","","","","","","","",""
"","","","","","html-button-response","97","317158","0.0-97.0","85D480DC6DCC41B2AAD743C485F46898","019ce87d-a0a9-75ea-8b9c-ad37f8652cfb","019ce875-66c2-7f0b-b5e8-086c75889f84","","null","
                    <div class=""stimulus-container"">
                        <img src=""images/causal_sequence/coin_causal/coin_causal_3.png"" class=""exp-image"">
                        <div class=""question-area"">
                            <p style=""font-size: 20px; font-weight: bold; margin: 0;"">Is there a person in this image?</p>
                        </div>
                    </div>","null","main_causal_task","3","coin_causal","","","","",""
"","","","","","html-keyboard-response","98","322168","0.0-98.0","85D480DC6DCC41B2AAD743C485F46898","019ce87d-a0a9-75ea-8b9c-ad37f8652cfb","019ce875-66c2-7f0b-b5e8-086c75889f84","","null","
                    <div class=""stimulus-container"">
                        <img src=""images/causal_sequence/coin_causal/coin_causal_4.png"" class=""exp-image"">
                        <div class=""question-area""></div> 
                    </div>","null","","","","","","","",""
"","","","","","html-button-response","99","323213","0.0-99.0","85D480DC6DCC41B2AAD743C485F46898","019ce87d-a0a9-75ea-8b9c-ad37f8652cfb","019ce875-66c2-7f0b-b5e8-086c75889f84","","1045","
                    <div class=""stimulus-container"">
                        <img src=""images/causal_sequence/coin_causal/coin_causal_4.png"" class=""exp-image"">
                        <div class=""question-area"">
                            <p style=""font-size: 20px; font-weight: bold; margin: 0;"">Is there a person in this image?</p>
                        </div>
                    </div>","0","main_causal_task","4","coin_causal","","","","",""
"","","","","","html-keyboard-response","100","328514","0.0-100.0","85D480DC6DCC41B2AAD743C485F46898","019ce87d-a0a9-75ea-8b9c-ad37f8652cfb","019ce875-66c2-7f0b-b5e8-086c75889f84","","null","
                    <div class=""stimulus-container"">
                        <img src=""images/causal_sequence/coin_causal/coin_causal_5.png"" class=""exp-image"">
                        <div class=""question-area""></div> 
                    </div>","null","","","","","","","",""
"","","","","","html-button-response","101","329322","0.0-101.0","85D480DC6DCC41B2AAD743C485F46898","019ce87d-a0a9-75ea-8b9c-ad37f8652cfb","019ce875-66c2-7f0b-b5e8-086c75889f84","","809","
                    <div class=""stimulus-container"">
                        <img src=""images/causal_sequence/coin_causal/coin_causal_5.png"" class=""exp-image"">
                        <div class=""question-area"">
                            <p style=""font-size: 20px; font-weight: bold; margin: 0;"">Is there a person in this image?</p>
                        </div>
                    </div>","0","main_causal_task","5","coin_causal","","","","",""
"","","","","","html-keyboard-response","102","334327","0.0-102.0","85D480DC6DCC41B2AAD743C485F46898","019ce87d-a0a9-75ea-8b9c-ad37f8652cfb","019ce875-66c2-7f0b-b5e8-086c75889f84","","null","
                    <div class=""stimulus-container"">
                        <img src=""images/causal_sequence/coin_causal/coin_causal_6.png"" class=""exp-image"">
                        <div class=""question-area""></div> 
                    </div>","null","","","","","","","",""
"","","","","","html-button-response","103","335279","0.0-103.0","85D480DC6DCC41B2AAD743C485F46898","019ce87d-a0a9-75ea-8b9c-ad37f8652cfb","019ce875-66c2-7f0b-b5e8-086c75889f84","","951","
                    <div class=""stimulus-container"">
                        <img src=""images/causal_sequence/coin_causal/coin_causal_6.png"" class=""exp-image"">
                        <div class=""question-area"">
                            <p style=""font-size: 20px; font-weight: bold; margin: 0;"">Is there a person in this image?</p>
                        </div>
                    </div>","0","main_causal_task","6","coin_causal","","","","",""
"","","","","","html-keyboard-response","104","340288","0.0-104.0","85D480DC6DCC41B2AAD743C485F46898","019ce87d-a0a9-75ea-8b9c-ad37f8652cfb","019ce875-66c2-7f0b-b5e8-086c75889f84","","null","
                    <div class=""stimulus-container"">
                        <img src=""images/causal_sequence/coin_causal/coin_causal_7.png"" class=""exp-image"">
                        <div class=""question-area""></div> 
                    </div>","null","","","","","","","",""
"","","","","","html-button-response","105","340927","0.0-105.0","85D480DC6DCC41B2AAD743C485F46898","019ce87d-a0a9-75ea-8b9c-ad37f8652cfb","019ce875-66c2-7f0b-b5e8-086c75889f84","","638","
                    <div class=""stimulus-container"">
                        <img src=""images/causal_sequence/coin_causal/coin_causal_7.png"" class=""exp-image"">
                        <div class=""question-area"">
                            <p style=""font-size: 20px; font-weight: bold; margin: 0;"">Is there a person in this image?</p>
                        </div>
                    </div>","1","main_causal_task","7","coin_causal","","","","",""
"","","","","","html-keyboard-response","106","345933","0.0-106.0","85D480DC6DCC41B2AAD743C485F46898","019ce87d-a0a9-75ea-8b9c-ad37f8652cfb","019ce875-66c2-7f0b-b5e8-086c75889f84","","null","
                    <div class=""stimulus-container"">
                        <img src=""images/causal_sequence/coin_causal/coin_causal_8.png"" class=""exp-image"">
                        <div class=""question-area""></div> 
                    </div>","null","","","","","","","",""
"","","","","","html-button-response","107","346727","0.0-107.0","85D480DC6DCC41B2AAD743C485F46898","019ce87d-a0a9-75ea-8b9c-ad37f8652cfb","019ce875-66c2-7f0b-b5e8-086c75889f84","","794","
                    <div class=""stimulus-container"">
                        <img src=""images/causal_sequence/coin_causal/coin_causal_8.png"" class=""exp-image"">
                        <div class=""question-area"">
                            <p style=""font-size: 20px; font-weight: bold; margin: 0;"">Is there a person in this image?</p>
                        </div>
                    </div>","0","main_causal_task","8","coin_causal","","","","",""
"","","","","","html-keyboard-response","108","351733","0.0-108.0","85D480DC6DCC41B2AAD743C485F46898","019ce87d-a0a9-75ea-8b9c-ad37f8652cfb","019ce875-66c2-7f0b-b5e8-086c75889f84","","null","
                    <div class=""stimulus-container"">
                        <img src=""images/causal_sequence/coin_causal/coin_causal_9.png"" class=""exp-image"">
                        <div class=""question-area""></div> 
                    </div>","null","","","","","","","",""
"","","","","","html-button-response","109","352497","0.0-109.0","85D480DC6DCC41B2AAD743C485F46898","019ce87d-a0a9-75ea-8b9c-ad37f8652cfb","019ce875-66c2-7f0b-b5e8-086c75889f84","","762","
                    <div class=""stimulus-container"">
                        <img src=""images/causal_sequence/coin_causal/coin_causal_9.png"" class=""exp-image"">
                        <div class=""question-area"">
                            <p style=""font-size: 20px; font-weight: bold; margin: 0;"">Is there a person in this image?</p>
                        </div>
                    </div>","0","main_causal_task","9","coin_causal","","","","",""
"","","","","","html-keyboard-response","110","353511","0.0-110.0","85D480DC6DCC41B2AAD743C485F46898","019ce87d-a0a9-75ea-8b9c-ad37f8652cfb","019ce875-66c2-7f0b-b5e8-086c75889f84","","null","<div style=""background-color: gray; width: 100vw; height: 100vh;""></div>","null","","","","","","","",""
"","","","","","html-keyboard-response","111","358521","0.0-111.0","85D480DC6DCC41B2AAD743C485F46898","019ce87d-a0a9-75ea-8b9c-ad37f8652cfb","019ce875-66c2-7f0b-b5e8-086c75889f84","","null","
                    <div class=""stimulus-container"">
                        <img src=""images/causal_sequence/museum_causal/museum_causal_1.png"" class=""exp-image"">
                        <div class=""question-area""></div> 
                    </div>","null","","","","","","","",""
"","","","","","html-button-response","112","359705","0.0-112.0","85D480DC6DCC41B2AAD743C485F46898","019ce87d-a0a9-75ea-8b9c-ad37f8652cfb","019ce875-66c2-7f0b-b5e8-086c75889f84","","1183","
                    <div class=""stimulus-container"">
                        <img src=""images/causal_sequence/museum_causal/museum_causal_1.png"" class=""exp-image"">
                        <div class=""question-area"">
                            <p style=""font-size: 20px; font-weight: bold; margin: 0;"">Is there a person in this image?</p>
                        </div>
                    </div>","0","main_causal_task","1","museum_causal","","","","",""
"","","","","","html-keyboard-response","113","365062","0.0-113.0","85D480DC6DCC41B2AAD743C485F46898","019ce87d-a0a9-75ea-8b9c-ad37f8652cfb","019ce875-66c2-7f0b-b5e8-086c75889f84","","null","
                    <div class=""stimulus-container"">
                        <img src=""images/causal_sequence/museum_causal/museum_causal_2.png"" class=""exp-image"">
                        <div class=""question-area""></div> 
                    </div>","null","","","","","","","",""
"","","","","","html-button-response","114","366071","0.0-114.0","85D480DC6DCC41B2AAD743C485F46898","019ce87d-a0a9-75ea-8b9c-ad37f8652cfb","019ce875-66c2-7f0b-b5e8-086c75889f84","","1008","
                    <div class=""stimulus-container"">
                        <img src=""images/causal_sequence/museum_causal/museum_causal_2.png"" class=""exp-image"">
                        <div class=""question-area"">
                            <p style=""font-size: 20px; font-weight: bold; margin: 0;"">Is there a person in this image?</p>
                        </div>
                    </div>","1","main_causal_task","2","museum_causal","","","","",""
"","","","","","html-keyboard-response","115","371347","0.0-115.0","85D480DC6DCC41B2AAD743C485F46898","019ce87d-a0a9-75ea-8b9c-ad37f8652cfb","019ce875-66c2-7f0b-b5e8-086c75889f84","","null","
                    <div class=""stimulus-container"">
                        <img src=""images/causal_sequence/museum_causal/museum_causal_3.png"" class=""exp-image"">
                        <div class=""question-area""></div> 
                    </div>","null","","","","","","","",""
"","","","","","html-button-response","116","372511","0.0-116.0","85D480DC6DCC41B2AAD743C485F46898","019ce87d-a0a9-75ea-8b9c-ad37f8652cfb","019ce875-66c2-7f0b-b5e8-086c75889f84","","1163","
                    <div class=""stimulus-container"">
                        <img src=""images/causal_sequence/museum_causal/museum_causal_3.png"" class=""exp-image"">
                        <div class=""question-area"">
                            <p style=""font-size: 20px; font-weight: bold; margin: 0;"">Is there a person in this image?</p>
                        </div>
                    </div>","0","main_causal_task","3","museum_causal","","","","",""
"","","","","","html-keyboard-response","117","377547","0.0-117.0","85D480DC6DCC41B2AAD743C485F46898","019ce87d-a0a9-75ea-8b9c-ad37f8652cfb","019ce875-66c2-7f0b-b5e8-086c75889f84","","null","
                    <div class=""stimulus-container"">
                        <img src=""images/causal_sequence/museum_causal/museum_causal_4.png"" class=""exp-image"">
                        <div class=""question-area""></div> 
                    </div>","null","","","","","","","",""
"","","","","","html-button-response","118","378032","0.0-118.0","85D480DC6DCC41B2AAD743C485F46898","019ce87d-a0a9-75ea-8b9c-ad37f8652cfb","019ce875-66c2-7f0b-b5e8-086c75889f84","","485","
                    <div class=""stimulus-container"">
                        <img src=""images/causal_sequence/museum_causal/museum_causal_4.png"" class=""exp-image"">
                        <div class=""question-area"">
                            <p style=""font-size: 20px; font-weight: bold; margin: 0;"">Is there a person in this image?</p>
                        </div>
                    </div>","1","main_causal_task","4","museum_causal","","","","",""
"","","","","","html-keyboard-response","119","383039","0.0-119.0","85D480DC6DCC41B2AAD743C485F46898","019ce87d-a0a9-75ea-8b9c-ad37f8652cfb","019ce875-66c2-7f0b-b5e8-086c75889f84","","null","
                    <div class=""stimulus-container"">
                        <img src=""images/causal_sequence/museum_causal/museum_causal_5.png"" class=""exp-image"">
                        <div class=""question-area""></div> 
                    </div>","null","","","","","","","",""
"","","","","","html-button-response","120","383930","0.0-120.0","85D480DC6DCC41B2AAD743C485F46898","019ce87d-a0a9-75ea-8b9c-ad37f8652cfb","019ce875-66c2-7f0b-b5e8-086c75889f84","","890","
                    <div class=""stimulus-container"">
                        <img src=""images/causal_sequence/museum_causal/museum_causal_5.png"" class=""exp-image"">
                        <div class=""question-area"">
                            <p style=""font-size: 20px; font-weight: bold; margin: 0;"">Is there a person in this image?</p>
                        </div>
                    </div>","0","main_causal_task","5","museum_causal","","","","",""
"","","","","","html-keyboard-response","121","388934","0.0-121.0","85D480DC6DCC41B2AAD743C485F46898","019ce87d-a0a9-75ea-8b9c-ad37f8652cfb","019ce875-66c2-7f0b-b5e8-086c75889f84","","null","
                    <div class=""stimulus-container"">
                        <img src=""images/causal_sequence/museum_causal/museum_causal_6.png"" class=""exp-image"">
                        <div class=""question-area""></div> 
                    </div>","null","","","","","","","",""
"","","","","","html-button-response","122","389763","0.0-122.0","85D480DC6DCC41B2AAD743C485F46898","019ce87d-a0a9-75ea-8b9c-ad37f8652cfb","019ce875-66c2-7f0b-b5e8-086c75889f84","","829","
                    <div class=""stimulus-container"">
                        <img src=""images/causal_sequence/museum_causal/museum_causal_6.png"" class=""exp-image"">
                        <div class=""question-area"">
                            <p style=""font-size: 20px; font-weight: bold; margin: 0;"">Is there a person in this image?</p>
                        </div>
                    </div>","0","main_causal_task","6","museum_causal","","","","",""
"","","","","","html-keyboard-response","123","395347","0.0-123.0","85D480DC6DCC41B2AAD743C485F46898","019ce87d-a0a9-75ea-8b9c-ad37f8652cfb","019ce875-66c2-7f0b-b5e8-086c75889f84","","null","
                    <div class=""stimulus-container"">
                        <img src=""images/causal_sequence/museum_causal/museum_causal_7.png"" class=""exp-image"">
                        <div class=""question-area""></div> 
                    </div>","null","","","","","","","",""
"","","","","","html-button-response","124","396019","0.0-124.0","85D480DC6DCC41B2AAD743C485F46898","019ce87d-a0a9-75ea-8b9c-ad37f8652cfb","019ce875-66c2-7f0b-b5e8-086c75889f84","","672","
                    <div class=""stimulus-container"">
                        <img src=""images/causal_sequence/museum_causal/museum_causal_7.png"" class=""exp-image"">
                        <div class=""question-area"">
                            <p style=""font-size: 20px; font-weight: bold; margin: 0;"">Is there a person in this image?</p>
                        </div>
                    </div>","1","main_causal_task","7","museum_causal","","","","",""
"","","","","","html-keyboard-response","125","401021","0.0-125.0","85D480DC6DCC41B2AAD743C485F46898","019ce87d-a0a9-75ea-8b9c-ad37f8652cfb","019ce875-66c2-7f0b-b5e8-086c75889f84","","null","
                    <div class=""stimulus-container"">
                        <img src=""images/causal_sequence/museum_causal/museum_causal_8.png"" class=""exp-image"">
                        <div class=""question-area""></div> 
                    </div>","null","","","","","","","",""
"","","","","","html-button-response","126","401447","0.0-126.0","85D480DC6DCC41B2AAD743C485F46898","019ce87d-a0a9-75ea-8b9c-ad37f8652cfb","019ce875-66c2-7f0b-b5e8-086c75889f84","","425","
                    <div class=""stimulus-container"">
                        <img src=""images/causal_sequence/museum_causal/museum_causal_8.png"" class=""exp-image"">
                        <div class=""question-area"">
                            <p style=""font-size: 20px; font-weight: bold; margin: 0;"">Is there a person in this image?</p>
                        </div>
                    </div>","0","main_causal_task","8","museum_causal","","","","",""
"","","","","","html-keyboard-response","127","406456","0.0-127.0","85D480DC6DCC41B2AAD743C485F46898","019ce87d-a0a9-75ea-8b9c-ad37f8652cfb","019ce875-66c2-7f0b-b5e8-086c75889f84","","null","
                    <div class=""stimulus-container"">
                        <img src=""images/causal_sequence/museum_causal/museum_causal_9.png"" class=""exp-image"">
                        <div class=""question-area""></div> 
                    </div>","null","","","","","","","",""
"","","","","","html-button-response","128","407389","0.0-128.0","85D480DC6DCC41B2AAD743C485F46898","019ce87d-a0a9-75ea-8b9c-ad37f8652cfb","019ce875-66c2-7f0b-b5e8-086c75889f84","","933","
                    <div class=""stimulus-container"">
                        <img src=""images/causal_sequence/museum_causal/museum_causal_9.png"" class=""exp-image"">
                        <div class=""question-area"">
                            <p style=""font-size: 20px; font-weight: bold; margin: 0;"">Is there a person in this image?</p>
                        </div>
                    </div>","1","main_causal_task","9","museum_causal","","","","",""
"","","","","","instructions","129","409283","0.0-129.0","85D480DC6DCC41B2AAD743C485F46898","019ce87d-a0a9-75ea-8b9c-ad37f8652cfb","019ce875-66c2-7f0b-b5e8-086c75889f84","[{""page_index"":0,""viewing_time"":1894}]","1894","","","","","","","","","",""
"","","","","","instructions","130","424688","0.0-130.0","85D480DC6DCC41B2AAD743C485F46898","019ce87d-a0a9-75ea-8b9c-ad37f8652cfb","019ce875-66c2-7f0b-b5e8-086c75889f84","[{""page_index"":0,""viewing_time"":15405}]","15405","","","","","","","","","",""
"","","","","","html-button-response","131","431383","0.0-131.0-0.0","85D480DC6DCC41B2AAD743C485F46898","019ce87d-a0a9-75ea-8b9c-ad37f8652cfb","019ce875-66c2-7f0b-b5e8-086c75889f84","","6694","
                <div style=""margin-bottom:20px;""><h3>Example: Valuable Image</h3></div>
                <div class=""stimulus-container"" style=""display: flex; align-items: center; justify-content: center; gap: 30px;"">
                    <img src=""images/instructions/movie_1.png"" class=""exp-image"">
                    <div style=""font-size: 35px; font-weight: bold; color: green; border: 5px solid green; padding: 20px; border-radius: 15px; background-color: #f0fff0;"">
                        WORTH<br>$1
                    </div>
                </div>
                <div class=""question-area""><p>Was there a person in this image?</p></div>","0","","","","","","","",""
"","","","","","html-button-response","132","433713","0.0-131.0-1.0","85D480DC6DCC41B2AAD743C485F46898","019ce87d-a0a9-75ea-8b9c-ad37f8652cfb","019ce875-66c2-7f0b-b5e8-086c75889f84","","2329","
                <div style=""margin-bottom:20px;""><h3>Example: Neutral Image</h3></div>
                <div class=""stimulus-container"" style=""display: flex; align-items: center; justify-content: center; gap: 30px;"">
                    <img src=""images/instructions/movie_2.png"" class=""exp-image"">
                    <div style=""font-size: 35px; font-weight: bold; color: grey; border: 5px solid grey; padding: 20px; border-radius: 15px; background-color: #f0f0f0;"">
                        NEUTRAL<br>VALUE
                    </div>
                </div>
                <div class=""question-area""><p>Was there a person in this image?</p></div>","0","","","","","","","",""
"","","","","","html-keyboard-response","133","442005","0.0-132.0","85D480DC6DCC41B2AAD743C485F46898","019ce87d-a0a9-75ea-8b9c-ad37f8652cfb","019ce875-66c2-7f0b-b5e8-086c75889f84","","null","
            <div class=""stimulus-container"" style=""display: flex; align-items: center; justify-content: center; gap: 30px;"">
                <img src=""images/causal_sequence/the_performance_causal/the_performance_causal_3.png"" class=""exp-image"">
                <div style=""font-size: 40px; font-weight: bold; color: green; border: 5px solid green; padding: 25px; border-radius: 15px; background-color: #f0fff0;"">
                    WORTH<br>$1
                </div>
            </div>
            <div class=""question-area""></div>","null","","","","","","","",""
"","","","","","html-button-response","134","444417","0.0-133.0","85D480DC6DCC41B2AAD743C485F46898","019ce87d-a0a9-75ea-8b9c-ad37f8652cfb","019ce875-66c2-7f0b-b5e8-086c75889f84","","2411","
            <div class=""stimulus-container"" style=""display: flex; align-items: center; justify-content: center; gap: 30px;"">
                <img src=""images/causal_sequence/the_performance_causal/the_performance_causal_3.png"" class=""exp-image"">
                <div style=""font-size: 40px; font-weight: bold; color: green; border: 5px solid green; padding: 25px; border-radius: 15px; background-color: #f0fff0;"">
                    WORTH<br>$1
                </div>
            </div>
            <div class=""question-area"">
                <p style=""font-size: 20px; font-weight: bold; margin: 0;"">Was there a person in this image?</p>
            </div>","0","part2_value_learning","","the_performance_causal","3","valuable","","",""
"","","","","","html-keyboard-response","135","452538","0.0-134.0","85D480DC6DCC41B2AAD743C485F46898","019ce87d-a0a9-75ea-8b9c-ad37f8652cfb","019ce875-66c2-7f0b-b5e8-086c75889f84","","null","
            <div class=""stimulus-container"" style=""display: flex; align-items: center; justify-content: center; gap: 30px;"">
                <img src=""images/causal_sequence/saving_a_cat_causal/saving_a_cat_causal_7.png"" class=""exp-image"">
                <div style=""font-size: 40px; font-weight: bold; color: green; border: 5px solid green; padding: 25px; border-radius: 15px; background-color: #f0fff0;"">
                    WORTH<br>$1
                </div>
            </div>
            <div class=""question-area""></div>","null","","","","","","","",""
"","","","","","html-button-response","136","455495","0.0-135.0","85D480DC6DCC41B2AAD743C485F46898","019ce87d-a0a9-75ea-8b9c-ad37f8652cfb","019ce875-66c2-7f0b-b5e8-086c75889f84","","2957","
            <div class=""stimulus-container"" style=""display: flex; align-items: center; justify-content: center; gap: 30px;"">
                <img src=""images/causal_sequence/saving_a_cat_causal/saving_a_cat_causal_7.png"" class=""exp-image"">
                <div style=""font-size: 40px; font-weight: bold; color: green; border: 5px solid green; padding: 25px; border-radius: 15px; background-color: #f0fff0;"">
                    WORTH<br>$1
                </div>
            </div>
            <div class=""question-area"">
                <p style=""font-size: 20px; font-weight: bold; margin: 0;"">Was there a person in this image?</p>
            </div>","0","part2_value_learning","","saving_a_cat_causal","7","valuable","","",""
"","","","","","html-keyboard-response","137","463498","0.0-136.0","85D480DC6DCC41B2AAD743C485F46898","019ce87d-a0a9-75ea-8b9c-ad37f8652cfb","019ce875-66c2-7f0b-b5e8-086c75889f84","","null","
            <div class=""stimulus-container"" style=""display: flex; align-items: center; justify-content: center; gap: 30px;"">
                <img src=""images/causal_sequence/package_causal/package_causal_6.png"" class=""exp-image"">
                <div style=""font-size: 40px; font-weight: bold; color: green; border: 5px solid green; padding: 25px; border-radius: 15px; background-color: #f0fff0;"">
                    WORTH<br>$1
                </div>
            </div>
            <div class=""question-area""></div>","null","","","","","","","",""
"","","","","","html-button-response","138","464793","0.0-137.0","85D480DC6DCC41B2AAD743C485F46898","019ce87d-a0a9-75ea-8b9c-ad37f8652cfb","019ce875-66c2-7f0b-b5e8-086c75889f84","","1294","
            <div class=""stimulus-container"" style=""display: flex; align-items: center; justify-content: center; gap: 30px;"">
                <img src=""images/causal_sequence/package_causal/package_causal_6.png"" class=""exp-image"">
                <div style=""font-size: 40px; font-weight: bold; color: green; border: 5px solid green; padding: 25px; border-radius: 15px; background-color: #f0fff0;"">
                    WORTH<br>$1
                </div>
            </div>
            <div class=""question-area"">
                <p style=""font-size: 20px; font-weight: bold; margin: 0;"">Was there a person in this image?</p>
            </div>","0","part2_value_learning","","package_causal","6","valuable","","",""
"","","","","","html-keyboard-response","139","472804","0.0-138.0","85D480DC6DCC41B2AAD743C485F46898","019ce87d-a0a9-75ea-8b9c-ad37f8652cfb","019ce875-66c2-7f0b-b5e8-086c75889f84","","null","
            <div class=""stimulus-container"" style=""display: flex; align-items: center; justify-content: center; gap: 30px;"">
                <img src=""images/causal_sequence/dog_causal/dog_causal_6.png"" class=""exp-image"">
                <div style=""font-size: 40px; font-weight: bold; color: grey; border: 5px solid grey; padding: 25px; border-radius: 15px; background-color: #f0f0f0;"">
                    NEUTRAL<br>VALUE
                </div>
            </div>
            <div class=""question-area""></div>","null","","","","","","","",""
"","","","","","html-button-response","140","473752","0.0-139.0","85D480DC6DCC41B2AAD743C485F46898","019ce87d-a0a9-75ea-8b9c-ad37f8652cfb","019ce875-66c2-7f0b-b5e8-086c75889f84","","947","
            <div class=""stimulus-container"" style=""display: flex; align-items: center; justify-content: center; gap: 30px;"">
                <img src=""images/causal_sequence/dog_causal/dog_causal_6.png"" class=""exp-image"">
                <div style=""font-size: 40px; font-weight: bold; color: grey; border: 5px solid grey; padding: 25px; border-radius: 15px; background-color: #f0f0f0;"">
                    NEUTRAL<br>VALUE
                </div>
            </div>
            <div class=""question-area"">
                <p style=""font-size: 20px; font-weight: bold; margin: 0;"">Was there a person in this image?</p>
            </div>","0","part2_value_learning","","dog_causal","6","neutral","","",""
"","","","","","html-keyboard-response","141","481757","0.0-140.0","85D480DC6DCC41B2AAD743C485F46898","019ce87d-a0a9-75ea-8b9c-ad37f8652cfb","019ce875-66c2-7f0b-b5e8-086c75889f84","","null","
            <div class=""stimulus-container"" style=""display: flex; align-items: center; justify-content: center; gap: 30px;"">
                <img src=""images/causal_sequence/museum_causal/museum_causal_3.png"" class=""exp-image"">
                <div style=""font-size: 40px; font-weight: bold; color: grey; border: 5px solid grey; padding: 25px; border-radius: 15px; background-color: #f0f0f0;"">
                    NEUTRAL<br>VALUE
                </div>
            </div>
            <div class=""question-area""></div>","null","","","","","","","",""
"","","","","","html-button-response","142","482913","0.0-141.0","85D480DC6DCC41B2AAD743C485F46898","019ce87d-a0a9-75ea-8b9c-ad37f8652cfb","019ce875-66c2-7f0b-b5e8-086c75889f84","","1156","
            <div class=""stimulus-container"" style=""display: flex; align-items: center; justify-content: center; gap: 30px;"">
                <img src=""images/causal_sequence/museum_causal/museum_causal_3.png"" class=""exp-image"">
                <div style=""font-size: 40px; font-weight: bold; color: grey; border: 5px solid grey; padding: 25px; border-radius: 15px; background-color: #f0f0f0;"">
                    NEUTRAL<br>VALUE
                </div>
            </div>
            <div class=""question-area"">
                <p style=""font-size: 20px; font-weight: bold; margin: 0;"">Was there a person in this image?</p>
            </div>","0","part2_value_learning","","museum_causal","3","neutral","","",""
"","","","","","html-keyboard-response","143","491210","0.0-142.0","85D480DC6DCC41B2AAD743C485F46898","019ce87d-a0a9-75ea-8b9c-ad37f8652cfb","019ce875-66c2-7f0b-b5e8-086c75889f84","","null","
            <div class=""stimulus-container"" style=""display: flex; align-items: center; justify-content: center; gap: 30px;"">
                <img src=""images/causal_sequence/coin_causal/coin_causal_5.png"" class=""exp-image"">
                <div style=""font-size: 40px; font-weight: bold; color: grey; border: 5px solid grey; padding: 25px; border-radius: 15px; background-color: #f0f0f0;"">
                    NEUTRAL<br>VALUE
                </div>
            </div>
            <div class=""question-area""></div>","null","","","","","","","",""
"","","","","","html-button-response","144","492268","0.0-143.0","85D480DC6DCC41B2AAD743C485F46898","019ce87d-a0a9-75ea-8b9c-ad37f8652cfb","019ce875-66c2-7f0b-b5e8-086c75889f84","","1057","
            <div class=""stimulus-container"" style=""display: flex; align-items: center; justify-content: center; gap: 30px;"">
                <img src=""images/causal_sequence/coin_causal/coin_causal_5.png"" class=""exp-image"">
                <div style=""font-size: 40px; font-weight: bold; color: grey; border: 5px solid grey; padding: 25px; border-radius: 15px; background-color: #f0f0f0;"">
                    NEUTRAL<br>VALUE
                </div>
            </div>
            <div class=""question-area"">
                <p style=""font-size: 20px; font-weight: bold; margin: 0;"">Was there a person in this image?</p>
            </div>","0","part2_value_learning","","coin_causal","5","neutral","","",""
"","","","","","instructions","145","496010","0.0-144.0","85D480DC6DCC41B2AAD743C485F46898","019ce87d-a0a9-75ea-8b9c-ad37f8652cfb","019ce875-66c2-7f0b-b5e8-086c75889f84","[{""page_index"":0,""viewing_time"":3744}]","3744","","","","","","","","","",""
"","","","","","html-keyboard-response","146","506018","0.0-145.0-0.0","85D480DC6DCC41B2AAD743C485F46898","019ce87d-a0a9-75ea-8b9c-ad37f8652cfb","019ce875-66c2-7f0b-b5e8-086c75889f84","","null","
                        <div style=""font-family: Arial; margin-bottom: 20px;""><h3>Which image is more valuable?</h3></div>
                        <div class=""stimulus-container"" style=""display: flex; width: 1100px; justify-content: center; gap: 50px;"">
                            <img src=""images/causal_sequence/dog_causal/dog_causal_5.png"" class=""exp-image"">
                            <img src=""images/causal_sequence/dog_causal/dog_causal_7.png"" class=""exp-image"">
                        </div>","null","","","","","","","",""
"","","","","","html-button-response","147","509764","0.0-145.0-1.0","85D480DC6DCC41B2AAD743C485F46898","019ce87d-a0a9-75ea-8b9c-ad37f8652cfb","019ce875-66c2-7f0b-b5e8-086c75889f84","","3746","
                        <div style=""font-family: Arial; margin-bottom: 20px;""><h3>Which image is more valuable?</h3></div>
                        <div class=""stimulus-container"" style=""display: flex; width: 1100px; justify-content: center; gap: 50px;"">
                            <img src=""images/causal_sequence/dog_causal/dog_causal_5.png"" class=""exp-image"">
                            <img src=""images/causal_sequence/dog_causal/dog_causal_7.png"" class=""exp-image"">
                        </div>","0","part3_final_choice","","dog_causal","","neutral","6","5","-1"
"","","","","","html-keyboard-response","148","519781","0.0-146.0-0.0","85D480DC6DCC41B2AAD743C485F46898","019ce87d-a0a9-75ea-8b9c-ad37f8652cfb","019ce875-66c2-7f0b-b5e8-086c75889f84","","null","
                        <div style=""font-family: Arial; margin-bottom: 20px;""><h3>Which image is more valuable?</h3></div>
                        <div class=""stimulus-container"" style=""display: flex; width: 1100px; justify-content: center; gap: 50px;"">
                            <img src=""images/causal_sequence/the_performance_causal/the_performance_causal_2.png"" class=""exp-image"">
                            <img src=""images/causal_sequence/the_performance_causal/the_performance_causal_4.png"" class=""exp-image"">
                        </div>","null","","","","","","","",""
"","","","","","html-button-response","149","520378","0.0-146.0-1.0","85D480DC6DCC41B2AAD743C485F46898","019ce87d-a0a9-75ea-8b9c-ad37f8652cfb","019ce875-66c2-7f0b-b5e8-086c75889f84","","597","
                        <div style=""font-family: Arial; margin-bottom: 20px;""><h3>Which image is more valuable?</h3></div>
                        <div class=""stimulus-container"" style=""display: flex; width: 1100px; justify-content: center; gap: 50px;"">
                            <img src=""images/causal_sequence/the_performance_causal/the_performance_causal_2.png"" class=""exp-image"">
                            <img src=""images/causal_sequence/the_performance_causal/the_performance_causal_4.png"" class=""exp-image"">
                        </div>","1","part3_final_choice","","the_performance_causal","","valuable","3","4","1"
"","","","","","html-keyboard-response","150","530388","0.0-147.0-0.0","85D480DC6DCC41B2AAD743C485F46898","019ce87d-a0a9-75ea-8b9c-ad37f8652cfb","019ce875-66c2-7f0b-b5e8-086c75889f84","","null","
                        <div style=""font-family: Arial; margin-bottom: 20px;""><h3>Which image is more valuable?</h3></div>
                        <div class=""stimulus-container"" style=""display: flex; width: 1100px; justify-content: center; gap: 50px;"">
                            <img src=""images/causal_sequence/coin_causal/coin_causal_6.png"" class=""exp-image"">
                            <img src=""images/causal_sequence/coin_causal/coin_causal_4.png"" class=""exp-image"">
                        </div>","null","","","","","","","",""
"","","","","","html-button-response","151","531873","0.0-147.0-1.0","85D480DC6DCC41B2AAD743C485F46898","019ce87d-a0a9-75ea-8b9c-ad37f8652cfb","019ce875-66c2-7f0b-b5e8-086c75889f84","","1483","
                        <div style=""font-family: Arial; margin-bottom: 20px;""><h3>Which image is more valuable?</h3></div>
                        <div class=""stimulus-container"" style=""display: flex; width: 1100px; justify-content: center; gap: 50px;"">
                            <img src=""images/causal_sequence/coin_causal/coin_causal_6.png"" class=""exp-image"">
                            <img src=""images/causal_sequence/coin_causal/coin_causal_4.png"" class=""exp-image"">
                        </div>","0","part3_final_choice","","coin_causal","","neutral","5","6","1"
"","","","","","html-keyboard-response","152","542930","0.0-148.0-0.0","85D480DC6DCC41B2AAD743C485F46898","019ce87d-a0a9-75ea-8b9c-ad37f8652cfb","019ce875-66c2-7f0b-b5e8-086c75889f84","","null","
                        <div style=""font-family: Arial; margin-bottom: 20px;""><h3>Which image is more valuable?</h3></div>
                        <div class=""stimulus-container"" style=""display: flex; width: 1100px; justify-content: center; gap: 50px;"">
                            <img src=""images/causal_sequence/package_causal/package_causal_5.png"" class=""exp-image"">
                            <img src=""images/causal_sequence/package_causal/package_causal_7.png"" class=""exp-image"">
                        </div>","null","","","","","","","",""
"","","","","","html-button-response","153","546164","0.0-148.0-1.0","85D480DC6DCC41B2AAD743C485F46898","019ce87d-a0a9-75ea-8b9c-ad37f8652cfb","019ce875-66c2-7f0b-b5e8-086c75889f84","","3234","
                        <div style=""font-family: Arial; margin-bottom: 20px;""><h3>Which image is more valuable?</h3></div>
                        <div class=""stimulus-container"" style=""display: flex; width: 1100px; justify-content: center; gap: 50px;"">
                            <img src=""images/causal_sequence/package_causal/package_causal_5.png"" class=""exp-image"">
                            <img src=""images/causal_sequence/package_causal/package_causal_7.png"" class=""exp-image"">
                        </div>","1","part3_final_choice","","package_causal","","valuable","6","7","1"
"","","","","","html-keyboard-response","154","556169","0.0-149.0-0.0","85D480DC6DCC41B2AAD743C485F46898","019ce87d-a0a9-75ea-8b9c-ad37f8652cfb","019ce875-66c2-7f0b-b5e8-086c75889f84","","null","
                        <div style=""font-family: Arial; margin-bottom: 20px;""><h3>Which image is more valuable?</h3></div>
                        <div class=""stimulus-container"" style=""display: flex; width: 1100px; justify-content: center; gap: 50px;"">
                            <img src=""images/causal_sequence/museum_causal/museum_causal_4.png"" class=""exp-image"">
                            <img src=""images/causal_sequence/museum_causal/museum_causal_2.png"" class=""exp-image"">
                        </div>","null","","","","","","","",""
"","","","","","html-button-response","155","556787","0.0-149.0-1.0","85D480DC6DCC41B2AAD743C485F46898","019ce87d-a0a9-75ea-8b9c-ad37f8652cfb","019ce875-66c2-7f0b-b5e8-086c75889f84","","616","
                        <div style=""font-family: Arial; margin-bottom: 20px;""><h3>Which image is more valuable?</h3></div>
                        <div class=""stimulus-container"" style=""display: flex; width: 1100px; justify-content: center; gap: 50px;"">
                            <img src=""images/causal_sequence/museum_causal/museum_causal_4.png"" class=""exp-image"">
                            <img src=""images/causal_sequence/museum_causal/museum_causal_2.png"" class=""exp-image"">
                        </div>","1","part3_final_choice","","museum_causal","","neutral","3","2","-1"
"","","","","","html-keyboard-response","156","567037","0.0-150.0-0.0","85D480DC6DCC41B2AAD743C485F46898","019ce87d-a0a9-75ea-8b9c-ad37f8652cfb","019ce875-66c2-7f0b-b5e8-086c75889f84","","null","
                        <div style=""font-family: Arial; margin-bottom: 20px;""><h3>Which image is more valuable?</h3></div>
                        <div class=""stimulus-container"" style=""display: flex; width: 1100px; justify-content: center; gap: 50px;"">
                            <img src=""images/causal_sequence/saving_a_cat_causal/saving_a_cat_causal_8.png"" class=""exp-image"">
                            <img src=""images/causal_sequence/saving_a_cat_causal/saving_a_cat_causal_6.png"" class=""exp-image"">
                        </div>","null","","","","","","","",""
"","","","","","html-button-response","157","567769","0.0-150.0-1.0","85D480DC6DCC41B2AAD743C485F46898","019ce87d-a0a9-75ea-8b9c-ad37f8652cfb","019ce875-66c2-7f0b-b5e8-086c75889f84","","731","
                        <div style=""font-family: Arial; margin-bottom: 20px;""><h3>Which image is more valuable?</h3></div>
                        <div class=""stimulus-container"" style=""display: flex; width: 1100px; justify-content: center; gap: 50px;"">
                            <img src=""images/causal_sequence/saving_a_cat_causal/saving_a_cat_causal_8.png"" class=""exp-image"">
                            <img src=""images/causal_sequence/saving_a_cat_causal/saving_a_cat_causal_6.png"" class=""exp-image"">
                        </div>","0","part3_final_choice","","saving_a_cat_causal","","valuable","7","8","1"
"","","","","","survey-text","158","613891","0.0-151.0","85D480DC6DCC41B2AAD743C485F46898","019ce87d-a0a9-75ea-8b9c-ad37f8652cfb","019ce875-66c2-7f0b-b5e8-086c75889f84","","46077","","{""gender"":""MALE"",""age"":""20"",""decision_strategy"":""By which AI image looked better made and most similar to the images with presented value in the previous section"",""consistency_check"":""I used the same logic for all pairs of images""}","demographics_and_strategy","","","","","","",""
"","","","","","instructions","159","617698","0.0-152.0","85D480DC6DCC41B2AAD743C485F46898","019ce87d-a0a9-75ea-8b9c-ad37f8652cfb","019ce875-66c2-7f0b-b5e8-086c75889f84","[{""page_index"":0,""viewing_time"":3808}]","3808","","","","","","","","","",""
