"success","timeout","failed_images","failed_audio","failed_video","trial_type","trial_index","time_elapsed","internal_node_id","subject_id","study_id","session_id","view_history","rt","stimulus","response","task","image_index","folder","sequence_type","presentation_order","valuable_image_index","reward_type","distance_from_x","target_X","chosen_image_index","is_x_plus_dist","correct_choice"
"true","false","[]","[]","[]","preload","0","6192","0.0-0.0","282F6EB95349403894A394B108FBBE1D","019cfa89-6b99-7554-984b-b8fd1e69c1a1","019cfa3a-388e-72ab-ad58-bdeb258f96cd","","","","","","","","","","","","","","","",""
"","","","","","instructions","1","11779","0.0-1.0","282F6EB95349403894A394B108FBBE1D","019cfa89-6b99-7554-984b-b8fd1e69c1a1","019cfa3a-388e-72ab-ad58-bdeb258f96cd","[{""page_index"":0,""viewing_time"":5587}]","5587","","","","","","","","","","","","","",""
"","","","","","instructions","2","38512","0.0-2.0","282F6EB95349403894A394B108FBBE1D","019cfa89-6b99-7554-984b-b8fd1e69c1a1","019cfa3a-388e-72ab-ad58-bdeb258f96cd","[{""page_index"":0,""viewing_time"":26733}]","26733","","","","","","","","","","","","","",""
"true","","","","","fullscreen","3","41071","0.0-3.0","282F6EB95349403894A394B108FBBE1D","019cfa89-6b99-7554-984b-b8fd1e69c1a1","019cfa3a-388e-72ab-ad58-bdeb258f96cd","","1553","","","","","","","","","","","","","",""
"","","","","","instructions","4","76138","0.0-4.0","282F6EB95349403894A394B108FBBE1D","019cfa89-6b99-7554-984b-b8fd1e69c1a1","019cfa3a-388e-72ab-ad58-bdeb258f96cd","[{""page_index"":0,""viewing_time"":35067}]","35067","","","","","","","","","","","","","",""
"","","","","","instructions","5","108890","0.0-5.0","282F6EB95349403894A394B108FBBE1D","019cfa89-6b99-7554-984b-b8fd1e69c1a1","019cfa3a-388e-72ab-ad58-bdeb258f96cd","[{""page_index"":0,""viewing_time"":32752}]","32752","","","","","","","","","","","","","",""
"","","","","","html-keyboard-response","6","112903","0.0-6.0","282F6EB95349403894A394B108FBBE1D","019cfa89-6b99-7554-984b-b8fd1e69c1a1","019cfa3a-388e-72ab-ad58-bdeb258f96cd","","null","
                <div class=""stimulus-container"">
                    <img src=""images/instructions/movie_1.png"" class=""exp-image"">
                    <div class=""question-area""></div> 
                </div>","null","","","","","","","","","","","",""
"","","","","","html-button-response","7","114439","0.0-7.0","282F6EB95349403894A394B108FBBE1D","019cfa89-6b99-7554-984b-b8fd1e69c1a1","019cfa3a-388e-72ab-ad58-bdeb258f96cd","","1536","
                <div class=""stimulus-container"">
                    <img src=""images/instructions/movie_1.png"" class=""exp-image"">
                    <div class=""question-area"">
                        <p style=""font-size: 20px; font-weight: bold; margin: 0;"">Was there a person in this image?</p>
                    </div>
                </div>","0","example_question","1","","","","","","","","","",""
"","","","","","html-keyboard-response","8","118450","0.0-8.0","282F6EB95349403894A394B108FBBE1D","019cfa89-6b99-7554-984b-b8fd1e69c1a1","019cfa3a-388e-72ab-ad58-bdeb258f96cd","","null","
                <div class=""stimulus-container"">
                    <img src=""images/instructions/movie_2.png"" class=""exp-image"">
                    <div class=""question-area""></div> 
                </div>","null","","","","","","","","","","","",""
"","","","","","html-button-response","9","119586","0.0-9.0","282F6EB95349403894A394B108FBBE1D","019cfa89-6b99-7554-984b-b8fd1e69c1a1","019cfa3a-388e-72ab-ad58-bdeb258f96cd","","1135","
                <div class=""stimulus-container"">
                    <img src=""images/instructions/movie_2.png"" class=""exp-image"">
                    <div class=""question-area"">
                        <p style=""font-size: 20px; font-weight: bold; margin: 0;"">Was there a person in this image?</p>
                    </div>
                </div>","0","example_question","2","","","","","","","","","",""
"","","","","","html-keyboard-response","10","123588","0.0-10.0","282F6EB95349403894A394B108FBBE1D","019cfa89-6b99-7554-984b-b8fd1e69c1a1","019cfa3a-388e-72ab-ad58-bdeb258f96cd","","null","
                <div class=""stimulus-container"">
                    <img src=""images/instructions/movie_3.png"" class=""exp-image"">
                    <div class=""question-area""></div> 
                </div>","null","","","","","","","","","","","",""
"","","","","","html-button-response","11","124273","0.0-11.0","282F6EB95349403894A394B108FBBE1D","019cfa89-6b99-7554-984b-b8fd1e69c1a1","019cfa3a-388e-72ab-ad58-bdeb258f96cd","","685","
                <div class=""stimulus-container"">
                    <img src=""images/instructions/movie_3.png"" class=""exp-image"">
                    <div class=""question-area"">
                        <p style=""font-size: 20px; font-weight: bold; margin: 0;"">Was there a person in this image?</p>
                    </div>
                </div>","0","example_question","3","","","","","","","","","",""
"","","","","","html-keyboard-response","12","128277","0.0-12.0","282F6EB95349403894A394B108FBBE1D","019cfa89-6b99-7554-984b-b8fd1e69c1a1","019cfa3a-388e-72ab-ad58-bdeb258f96cd","","null","
                <div class=""stimulus-container"">
                    <img src=""images/instructions/movie_4.png"" class=""exp-image"">
                    <div class=""question-area""></div> 
                </div>","null","","","","","","","","","","","",""
"","","","","","html-button-response","13","128908","0.0-13.0","282F6EB95349403894A394B108FBBE1D","019cfa89-6b99-7554-984b-b8fd1e69c1a1","019cfa3a-388e-72ab-ad58-bdeb258f96cd","","631","
                <div class=""stimulus-container"">
                    <img src=""images/instructions/movie_4.png"" class=""exp-image"">
                    <div class=""question-area"">
                        <p style=""font-size: 20px; font-weight: bold; margin: 0;"">Was there a person in this image?</p>
                    </div>
                </div>","0","example_question","4","","","","","","","","","",""
"","","","","","instructions","14","130580","0.0-14.0","282F6EB95349403894A394B108FBBE1D","019cfa89-6b99-7554-984b-b8fd1e69c1a1","019cfa3a-388e-72ab-ad58-bdeb258f96cd","[{""page_index"":0,""viewing_time"":1672}]","1672","","","","","","","","","","","","","",""
"","","","","","instructions","15","137951","0.0-15.0","282F6EB95349403894A394B108FBBE1D","019cfa89-6b99-7554-984b-b8fd1e69c1a1","019cfa3a-388e-72ab-ad58-bdeb258f96cd","[{""page_index"":0,""viewing_time"":7370}]","7370","","","","","","","","","","","","","",""
"","","","","","html-keyboard-response","16","142957","0.0-16.0","282F6EB95349403894A394B108FBBE1D","019cfa89-6b99-7554-984b-b8fd1e69c1a1","019cfa3a-388e-72ab-ad58-bdeb258f96cd","","null","<div style=""background-color: white; width: 100vw; height: 100vh;""></div>","null","","","","","","","","","","","",""
"","","","","","html-keyboard-response","17","143965","0.0-17.0","282F6EB95349403894A394B108FBBE1D","019cfa89-6b99-7554-984b-b8fd1e69c1a1","019cfa3a-388e-72ab-ad58-bdeb258f96cd","","null","
                <div class=""stimulus-container"">
                    <img src=""images/causal_sequence/coin_causal/coin_causal_1.png"" class=""exp-image"">
                    <div class=""question-area""></div> 
                </div>","null","","","","","","","","","","","",""
"","","","","","html-button-response","18","145840","0.0-18.0","282F6EB95349403894A394B108FBBE1D","019cfa89-6b99-7554-984b-b8fd1e69c1a1","019cfa3a-388e-72ab-ad58-bdeb258f96cd","","1874","
                <div class=""stimulus-container"">
                    <img src=""images/causal_sequence/coin_causal/coin_causal_1.png"" class=""exp-image"">
                    <div class=""question-area"">
                        <p style=""font-size: 20px; font-weight: bold; margin: 0;"">Is there a person in this image?</p>
                    </div>
                </div>","0","main_experiment_trial","1","coin_causal","causal_sequence","chronological","","","","","","",""
"","","","","","html-keyboard-response","19","146855","0.0-19.0","282F6EB95349403894A394B108FBBE1D","019cfa89-6b99-7554-984b-b8fd1e69c1a1","019cfa3a-388e-72ab-ad58-bdeb258f96cd","","null","
                <div class=""stimulus-container"">
                    <img src=""images/causal_sequence/coin_causal/coin_causal_2.png"" class=""exp-image"">
                    <div class=""question-area""></div> 
                </div>","null","","","","","","","","","","","",""
"","","","","","html-button-response","20","148312","0.0-20.0","282F6EB95349403894A394B108FBBE1D","019cfa89-6b99-7554-984b-b8fd1e69c1a1","019cfa3a-388e-72ab-ad58-bdeb258f96cd","","1457","
                <div class=""stimulus-container"">
                    <img src=""images/causal_sequence/coin_causal/coin_causal_2.png"" class=""exp-image"">
                    <div class=""question-area"">
                        <p style=""font-size: 20px; font-weight: bold; margin: 0;"">Is there a person in this image?</p>
                    </div>
                </div>","0","main_experiment_trial","2","coin_causal","causal_sequence","chronological","","","","","","",""
"","","","","","html-keyboard-response","21","149322","0.0-21.0","282F6EB95349403894A394B108FBBE1D","019cfa89-6b99-7554-984b-b8fd1e69c1a1","019cfa3a-388e-72ab-ad58-bdeb258f96cd","","null","
                <div class=""stimulus-container"">
                    <img src=""images/causal_sequence/coin_causal/coin_causal_3.png"" class=""exp-image"">
                    <div class=""question-area""></div> 
                </div>","null","","","","","","","","","","","",""
"","","","","","html-button-response","22","150957","0.0-22.0","282F6EB95349403894A394B108FBBE1D","019cfa89-6b99-7554-984b-b8fd1e69c1a1","019cfa3a-388e-72ab-ad58-bdeb258f96cd","","1635","
                <div class=""stimulus-container"">
                    <img src=""images/causal_sequence/coin_causal/coin_causal_3.png"" class=""exp-image"">
                    <div class=""question-area"">
                        <p style=""font-size: 20px; font-weight: bold; margin: 0;"">Is there a person in this image?</p>
                    </div>
                </div>","0","main_experiment_trial","3","coin_causal","causal_sequence","chronological","","","","","","",""
"","","","","","html-keyboard-response","23","151959","0.0-23.0","282F6EB95349403894A394B108FBBE1D","019cfa89-6b99-7554-984b-b8fd1e69c1a1","019cfa3a-388e-72ab-ad58-bdeb258f96cd","","null","
                <div class=""stimulus-container"">
                    <img src=""images/causal_sequence/coin_causal/coin_causal_4.png"" class=""exp-image"">
                    <div class=""question-area""></div> 
                </div>","null","","","","","","","","","","","",""
"","","","","","html-button-response","24","153397","0.0-24.0","282F6EB95349403894A394B108FBBE1D","019cfa89-6b99-7554-984b-b8fd1e69c1a1","019cfa3a-388e-72ab-ad58-bdeb258f96cd","","1438","
                <div class=""stimulus-container"">
                    <img src=""images/causal_sequence/coin_causal/coin_causal_4.png"" class=""exp-image"">
                    <div class=""question-area"">
                        <p style=""font-size: 20px; font-weight: bold; margin: 0;"">Is there a person in this image?</p>
                    </div>
                </div>","0","main_experiment_trial","4","coin_causal","causal_sequence","chronological","","","","","","",""
"","","","","","html-keyboard-response","25","154413","0.0-25.0","282F6EB95349403894A394B108FBBE1D","019cfa89-6b99-7554-984b-b8fd1e69c1a1","019cfa3a-388e-72ab-ad58-bdeb258f96cd","","null","
                <div class=""stimulus-container"">
                    <img src=""images/causal_sequence/coin_causal/coin_causal_5.png"" class=""exp-image"">
                    <div class=""question-area""></div> 
                </div>","null","","","","","","","","","","","",""
"","","","","","html-button-response","26","155163","0.0-26.0","282F6EB95349403894A394B108FBBE1D","019cfa89-6b99-7554-984b-b8fd1e69c1a1","019cfa3a-388e-72ab-ad58-bdeb258f96cd","","750","
                <div class=""stimulus-container"">
                    <img src=""images/causal_sequence/coin_causal/coin_causal_5.png"" class=""exp-image"">
                    <div class=""question-area"">
                        <p style=""font-size: 20px; font-weight: bold; margin: 0;"">Is there a person in this image?</p>
                    </div>
                </div>","0","main_experiment_trial","5","coin_causal","causal_sequence","chronological","","","","","","",""
"","","","","","html-keyboard-response","27","156178","0.0-27.0","282F6EB95349403894A394B108FBBE1D","019cfa89-6b99-7554-984b-b8fd1e69c1a1","019cfa3a-388e-72ab-ad58-bdeb258f96cd","","null","
                <div class=""stimulus-container"">
                    <img src=""images/causal_sequence/coin_causal/coin_causal_6.png"" class=""exp-image"">
                    <div class=""question-area""></div> 
                </div>","null","","","","","","","","","","","",""
"","","","","","html-button-response","28","156747","0.0-28.0","282F6EB95349403894A394B108FBBE1D","019cfa89-6b99-7554-984b-b8fd1e69c1a1","019cfa3a-388e-72ab-ad58-bdeb258f96cd","","569","
                <div class=""stimulus-container"">
                    <img src=""images/causal_sequence/coin_causal/coin_causal_6.png"" class=""exp-image"">
                    <div class=""question-area"">
                        <p style=""font-size: 20px; font-weight: bold; margin: 0;"">Is there a person in this image?</p>
                    </div>
                </div>","0","main_experiment_trial","6","coin_causal","causal_sequence","chronological","","","","","","",""
"","","","","","html-keyboard-response","29","157751","0.0-29.0","282F6EB95349403894A394B108FBBE1D","019cfa89-6b99-7554-984b-b8fd1e69c1a1","019cfa3a-388e-72ab-ad58-bdeb258f96cd","","null","
                <div class=""stimulus-container"">
                    <img src=""images/causal_sequence/coin_causal/coin_causal_7.png"" class=""exp-image"">
                    <div class=""question-area""></div> 
                </div>","null","","","","","","","","","","","",""
"","","","","","html-button-response","30","158625","0.0-30.0","282F6EB95349403894A394B108FBBE1D","019cfa89-6b99-7554-984b-b8fd1e69c1a1","019cfa3a-388e-72ab-ad58-bdeb258f96cd","","874","
                <div class=""stimulus-container"">
                    <img src=""images/causal_sequence/coin_causal/coin_causal_7.png"" class=""exp-image"">
                    <div class=""question-area"">
                        <p style=""font-size: 20px; font-weight: bold; margin: 0;"">Is there a person in this image?</p>
                    </div>
                </div>","1","main_experiment_trial","7","coin_causal","causal_sequence","chronological","","","","","","",""
"","","","","","html-keyboard-response","31","159630","0.0-31.0","282F6EB95349403894A394B108FBBE1D","019cfa89-6b99-7554-984b-b8fd1e69c1a1","019cfa3a-388e-72ab-ad58-bdeb258f96cd","","null","
                <div class=""stimulus-container"">
                    <img src=""images/causal_sequence/coin_causal/coin_causal_8.png"" class=""exp-image"">
                    <div class=""question-area""></div> 
                </div>","null","","","","","","","","","","","",""
"","","","","","html-button-response","32","160020","0.0-32.0","282F6EB95349403894A394B108FBBE1D","019cfa89-6b99-7554-984b-b8fd1e69c1a1","019cfa3a-388e-72ab-ad58-bdeb258f96cd","","390","
                <div class=""stimulus-container"">
                    <img src=""images/causal_sequence/coin_causal/coin_causal_8.png"" class=""exp-image"">
                    <div class=""question-area"">
                        <p style=""font-size: 20px; font-weight: bold; margin: 0;"">Is there a person in this image?</p>
                    </div>
                </div>","0","main_experiment_trial","8","coin_causal","causal_sequence","chronological","","","","","","",""
"","","","","","html-keyboard-response","33","161021","0.0-33.0","282F6EB95349403894A394B108FBBE1D","019cfa89-6b99-7554-984b-b8fd1e69c1a1","019cfa3a-388e-72ab-ad58-bdeb258f96cd","","null","
                <div class=""stimulus-container"">
                    <img src=""images/causal_sequence/coin_causal/coin_causal_9.png"" class=""exp-image"">
                    <div class=""question-area""></div> 
                </div>","null","","","","","","","","","","","",""
"","","","","","html-button-response","34","161427","0.0-34.0","282F6EB95349403894A394B108FBBE1D","019cfa89-6b99-7554-984b-b8fd1e69c1a1","019cfa3a-388e-72ab-ad58-bdeb258f96cd","","406","
                <div class=""stimulus-container"">
                    <img src=""images/causal_sequence/coin_causal/coin_causal_9.png"" class=""exp-image"">
                    <div class=""question-area"">
                        <p style=""font-size: 20px; font-weight: bold; margin: 0;"">Is there a person in this image?</p>
                    </div>
                </div>","0","main_experiment_trial","9","coin_causal","causal_sequence","chronological","","","","","","",""
"","","","","","html-keyboard-response","35","162433","0.0-35.0","282F6EB95349403894A394B108FBBE1D","019cfa89-6b99-7554-984b-b8fd1e69c1a1","019cfa3a-388e-72ab-ad58-bdeb258f96cd","","null","
                <div class=""stimulus-container"">
                    <img src=""images/causal_sequence/coin_causal/coin_causal_ten.png"" class=""exp-image"">
                    <div class=""question-area""></div> 
                </div>","null","","","","","","","","","","","",""
"","","","","","html-button-response","36","162958","0.0-36.0","282F6EB95349403894A394B108FBBE1D","019cfa89-6b99-7554-984b-b8fd1e69c1a1","019cfa3a-388e-72ab-ad58-bdeb258f96cd","","525","
                <div class=""stimulus-container"">
                    <img src=""images/causal_sequence/coin_causal/coin_causal_ten.png"" class=""exp-image"">
                    <div class=""question-area"">
                        <p style=""font-size: 20px; font-weight: bold; margin: 0;"">Is there a person in this image?</p>
                    </div>
                </div>","0","main_experiment_trial","ten","coin_causal","causal_sequence","chronological","","","","","","",""
"","","","","","html-keyboard-response","37","167965","0.0-37.0","282F6EB95349403894A394B108FBBE1D","019cfa89-6b99-7554-984b-b8fd1e69c1a1","019cfa3a-388e-72ab-ad58-bdeb258f96cd","","null","<div style=""background-color: white; width: 100vw; height: 100vh;""></div>","null","","","","","","","","","","","",""
"","","","","","html-keyboard-response","38","168980","0.0-38.0","282F6EB95349403894A394B108FBBE1D","019cfa89-6b99-7554-984b-b8fd1e69c1a1","019cfa3a-388e-72ab-ad58-bdeb258f96cd","","null","
                <div class=""stimulus-container"">
                    <img src=""images/semantic_sequence/exploring_nature_semantic/exploring_nature_semantic_1.png"" class=""exp-image"">
                    <div class=""question-area""></div> 
                </div>","null","","","","","","","","","","","",""
"","","","","","html-button-response","39","170168","0.0-39.0","282F6EB95349403894A394B108FBBE1D","019cfa89-6b99-7554-984b-b8fd1e69c1a1","019cfa3a-388e-72ab-ad58-bdeb258f96cd","","1187","
                <div class=""stimulus-container"">
                    <img src=""images/semantic_sequence/exploring_nature_semantic/exploring_nature_semantic_1.png"" class=""exp-image"">
                    <div class=""question-area"">
                        <p style=""font-size: 20px; font-weight: bold; margin: 0;"">Is there a person in this image?</p>
                    </div>
                </div>","0","main_experiment_trial","1","exploring_nature_semantic","semantic_sequence","chronological","","","","","","",""
"","","","","","html-keyboard-response","40","171171","0.0-40.0","282F6EB95349403894A394B108FBBE1D","019cfa89-6b99-7554-984b-b8fd1e69c1a1","019cfa3a-388e-72ab-ad58-bdeb258f96cd","","null","
                <div class=""stimulus-container"">
                    <img src=""images/semantic_sequence/exploring_nature_semantic/exploring_nature_semantic_2.png"" class=""exp-image"">
                    <div class=""question-area""></div> 
                </div>","null","","","","","","","","","","","",""
"","","","","","html-button-response","41","171636","0.0-41.0","282F6EB95349403894A394B108FBBE1D","019cfa89-6b99-7554-984b-b8fd1e69c1a1","019cfa3a-388e-72ab-ad58-bdeb258f96cd","","464","
                <div class=""stimulus-container"">
                    <img src=""images/semantic_sequence/exploring_nature_semantic/exploring_nature_semantic_2.png"" class=""exp-image"">
                    <div class=""question-area"">
                        <p style=""font-size: 20px; font-weight: bold; margin: 0;"">Is there a person in this image?</p>
                    </div>
                </div>","0","main_experiment_trial","2","exploring_nature_semantic","semantic_sequence","chronological","","","","","","",""
"","","","","","html-keyboard-response","42","172637","0.0-42.0","282F6EB95349403894A394B108FBBE1D","019cfa89-6b99-7554-984b-b8fd1e69c1a1","019cfa3a-388e-72ab-ad58-bdeb258f96cd","","null","
                <div class=""stimulus-container"">
                    <img src=""images/semantic_sequence/exploring_nature_semantic/exploring_nature_semantic_3.png"" class=""exp-image"">
                    <div class=""question-area""></div> 
                </div>","null","","","","","","","","","","","",""
"","","","","","html-button-response","43","172973","0.0-43.0","282F6EB95349403894A394B108FBBE1D","019cfa89-6b99-7554-984b-b8fd1e69c1a1","019cfa3a-388e-72ab-ad58-bdeb258f96cd","","335","
                <div class=""stimulus-container"">
                    <img src=""images/semantic_sequence/exploring_nature_semantic/exploring_nature_semantic_3.png"" class=""exp-image"">
                    <div class=""question-area"">
                        <p style=""font-size: 20px; font-weight: bold; margin: 0;"">Is there a person in this image?</p>
                    </div>
                </div>","0","main_experiment_trial","3","exploring_nature_semantic","semantic_sequence","chronological","","","","","","",""
"","","","","","html-keyboard-response","44","173981","0.0-44.0","282F6EB95349403894A394B108FBBE1D","019cfa89-6b99-7554-984b-b8fd1e69c1a1","019cfa3a-388e-72ab-ad58-bdeb258f96cd","","null","
                <div class=""stimulus-container"">
                    <img src=""images/semantic_sequence/exploring_nature_semantic/exploring_nature_semantic_4.png"" class=""exp-image"">
                    <div class=""question-area""></div> 
                </div>","null","","","","","","","","","","","",""
"","","","","","html-button-response","45","174303","0.0-45.0","282F6EB95349403894A394B108FBBE1D","019cfa89-6b99-7554-984b-b8fd1e69c1a1","019cfa3a-388e-72ab-ad58-bdeb258f96cd","","321","
                <div class=""stimulus-container"">
                    <img src=""images/semantic_sequence/exploring_nature_semantic/exploring_nature_semantic_4.png"" class=""exp-image"">
                    <div class=""question-area"">
                        <p style=""font-size: 20px; font-weight: bold; margin: 0;"">Is there a person in this image?</p>
                    </div>
                </div>","0","main_experiment_trial","4","exploring_nature_semantic","semantic_sequence","chronological","","","","","","",""
"","","","","","html-keyboard-response","46","175308","0.0-46.0","282F6EB95349403894A394B108FBBE1D","019cfa89-6b99-7554-984b-b8fd1e69c1a1","019cfa3a-388e-72ab-ad58-bdeb258f96cd","","null","
                <div class=""stimulus-container"">
                    <img src=""images/semantic_sequence/exploring_nature_semantic/exploring_nature_semantic_5.png"" class=""exp-image"">
                    <div class=""question-area""></div> 
                </div>","null","","","","","","","","","","","",""
"","","","","","html-button-response","47","175621","0.0-47.0","282F6EB95349403894A394B108FBBE1D","019cfa89-6b99-7554-984b-b8fd1e69c1a1","019cfa3a-388e-72ab-ad58-bdeb258f96cd","","312","
                <div class=""stimulus-container"">
                    <img src=""images/semantic_sequence/exploring_nature_semantic/exploring_nature_semantic_5.png"" class=""exp-image"">
                    <div class=""question-area"">
                        <p style=""font-size: 20px; font-weight: bold; margin: 0;"">Is there a person in this image?</p>
                    </div>
                </div>","0","main_experiment_trial","5","exploring_nature_semantic","semantic_sequence","chronological","","","","","","",""
"","","","","","html-keyboard-response","48","176635","0.0-48.0","282F6EB95349403894A394B108FBBE1D","019cfa89-6b99-7554-984b-b8fd1e69c1a1","019cfa3a-388e-72ab-ad58-bdeb258f96cd","","null","
                <div class=""stimulus-container"">
                    <img src=""images/semantic_sequence/exploring_nature_semantic/exploring_nature_semantic_6.png"" class=""exp-image"">
                    <div class=""question-area""></div> 
                </div>","null","","","","","","","","","","","",""
"","","","","","html-button-response","49","176889","0.0-49.0","282F6EB95349403894A394B108FBBE1D","019cfa89-6b99-7554-984b-b8fd1e69c1a1","019cfa3a-388e-72ab-ad58-bdeb258f96cd","","254","
                <div class=""stimulus-container"">
                    <img src=""images/semantic_sequence/exploring_nature_semantic/exploring_nature_semantic_6.png"" class=""exp-image"">
                    <div class=""question-area"">
                        <p style=""font-size: 20px; font-weight: bold; margin: 0;"">Is there a person in this image?</p>
                    </div>
                </div>","0","main_experiment_trial","6","exploring_nature_semantic","semantic_sequence","chronological","","","","","","",""
"","","","","","html-keyboard-response","50","177894","0.0-50.0","282F6EB95349403894A394B108FBBE1D","019cfa89-6b99-7554-984b-b8fd1e69c1a1","019cfa3a-388e-72ab-ad58-bdeb258f96cd","","null","
                <div class=""stimulus-container"">
                    <img src=""images/semantic_sequence/exploring_nature_semantic/exploring_nature_semantic_7.png"" class=""exp-image"">
                    <div class=""question-area""></div> 
                </div>","null","","","","","","","","","","","",""
"","","","","","html-button-response","51","178190","0.0-51.0","282F6EB95349403894A394B108FBBE1D","019cfa89-6b99-7554-984b-b8fd1e69c1a1","019cfa3a-388e-72ab-ad58-bdeb258f96cd","","295","
                <div class=""stimulus-container"">
                    <img src=""images/semantic_sequence/exploring_nature_semantic/exploring_nature_semantic_7.png"" class=""exp-image"">
                    <div class=""question-area"">
                        <p style=""font-size: 20px; font-weight: bold; margin: 0;"">Is there a person in this image?</p>
                    </div>
                </div>","0","main_experiment_trial","7","exploring_nature_semantic","semantic_sequence","chronological","","","","","","",""
"","","","","","html-keyboard-response","52","179198","0.0-52.0","282F6EB95349403894A394B108FBBE1D","019cfa89-6b99-7554-984b-b8fd1e69c1a1","019cfa3a-388e-72ab-ad58-bdeb258f96cd","","null","
                <div class=""stimulus-container"">
                    <img src=""images/semantic_sequence/exploring_nature_semantic/exploring_nature_semantic_8.png"" class=""exp-image"">
                    <div class=""question-area""></div> 
                </div>","null","","","","","","","","","","","",""
"","","","","","html-button-response","53","179521","0.0-53.0","282F6EB95349403894A394B108FBBE1D","019cfa89-6b99-7554-984b-b8fd1e69c1a1","019cfa3a-388e-72ab-ad58-bdeb258f96cd","","323","
                <div class=""stimulus-container"">
                    <img src=""images/semantic_sequence/exploring_nature_semantic/exploring_nature_semantic_8.png"" class=""exp-image"">
                    <div class=""question-area"">
                        <p style=""font-size: 20px; font-weight: bold; margin: 0;"">Is there a person in this image?</p>
                    </div>
                </div>","0","main_experiment_trial","8","exploring_nature_semantic","semantic_sequence","chronological","","","","","","",""
"","","","","","html-keyboard-response","54","180534","0.0-54.0","282F6EB95349403894A394B108FBBE1D","019cfa89-6b99-7554-984b-b8fd1e69c1a1","019cfa3a-388e-72ab-ad58-bdeb258f96cd","","null","
                <div class=""stimulus-container"">
                    <img src=""images/semantic_sequence/exploring_nature_semantic/exploring_nature_semantic_9.png"" class=""exp-image"">
                    <div class=""question-area""></div> 
                </div>","null","","","","","","","","","","","",""
"","","","","","html-button-response","55","180823","0.0-55.0","282F6EB95349403894A394B108FBBE1D","019cfa89-6b99-7554-984b-b8fd1e69c1a1","019cfa3a-388e-72ab-ad58-bdeb258f96cd","","289","
                <div class=""stimulus-container"">
                    <img src=""images/semantic_sequence/exploring_nature_semantic/exploring_nature_semantic_9.png"" class=""exp-image"">
                    <div class=""question-area"">
                        <p style=""font-size: 20px; font-weight: bold; margin: 0;"">Is there a person in this image?</p>
                    </div>
                </div>","0","main_experiment_trial","9","exploring_nature_semantic","semantic_sequence","chronological","","","","","","",""
"","","","","","html-keyboard-response","56","181829","0.0-56.0","282F6EB95349403894A394B108FBBE1D","019cfa89-6b99-7554-984b-b8fd1e69c1a1","019cfa3a-388e-72ab-ad58-bdeb258f96cd","","null","
                <div class=""stimulus-container"">
                    <img src=""images/semantic_sequence/exploring_nature_semantic/exploring_nature_semantic_ten.png"" class=""exp-image"">
                    <div class=""question-area""></div> 
                </div>","null","","","","","","","","","","","",""
"","","","","","html-button-response","57","182111","0.0-57.0","282F6EB95349403894A394B108FBBE1D","019cfa89-6b99-7554-984b-b8fd1e69c1a1","019cfa3a-388e-72ab-ad58-bdeb258f96cd","","282","
                <div class=""stimulus-container"">
                    <img src=""images/semantic_sequence/exploring_nature_semantic/exploring_nature_semantic_ten.png"" class=""exp-image"">
                    <div class=""question-area"">
                        <p style=""font-size: 20px; font-weight: bold; margin: 0;"">Is there a person in this image?</p>
                    </div>
                </div>","0","main_experiment_trial","ten","exploring_nature_semantic","semantic_sequence","chronological","","","","","","",""
"","","","","","html-keyboard-response","58","187117","0.0-58.0","282F6EB95349403894A394B108FBBE1D","019cfa89-6b99-7554-984b-b8fd1e69c1a1","019cfa3a-388e-72ab-ad58-bdeb258f96cd","","null","<div style=""background-color: white; width: 100vw; height: 100vh;""></div>","null","","","","","","","","","","","",""
"","","","","","html-keyboard-response","59","188130","0.0-59.0","282F6EB95349403894A394B108FBBE1D","019cfa89-6b99-7554-984b-b8fd1e69c1a1","019cfa3a-388e-72ab-ad58-bdeb258f96cd","","null","
                <div class=""stimulus-container"">
                    <img src=""images/semantic_sequence/housework_semantic/housework_semantic_1.png"" class=""exp-image"">
                    <div class=""question-area""></div> 
                </div>","null","","","","","","","","","","","",""
"","","","","","html-button-response","60","191139","0.0-60.0","282F6EB95349403894A394B108FBBE1D","019cfa89-6b99-7554-984b-b8fd1e69c1a1","019cfa3a-388e-72ab-ad58-bdeb258f96cd","","null","
                <div class=""stimulus-container"">
                    <img src=""images/semantic_sequence/housework_semantic/housework_semantic_1.png"" class=""exp-image"">
                    <div class=""question-area"">
                        <p style=""font-size: 20px; font-weight: bold; margin: 0;"">Is there a person in this image?</p>
                    </div>
                </div>","null","main_experiment_trial","1","housework_semantic","semantic_sequence","chronological","","","","","","",""
"","","","","","html-keyboard-response","61","192153","0.0-61.0","282F6EB95349403894A394B108FBBE1D","019cfa89-6b99-7554-984b-b8fd1e69c1a1","019cfa3a-388e-72ab-ad58-bdeb258f96cd","","null","
                <div class=""stimulus-container"">
                    <img src=""images/semantic_sequence/housework_semantic/housework_semantic_2.png"" class=""exp-image"">
                    <div class=""question-area""></div> 
                </div>","null","","","","","","","","","","","",""
"","","","","","html-button-response","62","192932","0.0-62.0","282F6EB95349403894A394B108FBBE1D","019cfa89-6b99-7554-984b-b8fd1e69c1a1","019cfa3a-388e-72ab-ad58-bdeb258f96cd","","779","
                <div class=""stimulus-container"">
                    <img src=""images/semantic_sequence/housework_semantic/housework_semantic_2.png"" class=""exp-image"">
                    <div class=""question-area"">
                        <p style=""font-size: 20px; font-weight: bold; margin: 0;"">Is there a person in this image?</p>
                    </div>
                </div>","0","main_experiment_trial","2","housework_semantic","semantic_sequence","chronological","","","","","","",""
"","","","","","html-keyboard-response","63","193949","0.0-63.0","282F6EB95349403894A394B108FBBE1D","019cfa89-6b99-7554-984b-b8fd1e69c1a1","019cfa3a-388e-72ab-ad58-bdeb258f96cd","","null","
                <div class=""stimulus-container"">
                    <img src=""images/semantic_sequence/housework_semantic/housework_semantic_3.png"" class=""exp-image"">
                    <div class=""question-area""></div> 
                </div>","null","","","","","","","","","","","",""
"","","","","","html-button-response","64","194304","0.0-64.0","282F6EB95349403894A394B108FBBE1D","019cfa89-6b99-7554-984b-b8fd1e69c1a1","019cfa3a-388e-72ab-ad58-bdeb258f96cd","","355","
                <div class=""stimulus-container"">
                    <img src=""images/semantic_sequence/housework_semantic/housework_semantic_3.png"" class=""exp-image"">
                    <div class=""question-area"">
                        <p style=""font-size: 20px; font-weight: bold; margin: 0;"">Is there a person in this image?</p>
                    </div>
                </div>","0","main_experiment_trial","3","housework_semantic","semantic_sequence","chronological","","","","","","",""
"","","","","","html-keyboard-response","65","195309","0.0-65.0","282F6EB95349403894A394B108FBBE1D","019cfa89-6b99-7554-984b-b8fd1e69c1a1","019cfa3a-388e-72ab-ad58-bdeb258f96cd","","null","
                <div class=""stimulus-container"">
                    <img src=""images/semantic_sequence/housework_semantic/housework_semantic_4.png"" class=""exp-image"">
                    <div class=""question-area""></div> 
                </div>","null","","","","","","","","","","","",""
"","","","","","html-button-response","66","195612","0.0-66.0","282F6EB95349403894A394B108FBBE1D","019cfa89-6b99-7554-984b-b8fd1e69c1a1","019cfa3a-388e-72ab-ad58-bdeb258f96cd","","303","
                <div class=""stimulus-container"">
                    <img src=""images/semantic_sequence/housework_semantic/housework_semantic_4.png"" class=""exp-image"">
                    <div class=""question-area"">
                        <p style=""font-size: 20px; font-weight: bold; margin: 0;"">Is there a person in this image?</p>
                    </div>
                </div>","0","main_experiment_trial","4","housework_semantic","semantic_sequence","chronological","","","","","","",""
"","","","","","html-keyboard-response","67","196620","0.0-67.0","282F6EB95349403894A394B108FBBE1D","019cfa89-6b99-7554-984b-b8fd1e69c1a1","019cfa3a-388e-72ab-ad58-bdeb258f96cd","","null","
                <div class=""stimulus-container"">
                    <img src=""images/semantic_sequence/housework_semantic/housework_semantic_5.png"" class=""exp-image"">
                    <div class=""question-area""></div> 
                </div>","null","","","","","","","","","","","",""
"","","","","","html-button-response","68","196941","0.0-68.0","282F6EB95349403894A394B108FBBE1D","019cfa89-6b99-7554-984b-b8fd1e69c1a1","019cfa3a-388e-72ab-ad58-bdeb258f96cd","","321","
                <div class=""stimulus-container"">
                    <img src=""images/semantic_sequence/housework_semantic/housework_semantic_5.png"" class=""exp-image"">
                    <div class=""question-area"">
                        <p style=""font-size: 20px; font-weight: bold; margin: 0;"">Is there a person in this image?</p>
                    </div>
                </div>","0","main_experiment_trial","5","housework_semantic","semantic_sequence","chronological","","","","","","",""
"","","","","","html-keyboard-response","69","197949","0.0-69.0","282F6EB95349403894A394B108FBBE1D","019cfa89-6b99-7554-984b-b8fd1e69c1a1","019cfa3a-388e-72ab-ad58-bdeb258f96cd","","null","
                <div class=""stimulus-container"">
                    <img src=""images/semantic_sequence/housework_semantic/housework_semantic_6.png"" class=""exp-image"">
                    <div class=""question-area""></div> 
                </div>","null","","","","","","","","","","","",""
"","","","","","html-button-response","70","198226","0.0-70.0","282F6EB95349403894A394B108FBBE1D","019cfa89-6b99-7554-984b-b8fd1e69c1a1","019cfa3a-388e-72ab-ad58-bdeb258f96cd","","277","
                <div class=""stimulus-container"">
                    <img src=""images/semantic_sequence/housework_semantic/housework_semantic_6.png"" class=""exp-image"">
                    <div class=""question-area"">
                        <p style=""font-size: 20px; font-weight: bold; margin: 0;"">Is there a person in this image?</p>
                    </div>
                </div>","0","main_experiment_trial","6","housework_semantic","semantic_sequence","chronological","","","","","","",""
"","","","","","html-keyboard-response","71","199233","0.0-71.0","282F6EB95349403894A394B108FBBE1D","019cfa89-6b99-7554-984b-b8fd1e69c1a1","019cfa3a-388e-72ab-ad58-bdeb258f96cd","","null","
                <div class=""stimulus-container"">
                    <img src=""images/semantic_sequence/housework_semantic/housework_semantic_7.png"" class=""exp-image"">
                    <div class=""question-area""></div> 
                </div>","null","","","","","","","","","","","",""
"","","","","","html-button-response","72","199549","0.0-72.0","282F6EB95349403894A394B108FBBE1D","019cfa89-6b99-7554-984b-b8fd1e69c1a1","019cfa3a-388e-72ab-ad58-bdeb258f96cd","","316","
                <div class=""stimulus-container"">
                    <img src=""images/semantic_sequence/housework_semantic/housework_semantic_7.png"" class=""exp-image"">
                    <div class=""question-area"">
                        <p style=""font-size: 20px; font-weight: bold; margin: 0;"">Is there a person in this image?</p>
                    </div>
                </div>","0","main_experiment_trial","7","housework_semantic","semantic_sequence","chronological","","","","","","",""
"","","","","","html-keyboard-response","73","200564","0.0-73.0","282F6EB95349403894A394B108FBBE1D","019cfa89-6b99-7554-984b-b8fd1e69c1a1","019cfa3a-388e-72ab-ad58-bdeb258f96cd","","null","
                <div class=""stimulus-container"">
                    <img src=""images/semantic_sequence/housework_semantic/housework_semantic_8.png"" class=""exp-image"">
                    <div class=""question-area""></div> 
                </div>","null","","","","","","","","","","","",""
"","","","","","html-button-response","74","200803","0.0-74.0","282F6EB95349403894A394B108FBBE1D","019cfa89-6b99-7554-984b-b8fd1e69c1a1","019cfa3a-388e-72ab-ad58-bdeb258f96cd","","239","
                <div class=""stimulus-container"">
                    <img src=""images/semantic_sequence/housework_semantic/housework_semantic_8.png"" class=""exp-image"">
                    <div class=""question-area"">
                        <p style=""font-size: 20px; font-weight: bold; margin: 0;"">Is there a person in this image?</p>
                    </div>
                </div>","0","main_experiment_trial","8","housework_semantic","semantic_sequence","chronological","","","","","","",""
"","","","","","html-keyboard-response","75","201812","0.0-75.0","282F6EB95349403894A394B108FBBE1D","019cfa89-6b99-7554-984b-b8fd1e69c1a1","019cfa3a-388e-72ab-ad58-bdeb258f96cd","","null","
                <div class=""stimulus-container"">
                    <img src=""images/semantic_sequence/housework_semantic/housework_semantic_9.png"" class=""exp-image"">
                    <div class=""question-area""></div> 
                </div>","null","","","","","","","","","","","",""
"","","","","","html-button-response","76","202078","0.0-76.0","282F6EB95349403894A394B108FBBE1D","019cfa89-6b99-7554-984b-b8fd1e69c1a1","019cfa3a-388e-72ab-ad58-bdeb258f96cd","","265","
                <div class=""stimulus-container"">
                    <img src=""images/semantic_sequence/housework_semantic/housework_semantic_9.png"" class=""exp-image"">
                    <div class=""question-area"">
                        <p style=""font-size: 20px; font-weight: bold; margin: 0;"">Is there a person in this image?</p>
                    </div>
                </div>","0","main_experiment_trial","9","housework_semantic","semantic_sequence","chronological","","","","","","",""
"","","","","","html-keyboard-response","77","203092","0.0-77.0","282F6EB95349403894A394B108FBBE1D","019cfa89-6b99-7554-984b-b8fd1e69c1a1","019cfa3a-388e-72ab-ad58-bdeb258f96cd","","null","
                <div class=""stimulus-container"">
                    <img src=""images/semantic_sequence/housework_semantic/housework_semantic_ten.png"" class=""exp-image"">
                    <div class=""question-area""></div> 
                </div>","null","","","","","","","","","","","",""
"","","","","","html-button-response","78","203365","0.0-78.0","282F6EB95349403894A394B108FBBE1D","019cfa89-6b99-7554-984b-b8fd1e69c1a1","019cfa3a-388e-72ab-ad58-bdeb258f96cd","","272","
                <div class=""stimulus-container"">
                    <img src=""images/semantic_sequence/housework_semantic/housework_semantic_ten.png"" class=""exp-image"">
                    <div class=""question-area"">
                        <p style=""font-size: 20px; font-weight: bold; margin: 0;"">Is there a person in this image?</p>
                    </div>
                </div>","0","main_experiment_trial","ten","housework_semantic","semantic_sequence","chronological","","","","","","",""
"","","","","","html-keyboard-response","79","208379","0.0-79.0","282F6EB95349403894A394B108FBBE1D","019cfa89-6b99-7554-984b-b8fd1e69c1a1","019cfa3a-388e-72ab-ad58-bdeb258f96cd","","null","<div style=""background-color: white; width: 100vw; height: 100vh;""></div>","null","","","","","","","","","","","",""
"","","","","","html-keyboard-response","80","209380","0.0-80.0","282F6EB95349403894A394B108FBBE1D","019cfa89-6b99-7554-984b-b8fd1e69c1a1","019cfa3a-388e-72ab-ad58-bdeb258f96cd","","null","
                <div class=""stimulus-container"">
                    <img src=""images/causal_sequence/saving_a_cat_causal/saving_a_cat_causal_1.png"" class=""exp-image"">
                    <div class=""question-area""></div> 
                </div>","null","","","","","","","","","","","",""
"","","","","","html-button-response","81","209724","0.0-81.0","282F6EB95349403894A394B108FBBE1D","019cfa89-6b99-7554-984b-b8fd1e69c1a1","019cfa3a-388e-72ab-ad58-bdeb258f96cd","","343","
                <div class=""stimulus-container"">
                    <img src=""images/causal_sequence/saving_a_cat_causal/saving_a_cat_causal_1.png"" class=""exp-image"">
                    <div class=""question-area"">
                        <p style=""font-size: 20px; font-weight: bold; margin: 0;"">Is there a person in this image?</p>
                    </div>
                </div>","0","main_experiment_trial","1","saving_a_cat_causal","causal_sequence","chronological","","","","","","",""
"","","","","","html-keyboard-response","82","210733","0.0-82.0","282F6EB95349403894A394B108FBBE1D","019cfa89-6b99-7554-984b-b8fd1e69c1a1","019cfa3a-388e-72ab-ad58-bdeb258f96cd","","null","
                <div class=""stimulus-container"">
                    <img src=""images/causal_sequence/saving_a_cat_causal/saving_a_cat_causal_2.png"" class=""exp-image"">
                    <div class=""question-area""></div> 
                </div>","null","","","","","","","","","","","",""
"","","","","","html-button-response","83","211652","0.0-83.0","282F6EB95349403894A394B108FBBE1D","019cfa89-6b99-7554-984b-b8fd1e69c1a1","019cfa3a-388e-72ab-ad58-bdeb258f96cd","","918","
                <div class=""stimulus-container"">
                    <img src=""images/causal_sequence/saving_a_cat_causal/saving_a_cat_causal_2.png"" class=""exp-image"">
                    <div class=""question-area"">
                        <p style=""font-size: 20px; font-weight: bold; margin: 0;"">Is there a person in this image?</p>
                    </div>
                </div>","1","main_experiment_trial","2","saving_a_cat_causal","causal_sequence","chronological","","","","","","",""
"","","","","","html-keyboard-response","84","212656","0.0-84.0","282F6EB95349403894A394B108FBBE1D","019cfa89-6b99-7554-984b-b8fd1e69c1a1","019cfa3a-388e-72ab-ad58-bdeb258f96cd","","null","
                <div class=""stimulus-container"">
                    <img src=""images/causal_sequence/saving_a_cat_causal/saving_a_cat_causal_3.png"" class=""exp-image"">
                    <div class=""question-area""></div> 
                </div>","null","","","","","","","","","","","",""
"","","","","","html-button-response","85","213162","0.0-85.0","282F6EB95349403894A394B108FBBE1D","019cfa89-6b99-7554-984b-b8fd1e69c1a1","019cfa3a-388e-72ab-ad58-bdeb258f96cd","","506","
                <div class=""stimulus-container"">
                    <img src=""images/causal_sequence/saving_a_cat_causal/saving_a_cat_causal_3.png"" class=""exp-image"">
                    <div class=""question-area"">
                        <p style=""font-size: 20px; font-weight: bold; margin: 0;"">Is there a person in this image?</p>
                    </div>
                </div>","1","main_experiment_trial","3","saving_a_cat_causal","causal_sequence","chronological","","","","","","",""
"","","","","","html-keyboard-response","86","214165","0.0-86.0","282F6EB95349403894A394B108FBBE1D","019cfa89-6b99-7554-984b-b8fd1e69c1a1","019cfa3a-388e-72ab-ad58-bdeb258f96cd","","null","
                <div class=""stimulus-container"">
                    <img src=""images/causal_sequence/saving_a_cat_causal/saving_a_cat_causal_4.png"" class=""exp-image"">
                    <div class=""question-area""></div> 
                </div>","null","","","","","","","","","","","",""
"","","","","","html-button-response","87","214481","0.0-87.0","282F6EB95349403894A394B108FBBE1D","019cfa89-6b99-7554-984b-b8fd1e69c1a1","019cfa3a-388e-72ab-ad58-bdeb258f96cd","","315","
                <div class=""stimulus-container"">
                    <img src=""images/causal_sequence/saving_a_cat_causal/saving_a_cat_causal_4.png"" class=""exp-image"">
                    <div class=""question-area"">
                        <p style=""font-size: 20px; font-weight: bold; margin: 0;"">Is there a person in this image?</p>
                    </div>
                </div>","0","main_experiment_trial","4","saving_a_cat_causal","causal_sequence","chronological","","","","","","",""
"","","","","","html-keyboard-response","88","215491","0.0-88.0","282F6EB95349403894A394B108FBBE1D","019cfa89-6b99-7554-984b-b8fd1e69c1a1","019cfa3a-388e-72ab-ad58-bdeb258f96cd","","null","
                <div class=""stimulus-container"">
                    <img src=""images/causal_sequence/saving_a_cat_causal/saving_a_cat_causal_5.png"" class=""exp-image"">
                    <div class=""question-area""></div> 
                </div>","null","","","","","","","","","","","",""
"","","","","","html-button-response","89","215841","0.0-89.0","282F6EB95349403894A394B108FBBE1D","019cfa89-6b99-7554-984b-b8fd1e69c1a1","019cfa3a-388e-72ab-ad58-bdeb258f96cd","","350","
                <div class=""stimulus-container"">
                    <img src=""images/causal_sequence/saving_a_cat_causal/saving_a_cat_causal_5.png"" class=""exp-image"">
                    <div class=""question-area"">
                        <p style=""font-size: 20px; font-weight: bold; margin: 0;"">Is there a person in this image?</p>
                    </div>
                </div>","0","main_experiment_trial","5","saving_a_cat_causal","causal_sequence","chronological","","","","","","",""
"","","","","","html-keyboard-response","90","216854","0.0-90.0","282F6EB95349403894A394B108FBBE1D","019cfa89-6b99-7554-984b-b8fd1e69c1a1","019cfa3a-388e-72ab-ad58-bdeb258f96cd","","null","
                <div class=""stimulus-container"">
                    <img src=""images/causal_sequence/saving_a_cat_causal/saving_a_cat_causal_6.png"" class=""exp-image"">
                    <div class=""question-area""></div> 
                </div>","null","","","","","","","","","","","",""
"","","","","","html-button-response","91","217238","0.0-91.0","282F6EB95349403894A394B108FBBE1D","019cfa89-6b99-7554-984b-b8fd1e69c1a1","019cfa3a-388e-72ab-ad58-bdeb258f96cd","","384","
                <div class=""stimulus-container"">
                    <img src=""images/causal_sequence/saving_a_cat_causal/saving_a_cat_causal_6.png"" class=""exp-image"">
                    <div class=""question-area"">
                        <p style=""font-size: 20px; font-weight: bold; margin: 0;"">Is there a person in this image?</p>
                    </div>
                </div>","0","main_experiment_trial","6","saving_a_cat_causal","causal_sequence","chronological","","","","","","",""
"","","","","","html-keyboard-response","92","218239","0.0-92.0","282F6EB95349403894A394B108FBBE1D","019cfa89-6b99-7554-984b-b8fd1e69c1a1","019cfa3a-388e-72ab-ad58-bdeb258f96cd","","null","
                <div class=""stimulus-container"">
                    <img src=""images/causal_sequence/saving_a_cat_causal/saving_a_cat_causal_7.png"" class=""exp-image"">
                    <div class=""question-area""></div> 
                </div>","null","","","","","","","","","","","",""
"","","","","","html-button-response","93","218564","0.0-93.0","282F6EB95349403894A394B108FBBE1D","019cfa89-6b99-7554-984b-b8fd1e69c1a1","019cfa3a-388e-72ab-ad58-bdeb258f96cd","","324","
                <div class=""stimulus-container"">
                    <img src=""images/causal_sequence/saving_a_cat_causal/saving_a_cat_causal_7.png"" class=""exp-image"">
                    <div class=""question-area"">
                        <p style=""font-size: 20px; font-weight: bold; margin: 0;"">Is there a person in this image?</p>
                    </div>
                </div>","0","main_experiment_trial","7","saving_a_cat_causal","causal_sequence","chronological","","","","","","",""
"","","","","","html-keyboard-response","94","219578","0.0-94.0","282F6EB95349403894A394B108FBBE1D","019cfa89-6b99-7554-984b-b8fd1e69c1a1","019cfa3a-388e-72ab-ad58-bdeb258f96cd","","null","
                <div class=""stimulus-container"">
                    <img src=""images/causal_sequence/saving_a_cat_causal/saving_a_cat_causal_8.png"" class=""exp-image"">
                    <div class=""question-area""></div> 
                </div>","null","","","","","","","","","","","",""
"","","","","","html-button-response","95","220064","0.0-95.0","282F6EB95349403894A394B108FBBE1D","019cfa89-6b99-7554-984b-b8fd1e69c1a1","019cfa3a-388e-72ab-ad58-bdeb258f96cd","","486","
                <div class=""stimulus-container"">
                    <img src=""images/causal_sequence/saving_a_cat_causal/saving_a_cat_causal_8.png"" class=""exp-image"">
                    <div class=""question-area"">
                        <p style=""font-size: 20px; font-weight: bold; margin: 0;"">Is there a person in this image?</p>
                    </div>
                </div>","0","main_experiment_trial","8","saving_a_cat_causal","causal_sequence","chronological","","","","","","",""
"","","","","","html-keyboard-response","96","221072","0.0-96.0","282F6EB95349403894A394B108FBBE1D","019cfa89-6b99-7554-984b-b8fd1e69c1a1","019cfa3a-388e-72ab-ad58-bdeb258f96cd","","null","
                <div class=""stimulus-container"">
                    <img src=""images/causal_sequence/saving_a_cat_causal/saving_a_cat_causal_9.png"" class=""exp-image"">
                    <div class=""question-area""></div> 
                </div>","null","","","","","","","","","","","",""
"","","","","","html-button-response","97","221446","0.0-97.0","282F6EB95349403894A394B108FBBE1D","019cfa89-6b99-7554-984b-b8fd1e69c1a1","019cfa3a-388e-72ab-ad58-bdeb258f96cd","","374","
                <div class=""stimulus-container"">
                    <img src=""images/causal_sequence/saving_a_cat_causal/saving_a_cat_causal_9.png"" class=""exp-image"">
                    <div class=""question-area"">
                        <p style=""font-size: 20px; font-weight: bold; margin: 0;"">Is there a person in this image?</p>
                    </div>
                </div>","0","main_experiment_trial","9","saving_a_cat_causal","causal_sequence","chronological","","","","","","",""
"","","","","","html-keyboard-response","98","222448","0.0-98.0","282F6EB95349403894A394B108FBBE1D","019cfa89-6b99-7554-984b-b8fd1e69c1a1","019cfa3a-388e-72ab-ad58-bdeb258f96cd","","null","
                <div class=""stimulus-container"">
                    <img src=""images/causal_sequence/saving_a_cat_causal/saving_a_cat_causal_ten.png"" class=""exp-image"">
                    <div class=""question-area""></div> 
                </div>","null","","","","","","","","","","","",""
"","","","","","html-button-response","99","222726","0.0-99.0","282F6EB95349403894A394B108FBBE1D","019cfa89-6b99-7554-984b-b8fd1e69c1a1","019cfa3a-388e-72ab-ad58-bdeb258f96cd","","278","
                <div class=""stimulus-container"">
                    <img src=""images/causal_sequence/saving_a_cat_causal/saving_a_cat_causal_ten.png"" class=""exp-image"">
                    <div class=""question-area"">
                        <p style=""font-size: 20px; font-weight: bold; margin: 0;"">Is there a person in this image?</p>
                    </div>
                </div>","0","main_experiment_trial","ten","saving_a_cat_causal","causal_sequence","chronological","","","","","","",""
"","","","","","html-keyboard-response","100","227731","0.0-100.0","282F6EB95349403894A394B108FBBE1D","019cfa89-6b99-7554-984b-b8fd1e69c1a1","019cfa3a-388e-72ab-ad58-bdeb258f96cd","","null","<div style=""background-color: white; width: 100vw; height: 100vh;""></div>","null","","","","","","","","","","","",""
"","","","","","html-keyboard-response","101","228732","0.0-101.0","282F6EB95349403894A394B108FBBE1D","019cfa89-6b99-7554-984b-b8fd1e69c1a1","019cfa3a-388e-72ab-ad58-bdeb258f96cd","","null","
                <div class=""stimulus-container"">
                    <img src=""images/semantic_sequence/redecorating_a_house_semantic/redecorating_a_house_semantic_1.png"" class=""exp-image"">
                    <div class=""question-area""></div> 
                </div>","null","","","","","","","","","","","",""
"","","","","","html-button-response","102","229069","0.0-102.0","282F6EB95349403894A394B108FBBE1D","019cfa89-6b99-7554-984b-b8fd1e69c1a1","019cfa3a-388e-72ab-ad58-bdeb258f96cd","","337","
                <div class=""stimulus-container"">
                    <img src=""images/semantic_sequence/redecorating_a_house_semantic/redecorating_a_house_semantic_1.png"" class=""exp-image"">
                    <div class=""question-area"">
                        <p style=""font-size: 20px; font-weight: bold; margin: 0;"">Is there a person in this image?</p>
                    </div>
                </div>","0","main_experiment_trial","1","redecorating_a_house_semantic","semantic_sequence","chronological","","","","","","",""
"","","","","","html-keyboard-response","103","230078","0.0-103.0","282F6EB95349403894A394B108FBBE1D","019cfa89-6b99-7554-984b-b8fd1e69c1a1","019cfa3a-388e-72ab-ad58-bdeb258f96cd","","null","
                <div class=""stimulus-container"">
                    <img src=""images/semantic_sequence/redecorating_a_house_semantic/redecorating_a_house_semantic_2.png"" class=""exp-image"">
                    <div class=""question-area""></div> 
                </div>","null","","","","","","","","","","","",""
"","","","","","html-button-response","104","230342","0.0-104.0","282F6EB95349403894A394B108FBBE1D","019cfa89-6b99-7554-984b-b8fd1e69c1a1","019cfa3a-388e-72ab-ad58-bdeb258f96cd","","264","
                <div class=""stimulus-container"">
                    <img src=""images/semantic_sequence/redecorating_a_house_semantic/redecorating_a_house_semantic_2.png"" class=""exp-image"">
                    <div class=""question-area"">
                        <p style=""font-size: 20px; font-weight: bold; margin: 0;"">Is there a person in this image?</p>
                    </div>
                </div>","0","main_experiment_trial","2","redecorating_a_house_semantic","semantic_sequence","chronological","","","","","","",""
"","","","","","html-keyboard-response","105","231355","0.0-105.0","282F6EB95349403894A394B108FBBE1D","019cfa89-6b99-7554-984b-b8fd1e69c1a1","019cfa3a-388e-72ab-ad58-bdeb258f96cd","","null","
                <div class=""stimulus-container"">
                    <img src=""images/semantic_sequence/redecorating_a_house_semantic/redecorating_a_house_semantic_3.png"" class=""exp-image"">
                    <div class=""question-area""></div> 
                </div>","null","","","","","","","","","","","",""
"","","","","","html-button-response","106","231641","0.0-106.0","282F6EB95349403894A394B108FBBE1D","019cfa89-6b99-7554-984b-b8fd1e69c1a1","019cfa3a-388e-72ab-ad58-bdeb258f96cd","","286","
                <div class=""stimulus-container"">
                    <img src=""images/semantic_sequence/redecorating_a_house_semantic/redecorating_a_house_semantic_3.png"" class=""exp-image"">
                    <div class=""question-area"">
                        <p style=""font-size: 20px; font-weight: bold; margin: 0;"">Is there a person in this image?</p>
                    </div>
                </div>","0","main_experiment_trial","3","redecorating_a_house_semantic","semantic_sequence","chronological","","","","","","",""
"","","","","","html-keyboard-response","107","232651","0.0-107.0","282F6EB95349403894A394B108FBBE1D","019cfa89-6b99-7554-984b-b8fd1e69c1a1","019cfa3a-388e-72ab-ad58-bdeb258f96cd","","null","
                <div class=""stimulus-container"">
                    <img src=""images/semantic_sequence/redecorating_a_house_semantic/redecorating_a_house_semantic_4.png"" class=""exp-image"">
                    <div class=""question-area""></div> 
                </div>","null","","","","","","","","","","","",""
"","","","","","html-button-response","108","232969","0.0-108.0","282F6EB95349403894A394B108FBBE1D","019cfa89-6b99-7554-984b-b8fd1e69c1a1","019cfa3a-388e-72ab-ad58-bdeb258f96cd","","318","
                <div class=""stimulus-container"">
                    <img src=""images/semantic_sequence/redecorating_a_house_semantic/redecorating_a_house_semantic_4.png"" class=""exp-image"">
                    <div class=""question-area"">
                        <p style=""font-size: 20px; font-weight: bold; margin: 0;"">Is there a person in this image?</p>
                    </div>
                </div>","0","main_experiment_trial","4","redecorating_a_house_semantic","semantic_sequence","chronological","","","","","","",""
"","","","","","html-keyboard-response","109","233975","0.0-109.0","282F6EB95349403894A394B108FBBE1D","019cfa89-6b99-7554-984b-b8fd1e69c1a1","019cfa3a-388e-72ab-ad58-bdeb258f96cd","","null","
                <div class=""stimulus-container"">
                    <img src=""images/semantic_sequence/redecorating_a_house_semantic/redecorating_a_house_semantic_5.png"" class=""exp-image"">
                    <div class=""question-area""></div> 
                </div>","null","","","","","","","","","","","",""
"","","","","","html-button-response","110","234266","0.0-110.0","282F6EB95349403894A394B108FBBE1D","019cfa89-6b99-7554-984b-b8fd1e69c1a1","019cfa3a-388e-72ab-ad58-bdeb258f96cd","","291","
                <div class=""stimulus-container"">
                    <img src=""images/semantic_sequence/redecorating_a_house_semantic/redecorating_a_house_semantic_5.png"" class=""exp-image"">
                    <div class=""question-area"">
                        <p style=""font-size: 20px; font-weight: bold; margin: 0;"">Is there a person in this image?</p>
                    </div>
                </div>","0","main_experiment_trial","5","redecorating_a_house_semantic","semantic_sequence","chronological","","","","","","",""
"","","","","","html-keyboard-response","111","235279","0.0-111.0","282F6EB95349403894A394B108FBBE1D","019cfa89-6b99-7554-984b-b8fd1e69c1a1","019cfa3a-388e-72ab-ad58-bdeb258f96cd","","null","
                <div class=""stimulus-container"">
                    <img src=""images/semantic_sequence/redecorating_a_house_semantic/redecorating_a_house_semantic_6.png"" class=""exp-image"">
                    <div class=""question-area""></div> 
                </div>","null","","","","","","","","","","","",""
"","","","","","html-button-response","112","235578","0.0-112.0","282F6EB95349403894A394B108FBBE1D","019cfa89-6b99-7554-984b-b8fd1e69c1a1","019cfa3a-388e-72ab-ad58-bdeb258f96cd","","298","
                <div class=""stimulus-container"">
                    <img src=""images/semantic_sequence/redecorating_a_house_semantic/redecorating_a_house_semantic_6.png"" class=""exp-image"">
                    <div class=""question-area"">
                        <p style=""font-size: 20px; font-weight: bold; margin: 0;"">Is there a person in this image?</p>
                    </div>
                </div>","0","main_experiment_trial","6","redecorating_a_house_semantic","semantic_sequence","chronological","","","","","","",""
"","","","","","html-keyboard-response","113","236592","0.0-113.0","282F6EB95349403894A394B108FBBE1D","019cfa89-6b99-7554-984b-b8fd1e69c1a1","019cfa3a-388e-72ab-ad58-bdeb258f96cd","","null","
                <div class=""stimulus-container"">
                    <img src=""images/semantic_sequence/redecorating_a_house_semantic/redecorating_a_house_semantic_7.png"" class=""exp-image"">
                    <div class=""question-area""></div> 
                </div>","null","","","","","","","","","","","",""
"","","","","","html-button-response","114","236814","0.0-114.0","282F6EB95349403894A394B108FBBE1D","019cfa89-6b99-7554-984b-b8fd1e69c1a1","019cfa3a-388e-72ab-ad58-bdeb258f96cd","","221","
                <div class=""stimulus-container"">
                    <img src=""images/semantic_sequence/redecorating_a_house_semantic/redecorating_a_house_semantic_7.png"" class=""exp-image"">
                    <div class=""question-area"">
                        <p style=""font-size: 20px; font-weight: bold; margin: 0;"">Is there a person in this image?</p>
                    </div>
                </div>","0","main_experiment_trial","7","redecorating_a_house_semantic","semantic_sequence","chronological","","","","","","",""
"","","","","","html-keyboard-response","115","237823","0.0-115.0","282F6EB95349403894A394B108FBBE1D","019cfa89-6b99-7554-984b-b8fd1e69c1a1","019cfa3a-388e-72ab-ad58-bdeb258f96cd","","null","
                <div class=""stimulus-container"">
                    <img src=""images/semantic_sequence/redecorating_a_house_semantic/redecorating_a_house_semantic_8.png"" class=""exp-image"">
                    <div class=""question-area""></div> 
                </div>","null","","","","","","","","","","","",""
"","","","","","html-button-response","116","238100","0.0-116.0","282F6EB95349403894A394B108FBBE1D","019cfa89-6b99-7554-984b-b8fd1e69c1a1","019cfa3a-388e-72ab-ad58-bdeb258f96cd","","276","
                <div class=""stimulus-container"">
                    <img src=""images/semantic_sequence/redecorating_a_house_semantic/redecorating_a_house_semantic_8.png"" class=""exp-image"">
                    <div class=""question-area"">
                        <p style=""font-size: 20px; font-weight: bold; margin: 0;"">Is there a person in this image?</p>
                    </div>
                </div>","0","main_experiment_trial","8","redecorating_a_house_semantic","semantic_sequence","chronological","","","","","","",""
"","","","","","html-keyboard-response","117","239102","0.0-117.0","282F6EB95349403894A394B108FBBE1D","019cfa89-6b99-7554-984b-b8fd1e69c1a1","019cfa3a-388e-72ab-ad58-bdeb258f96cd","","null","
                <div class=""stimulus-container"">
                    <img src=""images/semantic_sequence/redecorating_a_house_semantic/redecorating_a_house_semantic_9.png"" class=""exp-image"">
                    <div class=""question-area""></div> 
                </div>","null","","","","","","","","","","","",""
"","","","","","html-button-response","118","239367","0.0-118.0","282F6EB95349403894A394B108FBBE1D","019cfa89-6b99-7554-984b-b8fd1e69c1a1","019cfa3a-388e-72ab-ad58-bdeb258f96cd","","264","
                <div class=""stimulus-container"">
                    <img src=""images/semantic_sequence/redecorating_a_house_semantic/redecorating_a_house_semantic_9.png"" class=""exp-image"">
                    <div class=""question-area"">
                        <p style=""font-size: 20px; font-weight: bold; margin: 0;"">Is there a person in this image?</p>
                    </div>
                </div>","0","main_experiment_trial","9","redecorating_a_house_semantic","semantic_sequence","chronological","","","","","","",""
"","","","","","html-keyboard-response","119","240383","0.0-119.0","282F6EB95349403894A394B108FBBE1D","019cfa89-6b99-7554-984b-b8fd1e69c1a1","019cfa3a-388e-72ab-ad58-bdeb258f96cd","","null","
                <div class=""stimulus-container"">
                    <img src=""images/semantic_sequence/redecorating_a_house_semantic/redecorating_a_house_semantic_ten.png"" class=""exp-image"">
                    <div class=""question-area""></div> 
                </div>","null","","","","","","","","","","","",""
"","","","","","html-button-response","120","240668","0.0-120.0","282F6EB95349403894A394B108FBBE1D","019cfa89-6b99-7554-984b-b8fd1e69c1a1","019cfa3a-388e-72ab-ad58-bdeb258f96cd","","284","
                <div class=""stimulus-container"">
                    <img src=""images/semantic_sequence/redecorating_a_house_semantic/redecorating_a_house_semantic_ten.png"" class=""exp-image"">
                    <div class=""question-area"">
                        <p style=""font-size: 20px; font-weight: bold; margin: 0;"">Is there a person in this image?</p>
                    </div>
                </div>","0","main_experiment_trial","ten","redecorating_a_house_semantic","semantic_sequence","chronological","","","","","","",""
"","","","","","html-keyboard-response","121","245677","0.0-121.0","282F6EB95349403894A394B108FBBE1D","019cfa89-6b99-7554-984b-b8fd1e69c1a1","019cfa3a-388e-72ab-ad58-bdeb258f96cd","","null","<div style=""background-color: white; width: 100vw; height: 100vh;""></div>","null","","","","","","","","","","","",""
"","","","","","html-keyboard-response","122","246679","0.0-122.0","282F6EB95349403894A394B108FBBE1D","019cfa89-6b99-7554-984b-b8fd1e69c1a1","019cfa3a-388e-72ab-ad58-bdeb258f96cd","","null","
                <div class=""stimulus-container"">
                    <img src=""images/semantic_sequence/maintaining_a_car_semantic/maintaining_a_car_semantic_1.png"" class=""exp-image"">
                    <div class=""question-area""></div> 
                </div>","null","","","","","","","","","","","",""
"","","","","","html-button-response","123","247046","0.0-123.0","282F6EB95349403894A394B108FBBE1D","019cfa89-6b99-7554-984b-b8fd1e69c1a1","019cfa3a-388e-72ab-ad58-bdeb258f96cd","","366","
                <div class=""stimulus-container"">
                    <img src=""images/semantic_sequence/maintaining_a_car_semantic/maintaining_a_car_semantic_1.png"" class=""exp-image"">
                    <div class=""question-area"">
                        <p style=""font-size: 20px; font-weight: bold; margin: 0;"">Is there a person in this image?</p>
                    </div>
                </div>","0","main_experiment_trial","1","maintaining_a_car_semantic","semantic_sequence","chronological","","","","","","",""
"","","","","","html-keyboard-response","124","248053","0.0-124.0","282F6EB95349403894A394B108FBBE1D","019cfa89-6b99-7554-984b-b8fd1e69c1a1","019cfa3a-388e-72ab-ad58-bdeb258f96cd","","null","
                <div class=""stimulus-container"">
                    <img src=""images/semantic_sequence/maintaining_a_car_semantic/maintaining_a_car_semantic_2.png"" class=""exp-image"">
                    <div class=""question-area""></div> 
                </div>","null","","","","","","","","","","","",""
"","","","","","html-button-response","125","248359","0.0-125.0","282F6EB95349403894A394B108FBBE1D","019cfa89-6b99-7554-984b-b8fd1e69c1a1","019cfa3a-388e-72ab-ad58-bdeb258f96cd","","305","
                <div class=""stimulus-container"">
                    <img src=""images/semantic_sequence/maintaining_a_car_semantic/maintaining_a_car_semantic_2.png"" class=""exp-image"">
                    <div class=""question-area"">
                        <p style=""font-size: 20px; font-weight: bold; margin: 0;"">Is there a person in this image?</p>
                    </div>
                </div>","0","main_experiment_trial","2","maintaining_a_car_semantic","semantic_sequence","chronological","","","","","","",""
"","","","","","html-keyboard-response","126","249373","0.0-126.0","282F6EB95349403894A394B108FBBE1D","019cfa89-6b99-7554-984b-b8fd1e69c1a1","019cfa3a-388e-72ab-ad58-bdeb258f96cd","","null","
                <div class=""stimulus-container"">
                    <img src=""images/semantic_sequence/maintaining_a_car_semantic/maintaining_a_car_semantic_3.png"" class=""exp-image"">
                    <div class=""question-area""></div> 
                </div>","null","","","","","","","","","","","",""
"","","","","","html-button-response","127","249612","0.0-127.0","282F6EB95349403894A394B108FBBE1D","019cfa89-6b99-7554-984b-b8fd1e69c1a1","019cfa3a-388e-72ab-ad58-bdeb258f96cd","","239","
                <div class=""stimulus-container"">
                    <img src=""images/semantic_sequence/maintaining_a_car_semantic/maintaining_a_car_semantic_3.png"" class=""exp-image"">
                    <div class=""question-area"">
                        <p style=""font-size: 20px; font-weight: bold; margin: 0;"">Is there a person in this image?</p>
                    </div>
                </div>","0","main_experiment_trial","3","maintaining_a_car_semantic","semantic_sequence","chronological","","","","","","",""
"","","","","","html-keyboard-response","128","250621","0.0-128.0","282F6EB95349403894A394B108FBBE1D","019cfa89-6b99-7554-984b-b8fd1e69c1a1","019cfa3a-388e-72ab-ad58-bdeb258f96cd","","null","
                <div class=""stimulus-container"">
                    <img src=""images/semantic_sequence/maintaining_a_car_semantic/maintaining_a_car_semantic_4.png"" class=""exp-image"">
                    <div class=""question-area""></div> 
                </div>","null","","","","","","","","","","","",""
"","","","","","html-button-response","129","250890","0.0-129.0","282F6EB95349403894A394B108FBBE1D","019cfa89-6b99-7554-984b-b8fd1e69c1a1","019cfa3a-388e-72ab-ad58-bdeb258f96cd","","268","
                <div class=""stimulus-container"">
                    <img src=""images/semantic_sequence/maintaining_a_car_semantic/maintaining_a_car_semantic_4.png"" class=""exp-image"">
                    <div class=""question-area"">
                        <p style=""font-size: 20px; font-weight: bold; margin: 0;"">Is there a person in this image?</p>
                    </div>
                </div>","0","main_experiment_trial","4","maintaining_a_car_semantic","semantic_sequence","chronological","","","","","","",""
"","","","","","html-keyboard-response","130","251905","0.0-130.0","282F6EB95349403894A394B108FBBE1D","019cfa89-6b99-7554-984b-b8fd1e69c1a1","019cfa3a-388e-72ab-ad58-bdeb258f96cd","","null","
                <div class=""stimulus-container"">
                    <img src=""images/semantic_sequence/maintaining_a_car_semantic/maintaining_a_car_semantic_5.png"" class=""exp-image"">
                    <div class=""question-area""></div> 
                </div>","null","","","","","","","","","","","",""
"","","","","","html-button-response","131","252201","0.0-131.0","282F6EB95349403894A394B108FBBE1D","019cfa89-6b99-7554-984b-b8fd1e69c1a1","019cfa3a-388e-72ab-ad58-bdeb258f96cd","","295","
                <div class=""stimulus-container"">
                    <img src=""images/semantic_sequence/maintaining_a_car_semantic/maintaining_a_car_semantic_5.png"" class=""exp-image"">
                    <div class=""question-area"">
                        <p style=""font-size: 20px; font-weight: bold; margin: 0;"">Is there a person in this image?</p>
                    </div>
                </div>","0","main_experiment_trial","5","maintaining_a_car_semantic","semantic_sequence","chronological","","","","","","",""
"","","","","","html-keyboard-response","132","253216","0.0-132.0","282F6EB95349403894A394B108FBBE1D","019cfa89-6b99-7554-984b-b8fd1e69c1a1","019cfa3a-388e-72ab-ad58-bdeb258f96cd","","null","
                <div class=""stimulus-container"">
                    <img src=""images/semantic_sequence/maintaining_a_car_semantic/maintaining_a_car_semantic_6.png"" class=""exp-image"">
                    <div class=""question-area""></div> 
                </div>","null","","","","","","","","","","","",""
"","","","","","html-button-response","133","253462","0.0-133.0","282F6EB95349403894A394B108FBBE1D","019cfa89-6b99-7554-984b-b8fd1e69c1a1","019cfa3a-388e-72ab-ad58-bdeb258f96cd","","245","
                <div class=""stimulus-container"">
                    <img src=""images/semantic_sequence/maintaining_a_car_semantic/maintaining_a_car_semantic_6.png"" class=""exp-image"">
                    <div class=""question-area"">
                        <p style=""font-size: 20px; font-weight: bold; margin: 0;"">Is there a person in this image?</p>
                    </div>
                </div>","0","main_experiment_trial","6","maintaining_a_car_semantic","semantic_sequence","chronological","","","","","","",""
"","","","","","html-keyboard-response","134","254465","0.0-134.0","282F6EB95349403894A394B108FBBE1D","019cfa89-6b99-7554-984b-b8fd1e69c1a1","019cfa3a-388e-72ab-ad58-bdeb258f96cd","","null","
                <div class=""stimulus-container"">
                    <img src=""images/semantic_sequence/maintaining_a_car_semantic/maintaining_a_car_semantic_7.png"" class=""exp-image"">
                    <div class=""question-area""></div> 
                </div>","null","","","","","","","","","","","",""
"","","","","","html-button-response","135","254736","0.0-135.0","282F6EB95349403894A394B108FBBE1D","019cfa89-6b99-7554-984b-b8fd1e69c1a1","019cfa3a-388e-72ab-ad58-bdeb258f96cd","","271","
                <div class=""stimulus-container"">
                    <img src=""images/semantic_sequence/maintaining_a_car_semantic/maintaining_a_car_semantic_7.png"" class=""exp-image"">
                    <div class=""question-area"">
                        <p style=""font-size: 20px; font-weight: bold; margin: 0;"">Is there a person in this image?</p>
                    </div>
                </div>","0","main_experiment_trial","7","maintaining_a_car_semantic","semantic_sequence","chronological","","","","","","",""
"","","","","","html-keyboard-response","136","255748","0.0-136.0","282F6EB95349403894A394B108FBBE1D","019cfa89-6b99-7554-984b-b8fd1e69c1a1","019cfa3a-388e-72ab-ad58-bdeb258f96cd","","null","
                <div class=""stimulus-container"">
                    <img src=""images/semantic_sequence/maintaining_a_car_semantic/maintaining_a_car_semantic_8.png"" class=""exp-image"">
                    <div class=""question-area""></div> 
                </div>","null","","","","","","","","","","","",""
"","","","","","html-button-response","137","256019","0.0-137.0","282F6EB95349403894A394B108FBBE1D","019cfa89-6b99-7554-984b-b8fd1e69c1a1","019cfa3a-388e-72ab-ad58-bdeb258f96cd","","271","
                <div class=""stimulus-container"">
                    <img src=""images/semantic_sequence/maintaining_a_car_semantic/maintaining_a_car_semantic_8.png"" class=""exp-image"">
                    <div class=""question-area"">
                        <p style=""font-size: 20px; font-weight: bold; margin: 0;"">Is there a person in this image?</p>
                    </div>
                </div>","0","main_experiment_trial","8","maintaining_a_car_semantic","semantic_sequence","chronological","","","","","","",""
"","","","","","html-keyboard-response","138","257028","0.0-138.0","282F6EB95349403894A394B108FBBE1D","019cfa89-6b99-7554-984b-b8fd1e69c1a1","019cfa3a-388e-72ab-ad58-bdeb258f96cd","","null","
                <div class=""stimulus-container"">
                    <img src=""images/semantic_sequence/maintaining_a_car_semantic/maintaining_a_car_semantic_9.png"" class=""exp-image"">
                    <div class=""question-area""></div> 
                </div>","null","","","","","","","","","","","",""
"","","","","","html-button-response","139","257282","0.0-139.0","282F6EB95349403894A394B108FBBE1D","019cfa89-6b99-7554-984b-b8fd1e69c1a1","019cfa3a-388e-72ab-ad58-bdeb258f96cd","","254","
                <div class=""stimulus-container"">
                    <img src=""images/semantic_sequence/maintaining_a_car_semantic/maintaining_a_car_semantic_9.png"" class=""exp-image"">
                    <div class=""question-area"">
                        <p style=""font-size: 20px; font-weight: bold; margin: 0;"">Is there a person in this image?</p>
                    </div>
                </div>","0","main_experiment_trial","9","maintaining_a_car_semantic","semantic_sequence","chronological","","","","","","",""
"","","","","","html-keyboard-response","140","258294","0.0-140.0","282F6EB95349403894A394B108FBBE1D","019cfa89-6b99-7554-984b-b8fd1e69c1a1","019cfa3a-388e-72ab-ad58-bdeb258f96cd","","null","
                <div class=""stimulus-container"">
                    <img src=""images/semantic_sequence/maintaining_a_car_semantic/maintaining_a_car_semantic_ten.png"" class=""exp-image"">
                    <div class=""question-area""></div> 
                </div>","null","","","","","","","","","","","",""
"","","","","","html-button-response","141","258583","0.0-141.0","282F6EB95349403894A394B108FBBE1D","019cfa89-6b99-7554-984b-b8fd1e69c1a1","019cfa3a-388e-72ab-ad58-bdeb258f96cd","","289","
                <div class=""stimulus-container"">
                    <img src=""images/semantic_sequence/maintaining_a_car_semantic/maintaining_a_car_semantic_ten.png"" class=""exp-image"">
                    <div class=""question-area"">
                        <p style=""font-size: 20px; font-weight: bold; margin: 0;"">Is there a person in this image?</p>
                    </div>
                </div>","0","main_experiment_trial","ten","maintaining_a_car_semantic","semantic_sequence","chronological","","","","","","",""
"","","","","","html-keyboard-response","142","263585","0.0-142.0","282F6EB95349403894A394B108FBBE1D","019cfa89-6b99-7554-984b-b8fd1e69c1a1","019cfa3a-388e-72ab-ad58-bdeb258f96cd","","null","<div style=""background-color: white; width: 100vw; height: 100vh;""></div>","null","","","","","","","","","","","",""
"","","","","","html-keyboard-response","143","264594","0.0-143.0","282F6EB95349403894A394B108FBBE1D","019cfa89-6b99-7554-984b-b8fd1e69c1a1","019cfa3a-388e-72ab-ad58-bdeb258f96cd","","null","
                <div class=""stimulus-container"">
                    <img src=""images/causal_sequence/the_performance_causal/the_performance_causal_1.png"" class=""exp-image"">
                    <div class=""question-area""></div> 
                </div>","null","","","","","","","","","","","",""
"","","","","","html-button-response","144","265068","0.0-144.0","282F6EB95349403894A394B108FBBE1D","019cfa89-6b99-7554-984b-b8fd1e69c1a1","019cfa3a-388e-72ab-ad58-bdeb258f96cd","","474","
                <div class=""stimulus-container"">
                    <img src=""images/causal_sequence/the_performance_causal/the_performance_causal_1.png"" class=""exp-image"">
                    <div class=""question-area"">
                        <p style=""font-size: 20px; font-weight: bold; margin: 0;"">Is there a person in this image?</p>
                    </div>
                </div>","0","main_experiment_trial","1","the_performance_causal","causal_sequence","chronological","","","","","","",""
"","","","","","html-keyboard-response","145","266074","0.0-145.0","282F6EB95349403894A394B108FBBE1D","019cfa89-6b99-7554-984b-b8fd1e69c1a1","019cfa3a-388e-72ab-ad58-bdeb258f96cd","","null","
                <div class=""stimulus-container"">
                    <img src=""images/causal_sequence/the_performance_causal/the_performance_causal_2.png"" class=""exp-image"">
                    <div class=""question-area""></div> 
                </div>","null","","","","","","","","","","","",""
"","","","","","html-button-response","146","266210","0.0-146.0","282F6EB95349403894A394B108FBBE1D","019cfa89-6b99-7554-984b-b8fd1e69c1a1","019cfa3a-388e-72ab-ad58-bdeb258f96cd","","136","
                <div class=""stimulus-container"">
                    <img src=""images/causal_sequence/the_performance_causal/the_performance_causal_2.png"" class=""exp-image"">
                    <div class=""question-area"">
                        <p style=""font-size: 20px; font-weight: bold; margin: 0;"">Is there a person in this image?</p>
                    </div>
                </div>","0","main_experiment_trial","2","the_performance_causal","causal_sequence","chronological","","","","","","",""
"","","","","","html-keyboard-response","147","267211","0.0-147.0","282F6EB95349403894A394B108FBBE1D","019cfa89-6b99-7554-984b-b8fd1e69c1a1","019cfa3a-388e-72ab-ad58-bdeb258f96cd","","null","
                <div class=""stimulus-container"">
                    <img src=""images/causal_sequence/the_performance_causal/the_performance_causal_3.png"" class=""exp-image"">
                    <div class=""question-area""></div> 
                </div>","null","","","","","","","","","","","",""
"","","","","","html-button-response","148","267459","0.0-148.0","282F6EB95349403894A394B108FBBE1D","019cfa89-6b99-7554-984b-b8fd1e69c1a1","019cfa3a-388e-72ab-ad58-bdeb258f96cd","","248","
                <div class=""stimulus-container"">
                    <img src=""images/causal_sequence/the_performance_causal/the_performance_causal_3.png"" class=""exp-image"">
                    <div class=""question-area"">
                        <p style=""font-size: 20px; font-weight: bold; margin: 0;"">Is there a person in this image?</p>
                    </div>
                </div>","0","main_experiment_trial","3","the_performance_causal","causal_sequence","chronological","","","","","","",""
"","","","","","html-keyboard-response","149","268462","0.0-149.0","282F6EB95349403894A394B108FBBE1D","019cfa89-6b99-7554-984b-b8fd1e69c1a1","019cfa3a-388e-72ab-ad58-bdeb258f96cd","","null","
                <div class=""stimulus-container"">
                    <img src=""images/causal_sequence/the_performance_causal/the_performance_causal_4.png"" class=""exp-image"">
                    <div class=""question-area""></div> 
                </div>","null","","","","","","","","","","","",""
"","","","","","html-button-response","150","268756","0.0-150.0","282F6EB95349403894A394B108FBBE1D","019cfa89-6b99-7554-984b-b8fd1e69c1a1","019cfa3a-388e-72ab-ad58-bdeb258f96cd","","294","
                <div class=""stimulus-container"">
                    <img src=""images/causal_sequence/the_performance_causal/the_performance_causal_4.png"" class=""exp-image"">
                    <div class=""question-area"">
                        <p style=""font-size: 20px; font-weight: bold; margin: 0;"">Is there a person in this image?</p>
                    </div>
                </div>","0","main_experiment_trial","4","the_performance_causal","causal_sequence","chronological","","","","","","",""
"","","","","","html-keyboard-response","151","269769","0.0-151.0","282F6EB95349403894A394B108FBBE1D","019cfa89-6b99-7554-984b-b8fd1e69c1a1","019cfa3a-388e-72ab-ad58-bdeb258f96cd","","null","
                <div class=""stimulus-container"">
                    <img src=""images/causal_sequence/the_performance_causal/the_performance_causal_5.png"" class=""exp-image"">
                    <div class=""question-area""></div> 
                </div>","null","","","","","","","","","","","",""
"","","","","","html-button-response","152","270053","0.0-152.0","282F6EB95349403894A394B108FBBE1D","019cfa89-6b99-7554-984b-b8fd1e69c1a1","019cfa3a-388e-72ab-ad58-bdeb258f96cd","","284","
                <div class=""stimulus-container"">
                    <img src=""images/causal_sequence/the_performance_causal/the_performance_causal_5.png"" class=""exp-image"">
                    <div class=""question-area"">
                        <p style=""font-size: 20px; font-weight: bold; margin: 0;"">Is there a person in this image?</p>
                    </div>
                </div>","0","main_experiment_trial","5","the_performance_causal","causal_sequence","chronological","","","","","","",""
"","","","","","html-keyboard-response","153","271063","0.0-153.0","282F6EB95349403894A394B108FBBE1D","019cfa89-6b99-7554-984b-b8fd1e69c1a1","019cfa3a-388e-72ab-ad58-bdeb258f96cd","","null","
                <div class=""stimulus-container"">
                    <img src=""images/causal_sequence/the_performance_causal/the_performance_causal_6.png"" class=""exp-image"">
                    <div class=""question-area""></div> 
                </div>","null","","","","","","","","","","","",""
"","","","","","html-button-response","154","271279","0.0-154.0","282F6EB95349403894A394B108FBBE1D","019cfa89-6b99-7554-984b-b8fd1e69c1a1","019cfa3a-388e-72ab-ad58-bdeb258f96cd","","216","
                <div class=""stimulus-container"">
                    <img src=""images/causal_sequence/the_performance_causal/the_performance_causal_6.png"" class=""exp-image"">
                    <div class=""question-area"">
                        <p style=""font-size: 20px; font-weight: bold; margin: 0;"">Is there a person in this image?</p>
                    </div>
                </div>","0","main_experiment_trial","6","the_performance_causal","causal_sequence","chronological","","","","","","",""
"","","","","","html-keyboard-response","155","272280","0.0-155.0","282F6EB95349403894A394B108FBBE1D","019cfa89-6b99-7554-984b-b8fd1e69c1a1","019cfa3a-388e-72ab-ad58-bdeb258f96cd","","null","
                <div class=""stimulus-container"">
                    <img src=""images/causal_sequence/the_performance_causal/the_performance_causal_7.png"" class=""exp-image"">
                    <div class=""question-area""></div> 
                </div>","null","","","","","","","","","","","",""
"","","","","","html-button-response","156","272586","0.0-156.0","282F6EB95349403894A394B108FBBE1D","019cfa89-6b99-7554-984b-b8fd1e69c1a1","019cfa3a-388e-72ab-ad58-bdeb258f96cd","","306","
                <div class=""stimulus-container"">
                    <img src=""images/causal_sequence/the_performance_causal/the_performance_causal_7.png"" class=""exp-image"">
                    <div class=""question-area"">
                        <p style=""font-size: 20px; font-weight: bold; margin: 0;"">Is there a person in this image?</p>
                    </div>
                </div>","0","main_experiment_trial","7","the_performance_causal","causal_sequence","chronological","","","","","","",""
"","","","","","html-keyboard-response","157","273596","0.0-157.0","282F6EB95349403894A394B108FBBE1D","019cfa89-6b99-7554-984b-b8fd1e69c1a1","019cfa3a-388e-72ab-ad58-bdeb258f96cd","","null","
                <div class=""stimulus-container"">
                    <img src=""images/causal_sequence/the_performance_causal/the_performance_causal_8.png"" class=""exp-image"">
                    <div class=""question-area""></div> 
                </div>","null","","","","","","","","","","","",""
"","","","","","html-button-response","158","273853","0.0-158.0","282F6EB95349403894A394B108FBBE1D","019cfa89-6b99-7554-984b-b8fd1e69c1a1","019cfa3a-388e-72ab-ad58-bdeb258f96cd","","257","
                <div class=""stimulus-container"">
                    <img src=""images/causal_sequence/the_performance_causal/the_performance_causal_8.png"" class=""exp-image"">
                    <div class=""question-area"">
                        <p style=""font-size: 20px; font-weight: bold; margin: 0;"">Is there a person in this image?</p>
                    </div>
                </div>","0","main_experiment_trial","8","the_performance_causal","causal_sequence","chronological","","","","","","",""
"","","","","","html-keyboard-response","159","274863","0.0-159.0","282F6EB95349403894A394B108FBBE1D","019cfa89-6b99-7554-984b-b8fd1e69c1a1","019cfa3a-388e-72ab-ad58-bdeb258f96cd","","null","
                <div class=""stimulus-container"">
                    <img src=""images/causal_sequence/the_performance_causal/the_performance_causal_9.png"" class=""exp-image"">
                    <div class=""question-area""></div> 
                </div>","null","","","","","","","","","","","",""
"","","","","","html-button-response","160","275124","0.0-160.0","282F6EB95349403894A394B108FBBE1D","019cfa89-6b99-7554-984b-b8fd1e69c1a1","019cfa3a-388e-72ab-ad58-bdeb258f96cd","","261","
                <div class=""stimulus-container"">
                    <img src=""images/causal_sequence/the_performance_causal/the_performance_causal_9.png"" class=""exp-image"">
                    <div class=""question-area"">
                        <p style=""font-size: 20px; font-weight: bold; margin: 0;"">Is there a person in this image?</p>
                    </div>
                </div>","0","main_experiment_trial","9","the_performance_causal","causal_sequence","chronological","","","","","","",""
"","","","","","html-keyboard-response","161","276126","0.0-161.0","282F6EB95349403894A394B108FBBE1D","019cfa89-6b99-7554-984b-b8fd1e69c1a1","019cfa3a-388e-72ab-ad58-bdeb258f96cd","","null","
                <div class=""stimulus-container"">
                    <img src=""images/causal_sequence/the_performance_causal/the_performance_causal_ten.png"" class=""exp-image"">
                    <div class=""question-area""></div> 
                </div>","null","","","","","","","","","","","",""
"","","","","","html-button-response","162","276395","0.0-162.0","282F6EB95349403894A394B108FBBE1D","019cfa89-6b99-7554-984b-b8fd1e69c1a1","019cfa3a-388e-72ab-ad58-bdeb258f96cd","","269","
                <div class=""stimulus-container"">
                    <img src=""images/causal_sequence/the_performance_causal/the_performance_causal_ten.png"" class=""exp-image"">
                    <div class=""question-area"">
                        <p style=""font-size: 20px; font-weight: bold; margin: 0;"">Is there a person in this image?</p>
                    </div>
                </div>","0","main_experiment_trial","ten","the_performance_causal","causal_sequence","chronological","","","","","","",""
"","","","","","html-keyboard-response","163","281400","0.0-163.0","282F6EB95349403894A394B108FBBE1D","019cfa89-6b99-7554-984b-b8fd1e69c1a1","019cfa3a-388e-72ab-ad58-bdeb258f96cd","","null","<div style=""background-color: white; width: 100vw; height: 100vh;""></div>","null","","","","","","","","","","","",""
"","","","","","html-keyboard-response","164","282412","0.0-164.0","282F6EB95349403894A394B108FBBE1D","019cfa89-6b99-7554-984b-b8fd1e69c1a1","019cfa3a-388e-72ab-ad58-bdeb258f96cd","","null","
                <div class=""stimulus-container"">
                    <img src=""images/semantic_sequence/cat_care_semantic/cat_care_semantic_1.png"" class=""exp-image"">
                    <div class=""question-area""></div> 
                </div>","null","","","","","","","","","","","",""
"","","","","","html-button-response","165","282766","0.0-165.0","282F6EB95349403894A394B108FBBE1D","019cfa89-6b99-7554-984b-b8fd1e69c1a1","019cfa3a-388e-72ab-ad58-bdeb258f96cd","","354","
                <div class=""stimulus-container"">
                    <img src=""images/semantic_sequence/cat_care_semantic/cat_care_semantic_1.png"" class=""exp-image"">
                    <div class=""question-area"">
                        <p style=""font-size: 20px; font-weight: bold; margin: 0;"">Is there a person in this image?</p>
                    </div>
                </div>","0","main_experiment_trial","1","cat_care_semantic","semantic_sequence","chronological","","","","","","",""
"","","","","","html-keyboard-response","166","283768","0.0-166.0","282F6EB95349403894A394B108FBBE1D","019cfa89-6b99-7554-984b-b8fd1e69c1a1","019cfa3a-388e-72ab-ad58-bdeb258f96cd","","null","
                <div class=""stimulus-container"">
                    <img src=""images/semantic_sequence/cat_care_semantic/cat_care_semantic_2.png"" class=""exp-image"">
                    <div class=""question-area""></div> 
                </div>","null","","","","","","","","","","","",""
"","","","","","html-button-response","167","284066","0.0-167.0","282F6EB95349403894A394B108FBBE1D","019cfa89-6b99-7554-984b-b8fd1e69c1a1","019cfa3a-388e-72ab-ad58-bdeb258f96cd","","298","
                <div class=""stimulus-container"">
                    <img src=""images/semantic_sequence/cat_care_semantic/cat_care_semantic_2.png"" class=""exp-image"">
                    <div class=""question-area"">
                        <p style=""font-size: 20px; font-weight: bold; margin: 0;"">Is there a person in this image?</p>
                    </div>
                </div>","0","main_experiment_trial","2","cat_care_semantic","semantic_sequence","chronological","","","","","","",""
"","","","","","html-keyboard-response","168","285071","0.0-168.0","282F6EB95349403894A394B108FBBE1D","019cfa89-6b99-7554-984b-b8fd1e69c1a1","019cfa3a-388e-72ab-ad58-bdeb258f96cd","","null","
                <div class=""stimulus-container"">
                    <img src=""images/semantic_sequence/cat_care_semantic/cat_care_semantic_3.png"" class=""exp-image"">
                    <div class=""question-area""></div> 
                </div>","null","","","","","","","","","","","",""
"","","","","","html-button-response","169","285378","0.0-169.0","282F6EB95349403894A394B108FBBE1D","019cfa89-6b99-7554-984b-b8fd1e69c1a1","019cfa3a-388e-72ab-ad58-bdeb258f96cd","","307","
                <div class=""stimulus-container"">
                    <img src=""images/semantic_sequence/cat_care_semantic/cat_care_semantic_3.png"" class=""exp-image"">
                    <div class=""question-area"">
                        <p style=""font-size: 20px; font-weight: bold; margin: 0;"">Is there a person in this image?</p>
                    </div>
                </div>","0","main_experiment_trial","3","cat_care_semantic","semantic_sequence","chronological","","","","","","",""
"","","","","","html-keyboard-response","170","286379","0.0-170.0","282F6EB95349403894A394B108FBBE1D","019cfa89-6b99-7554-984b-b8fd1e69c1a1","019cfa3a-388e-72ab-ad58-bdeb258f96cd","","null","
                <div class=""stimulus-container"">
                    <img src=""images/semantic_sequence/cat_care_semantic/cat_care_semantic_4.png"" class=""exp-image"">
                    <div class=""question-area""></div> 
                </div>","null","","","","","","","","","","","",""
"","","","","","html-button-response","171","286811","0.0-171.0","282F6EB95349403894A394B108FBBE1D","019cfa89-6b99-7554-984b-b8fd1e69c1a1","019cfa3a-388e-72ab-ad58-bdeb258f96cd","","432","
                <div class=""stimulus-container"">
                    <img src=""images/semantic_sequence/cat_care_semantic/cat_care_semantic_4.png"" class=""exp-image"">
                    <div class=""question-area"">
                        <p style=""font-size: 20px; font-weight: bold; margin: 0;"">Is there a person in this image?</p>
                    </div>
                </div>","0","main_experiment_trial","4","cat_care_semantic","semantic_sequence","chronological","","","","","","",""
"","","","","","html-keyboard-response","172","287827","0.0-172.0","282F6EB95349403894A394B108FBBE1D","019cfa89-6b99-7554-984b-b8fd1e69c1a1","019cfa3a-388e-72ab-ad58-bdeb258f96cd","","null","
                <div class=""stimulus-container"">
                    <img src=""images/semantic_sequence/cat_care_semantic/cat_care_semantic_5.png"" class=""exp-image"">
                    <div class=""question-area""></div> 
                </div>","null","","","","","","","","","","","",""
"","","","","","html-button-response","173","288147","0.0-173.0","282F6EB95349403894A394B108FBBE1D","019cfa89-6b99-7554-984b-b8fd1e69c1a1","019cfa3a-388e-72ab-ad58-bdeb258f96cd","","320","
                <div class=""stimulus-container"">
                    <img src=""images/semantic_sequence/cat_care_semantic/cat_care_semantic_5.png"" class=""exp-image"">
                    <div class=""question-area"">
                        <p style=""font-size: 20px; font-weight: bold; margin: 0;"">Is there a person in this image?</p>
                    </div>
                </div>","0","main_experiment_trial","5","cat_care_semantic","semantic_sequence","chronological","","","","","","",""
"","","","","","html-keyboard-response","174","289151","0.0-174.0","282F6EB95349403894A394B108FBBE1D","019cfa89-6b99-7554-984b-b8fd1e69c1a1","019cfa3a-388e-72ab-ad58-bdeb258f96cd","","null","
                <div class=""stimulus-container"">
                    <img src=""images/semantic_sequence/cat_care_semantic/cat_care_semantic_6.png"" class=""exp-image"">
                    <div class=""question-area""></div> 
                </div>","null","","","","","","","","","","","",""
"","","","","","html-button-response","175","289477","0.0-175.0","282F6EB95349403894A394B108FBBE1D","019cfa89-6b99-7554-984b-b8fd1e69c1a1","019cfa3a-388e-72ab-ad58-bdeb258f96cd","","326","
                <div class=""stimulus-container"">
                    <img src=""images/semantic_sequence/cat_care_semantic/cat_care_semantic_6.png"" class=""exp-image"">
                    <div class=""question-area"">
