"success","timeout","failed_images","failed_audio","failed_video","trial_type","trial_index","time_elapsed","internal_node_id","subject_id","study_id","session_id","view_history","rt","stimulus","response","task","image_index","folder","sequence_type","presentation_order","valuable_image_index","reward_type","distance_from_x","target_X","chosen_image_index","is_x_plus_dist","correct_choice"
"true","false","[]","[]","[]","preload","0","12254","0.0-0.0","22562C21FF554B5B856E3FC2575DECB0","019cfc8c-0770-74d7-8283-01f03e652281","019cfc7b-6c7b-7b1b-afe7-acad8efc6711","","","","","","","","","","","","","","","",""
"","","","","","instructions","1","17678","0.0-1.0","22562C21FF554B5B856E3FC2575DECB0","019cfc8c-0770-74d7-8283-01f03e652281","019cfc7b-6c7b-7b1b-afe7-acad8efc6711","[{""page_index"":0,""viewing_time"":5423}]","5423","","","","","","","","","","","","","",""
"","","","","","instructions","2","40859","0.0-2.0","22562C21FF554B5B856E3FC2575DECB0","019cfc8c-0770-74d7-8283-01f03e652281","019cfc7b-6c7b-7b1b-afe7-acad8efc6711","[{""page_index"":0,""viewing_time"":23168}]","23180","","","","","","","","","","","","","",""
"true","","","","","fullscreen","3","44190","0.0-3.0","22562C21FF554B5B856E3FC2575DECB0","019cfc8c-0770-74d7-8283-01f03e652281","019cfc7b-6c7b-7b1b-afe7-acad8efc6711","","2315","","","","","","","","","","","","","",""
"","","","","","instructions","4","60924","0.0-4.0","22562C21FF554B5B856E3FC2575DECB0","019cfc8c-0770-74d7-8283-01f03e652281","019cfc7b-6c7b-7b1b-afe7-acad8efc6711","[{""page_index"":0,""viewing_time"":16733}]","16734","","","","","","","","","","","","","",""
"","","","","","instructions","5","72777","0.0-5.0","22562C21FF554B5B856E3FC2575DECB0","019cfc8c-0770-74d7-8283-01f03e652281","019cfc7b-6c7b-7b1b-afe7-acad8efc6711","[{""page_index"":0,""viewing_time"":11851}]","11852","","","","","","","","","","","","","",""
"","","","","","html-keyboard-response","6","76795","0.0-6.0","22562C21FF554B5B856E3FC2575DECB0","019cfc8c-0770-74d7-8283-01f03e652281","019cfc7b-6c7b-7b1b-afe7-acad8efc6711","","null","
                <div class=""stimulus-container"">
                    <img src=""images/instructions/movie_1.png"" class=""exp-image"">
                    <div class=""question-area""></div> 
                </div>","null","","","","","","","","","","","",""
"","","","","","html-button-response","7","78499","0.0-7.0","22562C21FF554B5B856E3FC2575DECB0","019cfc8c-0770-74d7-8283-01f03e652281","019cfc7b-6c7b-7b1b-afe7-acad8efc6711","","1699","
                <div class=""stimulus-container"">
                    <img src=""images/instructions/movie_1.png"" class=""exp-image"">
                    <div class=""question-area"">
                        <p style=""font-size: 20px; font-weight: bold; margin: 0;"">Was there a person in this image?</p>
                    </div>
                </div>","0","example_question","1","","","","","","","","","",""
"","","","","","html-keyboard-response","8","82510","0.0-8.0","22562C21FF554B5B856E3FC2575DECB0","019cfc8c-0770-74d7-8283-01f03e652281","019cfc7b-6c7b-7b1b-afe7-acad8efc6711","","null","
                <div class=""stimulus-container"">
                    <img src=""images/instructions/movie_2.png"" class=""exp-image"">
                    <div class=""question-area""></div> 
                </div>","null","","","","","","","","","","","",""
"","","","","","html-button-response","9","83319","0.0-9.0","22562C21FF554B5B856E3FC2575DECB0","019cfc8c-0770-74d7-8283-01f03e652281","019cfc7b-6c7b-7b1b-afe7-acad8efc6711","","806","
                <div class=""stimulus-container"">
                    <img src=""images/instructions/movie_2.png"" class=""exp-image"">
                    <div class=""question-area"">
                        <p style=""font-size: 20px; font-weight: bold; margin: 0;"">Was there a person in this image?</p>
                    </div>
                </div>","0","example_question","2","","","","","","","","","",""
"","","","","","html-keyboard-response","10","87324","0.0-10.0","22562C21FF554B5B856E3FC2575DECB0","019cfc8c-0770-74d7-8283-01f03e652281","019cfc7b-6c7b-7b1b-afe7-acad8efc6711","","null","
                <div class=""stimulus-container"">
                    <img src=""images/instructions/movie_3.png"" class=""exp-image"">
                    <div class=""question-area""></div> 
                </div>","null","","","","","","","","","","","",""
"","","","","","html-button-response","11","88133","0.0-11.0","22562C21FF554B5B856E3FC2575DECB0","019cfc8c-0770-74d7-8283-01f03e652281","019cfc7b-6c7b-7b1b-afe7-acad8efc6711","","808","
                <div class=""stimulus-container"">
                    <img src=""images/instructions/movie_3.png"" class=""exp-image"">
                    <div class=""question-area"">
                        <p style=""font-size: 20px; font-weight: bold; margin: 0;"">Was there a person in this image?</p>
                    </div>
                </div>","0","example_question","3","","","","","","","","","",""
"","","","","","html-keyboard-response","12","92138","0.0-12.0","22562C21FF554B5B856E3FC2575DECB0","019cfc8c-0770-74d7-8283-01f03e652281","019cfc7b-6c7b-7b1b-afe7-acad8efc6711","","null","
                <div class=""stimulus-container"">
                    <img src=""images/instructions/movie_4.png"" class=""exp-image"">
                    <div class=""question-area""></div> 
                </div>","null","","","","","","","","","","","",""
"","","","","","html-button-response","13","92781","0.0-13.0","22562C21FF554B5B856E3FC2575DECB0","019cfc8c-0770-74d7-8283-01f03e652281","019cfc7b-6c7b-7b1b-afe7-acad8efc6711","","638","
                <div class=""stimulus-container"">
                    <img src=""images/instructions/movie_4.png"" class=""exp-image"">
                    <div class=""question-area"">
                        <p style=""font-size: 20px; font-weight: bold; margin: 0;"">Was there a person in this image?</p>
                    </div>
                </div>","0","example_question","4","","","","","","","","","",""
"","","","","","instructions","14","94532","0.0-14.0","22562C21FF554B5B856E3FC2575DECB0","019cfc8c-0770-74d7-8283-01f03e652281","019cfc7b-6c7b-7b1b-afe7-acad8efc6711","[{""page_index"":0,""viewing_time"":1746}]","1750","","","","","","","","","","","","","",""
"","","","","","instructions","15","103882","0.0-15.0","22562C21FF554B5B856E3FC2575DECB0","019cfc8c-0770-74d7-8283-01f03e652281","019cfc7b-6c7b-7b1b-afe7-acad8efc6711","[{""page_index"":0,""viewing_time"":9348}]","9348","","","","","","","","","","","","","",""
"","","","","","html-keyboard-response","16","108899","0.0-16.0","22562C21FF554B5B856E3FC2575DECB0","019cfc8c-0770-74d7-8283-01f03e652281","019cfc7b-6c7b-7b1b-afe7-acad8efc6711","","null","<div style=""background-color: white; width: 100vw; height: 100vh;""></div>","null","","","","","","","","","","","",""
"","","","","","html-keyboard-response","17","113907","0.0-17.0","22562C21FF554B5B856E3FC2575DECB0","019cfc8c-0770-74d7-8283-01f03e652281","019cfc7b-6c7b-7b1b-afe7-acad8efc6711","","null","
                <div class=""stimulus-container"">
                    <img src=""images/causal_sequence/the_performance_causal/the_performance_causal_1.png"" class=""exp-image"">
                    <div class=""question-area""></div> 
                </div>","null","","","","","","","","","","","",""
"","","","","","html-button-response","18","115618","0.0-18.0","22562C21FF554B5B856E3FC2575DECB0","019cfc8c-0770-74d7-8283-01f03e652281","019cfc7b-6c7b-7b1b-afe7-acad8efc6711","","1708","
                <div class=""stimulus-container"">
                    <img src=""images/causal_sequence/the_performance_causal/the_performance_causal_1.png"" class=""exp-image"">
                    <div class=""question-area"">
                        <p style=""font-size: 20px; font-weight: bold; margin: 0;"">Is there a person in this image?</p>
                    </div>
                </div>","0","main_experiment_trial","1","the_performance_causal","causal_sequence","chronological","","","","","","",""
"","","","","","html-keyboard-response","19","120625","0.0-19.0","22562C21FF554B5B856E3FC2575DECB0","019cfc8c-0770-74d7-8283-01f03e652281","019cfc7b-6c7b-7b1b-afe7-acad8efc6711","","null","
                <div class=""stimulus-container"">
                    <img src=""images/causal_sequence/the_performance_causal/the_performance_causal_2.png"" class=""exp-image"">
                    <div class=""question-area""></div> 
                </div>","null","","","","","","","","","","","",""
"","","","","","html-button-response","20","121404","0.0-20.0","22562C21FF554B5B856E3FC2575DECB0","019cfc8c-0770-74d7-8283-01f03e652281","019cfc7b-6c7b-7b1b-afe7-acad8efc6711","","778","
                <div class=""stimulus-container"">
                    <img src=""images/causal_sequence/the_performance_causal/the_performance_causal_2.png"" class=""exp-image"">
                    <div class=""question-area"">
                        <p style=""font-size: 20px; font-weight: bold; margin: 0;"">Is there a person in this image?</p>
                    </div>
                </div>","0","main_experiment_trial","2","the_performance_causal","causal_sequence","chronological","","","","","","",""
"","","","","","html-keyboard-response","21","126406","0.0-21.0","22562C21FF554B5B856E3FC2575DECB0","019cfc8c-0770-74d7-8283-01f03e652281","019cfc7b-6c7b-7b1b-afe7-acad8efc6711","","null","
                <div class=""stimulus-container"">
                    <img src=""images/causal_sequence/the_performance_causal/the_performance_causal_3.png"" class=""exp-image"">
                    <div class=""question-area""></div> 
                </div>","null","","","","","","","","","","","",""
"","","","","","html-button-response","22","127173","0.0-22.0","22562C21FF554B5B856E3FC2575DECB0","019cfc8c-0770-74d7-8283-01f03e652281","019cfc7b-6c7b-7b1b-afe7-acad8efc6711","","766","
                <div class=""stimulus-container"">
                    <img src=""images/causal_sequence/the_performance_causal/the_performance_causal_3.png"" class=""exp-image"">
                    <div class=""question-area"">
                        <p style=""font-size: 20px; font-weight: bold; margin: 0;"">Is there a person in this image?</p>
                    </div>
                </div>","0","main_experiment_trial","3","the_performance_causal","causal_sequence","chronological","","","","","","",""
"","","","","","html-keyboard-response","23","132188","0.0-23.0","22562C21FF554B5B856E3FC2575DECB0","019cfc8c-0770-74d7-8283-01f03e652281","019cfc7b-6c7b-7b1b-afe7-acad8efc6711","","null","
                <div class=""stimulus-container"">
                    <img src=""images/causal_sequence/the_performance_causal/the_performance_causal_4.png"" class=""exp-image"">
                    <div class=""question-area""></div> 
                </div>","null","","","","","","","","","","","",""
"","","","","","html-button-response","24","133323","0.0-24.0","22562C21FF554B5B856E3FC2575DECB0","019cfc8c-0770-74d7-8283-01f03e652281","019cfc7b-6c7b-7b1b-afe7-acad8efc6711","","1134","
                <div class=""stimulus-container"">
                    <img src=""images/causal_sequence/the_performance_causal/the_performance_causal_4.png"" class=""exp-image"">
                    <div class=""question-area"">
                        <p style=""font-size: 20px; font-weight: bold; margin: 0;"">Is there a person in this image?</p>
                    </div>
                </div>","0","main_experiment_trial","4","the_performance_causal","causal_sequence","chronological","","","","","","",""
"","","","","","html-keyboard-response","25","138342","0.0-25.0","22562C21FF554B5B856E3FC2575DECB0","019cfc8c-0770-74d7-8283-01f03e652281","019cfc7b-6c7b-7b1b-afe7-acad8efc6711","","null","
                <div class=""stimulus-container"">
                    <img src=""images/causal_sequence/the_performance_causal/the_performance_causal_5.png"" class=""exp-image"">
                    <div class=""question-area""></div> 
                </div>","null","","","","","","","","","","","",""
"","","","","","html-button-response","26","139054","0.0-26.0","22562C21FF554B5B856E3FC2575DECB0","019cfc8c-0770-74d7-8283-01f03e652281","019cfc7b-6c7b-7b1b-afe7-acad8efc6711","","711","
                <div class=""stimulus-container"">
                    <img src=""images/causal_sequence/the_performance_causal/the_performance_causal_5.png"" class=""exp-image"">
                    <div class=""question-area"">
                        <p style=""font-size: 20px; font-weight: bold; margin: 0;"">Is there a person in this image?</p>
                    </div>
                </div>","0","main_experiment_trial","5","the_performance_causal","causal_sequence","chronological","","","","","","",""
"","","","","","html-keyboard-response","27","144061","0.0-27.0","22562C21FF554B5B856E3FC2575DECB0","019cfc8c-0770-74d7-8283-01f03e652281","019cfc7b-6c7b-7b1b-afe7-acad8efc6711","","null","
                <div class=""stimulus-container"">
                    <img src=""images/causal_sequence/the_performance_causal/the_performance_causal_6.png"" class=""exp-image"">
                    <div class=""question-area""></div> 
                </div>","null","","","","","","","","","","","",""
"","","","","","html-button-response","28","144761","0.0-28.0","22562C21FF554B5B856E3FC2575DECB0","019cfc8c-0770-74d7-8283-01f03e652281","019cfc7b-6c7b-7b1b-afe7-acad8efc6711","","698","
                <div class=""stimulus-container"">
                    <img src=""images/causal_sequence/the_performance_causal/the_performance_causal_6.png"" class=""exp-image"">
                    <div class=""question-area"">
                        <p style=""font-size: 20px; font-weight: bold; margin: 0;"">Is there a person in this image?</p>
                    </div>
                </div>","0","main_experiment_trial","6","the_performance_causal","causal_sequence","chronological","","","","","","",""
"","","","","","html-keyboard-response","29","149776","0.0-29.0","22562C21FF554B5B856E3FC2575DECB0","019cfc8c-0770-74d7-8283-01f03e652281","019cfc7b-6c7b-7b1b-afe7-acad8efc6711","","null","
                <div class=""stimulus-container"">
                    <img src=""images/causal_sequence/the_performance_causal/the_performance_causal_7.png"" class=""exp-image"">
                    <div class=""question-area""></div> 
                </div>","null","","","","","","","","","","","",""
"","","","","","html-button-response","30","150413","0.0-30.0","22562C21FF554B5B856E3FC2575DECB0","019cfc8c-0770-74d7-8283-01f03e652281","019cfc7b-6c7b-7b1b-afe7-acad8efc6711","","637","
                <div class=""stimulus-container"">
                    <img src=""images/causal_sequence/the_performance_causal/the_performance_causal_7.png"" class=""exp-image"">
                    <div class=""question-area"">
                        <p style=""font-size: 20px; font-weight: bold; margin: 0;"">Is there a person in this image?</p>
                    </div>
                </div>","0","main_experiment_trial","7","the_performance_causal","causal_sequence","chronological","","","","","","",""
"","","","","","html-keyboard-response","31","155416","0.0-31.0","22562C21FF554B5B856E3FC2575DECB0","019cfc8c-0770-74d7-8283-01f03e652281","019cfc7b-6c7b-7b1b-afe7-acad8efc6711","","null","
                <div class=""stimulus-container"">
                    <img src=""images/causal_sequence/the_performance_causal/the_performance_causal_8.png"" class=""exp-image"">
                    <div class=""question-area""></div> 
                </div>","null","","","","","","","","","","","",""
"","","","","","html-button-response","32","156286","0.0-32.0","22562C21FF554B5B856E3FC2575DECB0","019cfc8c-0770-74d7-8283-01f03e652281","019cfc7b-6c7b-7b1b-afe7-acad8efc6711","","869","
                <div class=""stimulus-container"">
                    <img src=""images/causal_sequence/the_performance_causal/the_performance_causal_8.png"" class=""exp-image"">
                    <div class=""question-area"">
                        <p style=""font-size: 20px; font-weight: bold; margin: 0;"">Is there a person in this image?</p>
                    </div>
                </div>","0","main_experiment_trial","8","the_performance_causal","causal_sequence","chronological","","","","","","",""
"","","","","","html-keyboard-response","33","161293","0.0-33.0","22562C21FF554B5B856E3FC2575DECB0","019cfc8c-0770-74d7-8283-01f03e652281","019cfc7b-6c7b-7b1b-afe7-acad8efc6711","","null","
                <div class=""stimulus-container"">
                    <img src=""images/causal_sequence/the_performance_causal/the_performance_causal_9.png"" class=""exp-image"">
                    <div class=""question-area""></div> 
                </div>","null","","","","","","","","","","","",""
"","","","","","html-button-response","34","162156","0.0-34.0","22562C21FF554B5B856E3FC2575DECB0","019cfc8c-0770-74d7-8283-01f03e652281","019cfc7b-6c7b-7b1b-afe7-acad8efc6711","","862","
                <div class=""stimulus-container"">
                    <img src=""images/causal_sequence/the_performance_causal/the_performance_causal_9.png"" class=""exp-image"">
                    <div class=""question-area"">
                        <p style=""font-size: 20px; font-weight: bold; margin: 0;"">Is there a person in this image?</p>
                    </div>
                </div>","0","main_experiment_trial","9","the_performance_causal","causal_sequence","chronological","","","","","","",""
"","","","","","html-keyboard-response","35","167165","0.0-35.0","22562C21FF554B5B856E3FC2575DECB0","019cfc8c-0770-74d7-8283-01f03e652281","019cfc7b-6c7b-7b1b-afe7-acad8efc6711","","null","
                <div class=""stimulus-container"">
                    <img src=""images/causal_sequence/the_performance_causal/the_performance_causal_ten.png"" class=""exp-image"">
                    <div class=""question-area""></div> 
                </div>","null","","","","","","","","","","","",""
"","","","","","html-button-response","36","167953","0.0-36.0","22562C21FF554B5B856E3FC2575DECB0","019cfc8c-0770-74d7-8283-01f03e652281","019cfc7b-6c7b-7b1b-afe7-acad8efc6711","","786","
                <div class=""stimulus-container"">
                    <img src=""images/causal_sequence/the_performance_causal/the_performance_causal_ten.png"" class=""exp-image"">
                    <div class=""question-area"">
                        <p style=""font-size: 20px; font-weight: bold; margin: 0;"">Is there a person in this image?</p>
                    </div>
                </div>","0","main_experiment_trial","ten","the_performance_causal","causal_sequence","chronological","","","","","","",""
"","","","","","html-keyboard-response","37","172964","0.0-37.0","22562C21FF554B5B856E3FC2575DECB0","019cfc8c-0770-74d7-8283-01f03e652281","019cfc7b-6c7b-7b1b-afe7-acad8efc6711","","null","<div style=""background-color: white; width: 100vw; height: 100vh;""></div>","null","","","","","","","","","","","",""
"","","","","","html-keyboard-response","38","177969","0.0-38.0","22562C21FF554B5B856E3FC2575DECB0","019cfc8c-0770-74d7-8283-01f03e652281","019cfc7b-6c7b-7b1b-afe7-acad8efc6711","","null","
                <div class=""stimulus-container"">
                    <img src=""images/semantic_sequence/visiting_cities_semantic/visiting_cities_semantic_1.png"" class=""exp-image"">
                    <div class=""question-area""></div> 
                </div>","null","","","","","","","","","","","",""
"","","","","","html-button-response","39","179167","0.0-39.0","22562C21FF554B5B856E3FC2575DECB0","019cfc8c-0770-74d7-8283-01f03e652281","019cfc7b-6c7b-7b1b-afe7-acad8efc6711","","1196","
                <div class=""stimulus-container"">
                    <img src=""images/semantic_sequence/visiting_cities_semantic/visiting_cities_semantic_1.png"" class=""exp-image"">
                    <div class=""question-area"">
                        <p style=""font-size: 20px; font-weight: bold; margin: 0;"">Is there a person in this image?</p>
                    </div>
                </div>","0","main_experiment_trial","1","visiting_cities_semantic","semantic_sequence","chronological","","","","","","",""
"","","","","","html-keyboard-response","40","184176","0.0-40.0","22562C21FF554B5B856E3FC2575DECB0","019cfc8c-0770-74d7-8283-01f03e652281","019cfc7b-6c7b-7b1b-afe7-acad8efc6711","","null","
                <div class=""stimulus-container"">
                    <img src=""images/semantic_sequence/visiting_cities_semantic/visiting_cities_semantic_2.png"" class=""exp-image"">
                    <div class=""question-area""></div> 
                </div>","null","","","","","","","","","","","",""
"","","","","","html-button-response","41","185349","0.0-41.0","22562C21FF554B5B856E3FC2575DECB0","019cfc8c-0770-74d7-8283-01f03e652281","019cfc7b-6c7b-7b1b-afe7-acad8efc6711","","1172","
                <div class=""stimulus-container"">
                    <img src=""images/semantic_sequence/visiting_cities_semantic/visiting_cities_semantic_2.png"" class=""exp-image"">
                    <div class=""question-area"">
                        <p style=""font-size: 20px; font-weight: bold; margin: 0;"">Is there a person in this image?</p>
                    </div>
                </div>","1","main_experiment_trial","2","visiting_cities_semantic","semantic_sequence","chronological","","","","","","",""
"","","","","","html-keyboard-response","42","190353","0.0-42.0","22562C21FF554B5B856E3FC2575DECB0","019cfc8c-0770-74d7-8283-01f03e652281","019cfc7b-6c7b-7b1b-afe7-acad8efc6711","","null","
                <div class=""stimulus-container"">
                    <img src=""images/semantic_sequence/visiting_cities_semantic/visiting_cities_semantic_3.png"" class=""exp-image"">
                    <div class=""question-area""></div> 
                </div>","null","","","","","","","","","","","",""
"","","","","","html-button-response","43","191420","0.0-43.0","22562C21FF554B5B856E3FC2575DECB0","019cfc8c-0770-74d7-8283-01f03e652281","019cfc7b-6c7b-7b1b-afe7-acad8efc6711","","1066","
                <div class=""stimulus-container"">
                    <img src=""images/semantic_sequence/visiting_cities_semantic/visiting_cities_semantic_3.png"" class=""exp-image"">
                    <div class=""question-area"">
                        <p style=""font-size: 20px; font-weight: bold; margin: 0;"">Is there a person in this image?</p>
                    </div>
                </div>","1","main_experiment_trial","3","visiting_cities_semantic","semantic_sequence","chronological","","","","","","",""
"","","","","","html-keyboard-response","44","196425","0.0-44.0","22562C21FF554B5B856E3FC2575DECB0","019cfc8c-0770-74d7-8283-01f03e652281","019cfc7b-6c7b-7b1b-afe7-acad8efc6711","","null","
                <div class=""stimulus-container"">
                    <img src=""images/semantic_sequence/visiting_cities_semantic/visiting_cities_semantic_4.png"" class=""exp-image"">
                    <div class=""question-area""></div> 
                </div>","null","","","","","","","","","","","",""
"","","","","","html-button-response","45","197362","0.0-45.0","22562C21FF554B5B856E3FC2575DECB0","019cfc8c-0770-74d7-8283-01f03e652281","019cfc7b-6c7b-7b1b-afe7-acad8efc6711","","936","
                <div class=""stimulus-container"">
                    <img src=""images/semantic_sequence/visiting_cities_semantic/visiting_cities_semantic_4.png"" class=""exp-image"">
                    <div class=""question-area"">
                        <p style=""font-size: 20px; font-weight: bold; margin: 0;"">Is there a person in this image?</p>
                    </div>
                </div>","1","main_experiment_trial","4","visiting_cities_semantic","semantic_sequence","chronological","","","","","","",""
"","","","","","html-keyboard-response","46","202363","0.0-46.0","22562C21FF554B5B856E3FC2575DECB0","019cfc8c-0770-74d7-8283-01f03e652281","019cfc7b-6c7b-7b1b-afe7-acad8efc6711","","null","
                <div class=""stimulus-container"">
                    <img src=""images/semantic_sequence/visiting_cities_semantic/visiting_cities_semantic_5.png"" class=""exp-image"">
                    <div class=""question-area""></div> 
                </div>","null","","","","","","","","","","","",""
"","","","","","html-button-response","47","203194","0.0-47.0","22562C21FF554B5B856E3FC2575DECB0","019cfc8c-0770-74d7-8283-01f03e652281","019cfc7b-6c7b-7b1b-afe7-acad8efc6711","","830","
                <div class=""stimulus-container"">
                    <img src=""images/semantic_sequence/visiting_cities_semantic/visiting_cities_semantic_5.png"" class=""exp-image"">
                    <div class=""question-area"">
                        <p style=""font-size: 20px; font-weight: bold; margin: 0;"">Is there a person in this image?</p>
                    </div>
                </div>","1","main_experiment_trial","5","visiting_cities_semantic","semantic_sequence","chronological","","","","","","",""
"","","","","","html-keyboard-response","48","208203","0.0-48.0","22562C21FF554B5B856E3FC2575DECB0","019cfc8c-0770-74d7-8283-01f03e652281","019cfc7b-6c7b-7b1b-afe7-acad8efc6711","","null","
                <div class=""stimulus-container"">
                    <img src=""images/semantic_sequence/visiting_cities_semantic/visiting_cities_semantic_6.png"" class=""exp-image"">
                    <div class=""question-area""></div> 
                </div>","null","","","","","","","","","","","",""
"","","","","","html-button-response","49","209082","0.0-49.0","22562C21FF554B5B856E3FC2575DECB0","019cfc8c-0770-74d7-8283-01f03e652281","019cfc7b-6c7b-7b1b-afe7-acad8efc6711","","878","
                <div class=""stimulus-container"">
                    <img src=""images/semantic_sequence/visiting_cities_semantic/visiting_cities_semantic_6.png"" class=""exp-image"">
                    <div class=""question-area"">
                        <p style=""font-size: 20px; font-weight: bold; margin: 0;"">Is there a person in this image?</p>
                    </div>
                </div>","1","main_experiment_trial","6","visiting_cities_semantic","semantic_sequence","chronological","","","","","","",""
"","","","","","html-keyboard-response","50","214087","0.0-50.0","22562C21FF554B5B856E3FC2575DECB0","019cfc8c-0770-74d7-8283-01f03e652281","019cfc7b-6c7b-7b1b-afe7-acad8efc6711","","null","
                <div class=""stimulus-container"">
                    <img src=""images/semantic_sequence/visiting_cities_semantic/visiting_cities_semantic_7.png"" class=""exp-image"">
                    <div class=""question-area""></div> 
                </div>","null","","","","","","","","","","","",""
"","","","","","html-button-response","51","215217","0.0-51.0","22562C21FF554B5B856E3FC2575DECB0","019cfc8c-0770-74d7-8283-01f03e652281","019cfc7b-6c7b-7b1b-afe7-acad8efc6711","","1129","
                <div class=""stimulus-container"">
                    <img src=""images/semantic_sequence/visiting_cities_semantic/visiting_cities_semantic_7.png"" class=""exp-image"">
                    <div class=""question-area"">
                        <p style=""font-size: 20px; font-weight: bold; margin: 0;"">Is there a person in this image?</p>
                    </div>
                </div>","0","main_experiment_trial","7","visiting_cities_semantic","semantic_sequence","chronological","","","","","","",""
"","","","","","html-keyboard-response","52","220221","0.0-52.0","22562C21FF554B5B856E3FC2575DECB0","019cfc8c-0770-74d7-8283-01f03e652281","019cfc7b-6c7b-7b1b-afe7-acad8efc6711","","null","
                <div class=""stimulus-container"">
                    <img src=""images/semantic_sequence/visiting_cities_semantic/visiting_cities_semantic_8.png"" class=""exp-image"">
                    <div class=""question-area""></div> 
                </div>","null","","","","","","","","","","","",""
"","","","","","html-button-response","53","220950","0.0-53.0","22562C21FF554B5B856E3FC2575DECB0","019cfc8c-0770-74d7-8283-01f03e652281","019cfc7b-6c7b-7b1b-afe7-acad8efc6711","","728","
                <div class=""stimulus-container"">
                    <img src=""images/semantic_sequence/visiting_cities_semantic/visiting_cities_semantic_8.png"" class=""exp-image"">
                    <div class=""question-area"">
                        <p style=""font-size: 20px; font-weight: bold; margin: 0;"">Is there a person in this image?</p>
                    </div>
                </div>","0","main_experiment_trial","8","visiting_cities_semantic","semantic_sequence","chronological","","","","","","",""
"","","","","","html-keyboard-response","54","225956","0.0-54.0","22562C21FF554B5B856E3FC2575DECB0","019cfc8c-0770-74d7-8283-01f03e652281","019cfc7b-6c7b-7b1b-afe7-acad8efc6711","","null","
                <div class=""stimulus-container"">
                    <img src=""images/semantic_sequence/visiting_cities_semantic/visiting_cities_semantic_9.png"" class=""exp-image"">
                    <div class=""question-area""></div> 
                </div>","null","","","","","","","","","","","",""
"","","","","","html-button-response","55","226611","0.0-55.0","22562C21FF554B5B856E3FC2575DECB0","019cfc8c-0770-74d7-8283-01f03e652281","019cfc7b-6c7b-7b1b-afe7-acad8efc6711","","653","
                <div class=""stimulus-container"">
                    <img src=""images/semantic_sequence/visiting_cities_semantic/visiting_cities_semantic_9.png"" class=""exp-image"">
                    <div class=""question-area"">
                        <p style=""font-size: 20px; font-weight: bold; margin: 0;"">Is there a person in this image?</p>
                    </div>
                </div>","0","main_experiment_trial","9","visiting_cities_semantic","semantic_sequence","chronological","","","","","","",""
"","","","","","html-keyboard-response","56","231624","0.0-56.0","22562C21FF554B5B856E3FC2575DECB0","019cfc8c-0770-74d7-8283-01f03e652281","019cfc7b-6c7b-7b1b-afe7-acad8efc6711","","null","
                <div class=""stimulus-container"">
                    <img src=""images/semantic_sequence/visiting_cities_semantic/visiting_cities_semantic_ten.png"" class=""exp-image"">
                    <div class=""question-area""></div> 
                </div>","null","","","","","","","","","","","",""
"","","","","","html-button-response","57","233126","0.0-57.0","22562C21FF554B5B856E3FC2575DECB0","019cfc8c-0770-74d7-8283-01f03e652281","019cfc7b-6c7b-7b1b-afe7-acad8efc6711","","1500","
                <div class=""stimulus-container"">
                    <img src=""images/semantic_sequence/visiting_cities_semantic/visiting_cities_semantic_ten.png"" class=""exp-image"">
                    <div class=""question-area"">
                        <p style=""font-size: 20px; font-weight: bold; margin: 0;"">Is there a person in this image?</p>
                    </div>
                </div>","0","main_experiment_trial","ten","visiting_cities_semantic","semantic_sequence","chronological","","","","","","",""
"","","","","","html-keyboard-response","58","238131","0.0-58.0","22562C21FF554B5B856E3FC2575DECB0","019cfc8c-0770-74d7-8283-01f03e652281","019cfc7b-6c7b-7b1b-afe7-acad8efc6711","","null","<div style=""background-color: white; width: 100vw; height: 100vh;""></div>","null","","","","","","","","","","","",""
"","","","","","html-keyboard-response","59","243133","0.0-59.0","22562C21FF554B5B856E3FC2575DECB0","019cfc8c-0770-74d7-8283-01f03e652281","019cfc7b-6c7b-7b1b-afe7-acad8efc6711","","null","
                <div class=""stimulus-container"">
                    <img src=""images/schematic_sequence/dinner_party_scheme/dinner_party_scheme_1.png"" class=""exp-image"">
                    <div class=""question-area""></div> 
                </div>","null","","","","","","","","","","","",""
"","","","","","html-button-response","60","244272","0.0-60.0","22562C21FF554B5B856E3FC2575DECB0","019cfc8c-0770-74d7-8283-01f03e652281","019cfc7b-6c7b-7b1b-afe7-acad8efc6711","","1137","
                <div class=""stimulus-container"">
                    <img src=""images/schematic_sequence/dinner_party_scheme/dinner_party_scheme_1.png"" class=""exp-image"">
                    <div class=""question-area"">
                        <p style=""font-size: 20px; font-weight: bold; margin: 0;"">Is there a person in this image?</p>
                    </div>
                </div>","0","main_experiment_trial","1","dinner_party_scheme","schematic_sequence","chronological","","","","","","",""
"","","","","","html-keyboard-response","61","249275","0.0-61.0","22562C21FF554B5B856E3FC2575DECB0","019cfc8c-0770-74d7-8283-01f03e652281","019cfc7b-6c7b-7b1b-afe7-acad8efc6711","","null","
                <div class=""stimulus-container"">
                    <img src=""images/schematic_sequence/dinner_party_scheme/dinner_party_scheme_2.png"" class=""exp-image"">
                    <div class=""question-area""></div> 
                </div>","null","","","","","","","","","","","",""
"","","","","","html-button-response","62","250167","0.0-62.0","22562C21FF554B5B856E3FC2575DECB0","019cfc8c-0770-74d7-8283-01f03e652281","019cfc7b-6c7b-7b1b-afe7-acad8efc6711","","890","
                <div class=""stimulus-container"">
                    <img src=""images/schematic_sequence/dinner_party_scheme/dinner_party_scheme_2.png"" class=""exp-image"">
                    <div class=""question-area"">
                        <p style=""font-size: 20px; font-weight: bold; margin: 0;"">Is there a person in this image?</p>
                    </div>
                </div>","1","main_experiment_trial","2","dinner_party_scheme","schematic_sequence","chronological","","","","","","",""
"","","","","","html-keyboard-response","63","255185","0.0-63.0","22562C21FF554B5B856E3FC2575DECB0","019cfc8c-0770-74d7-8283-01f03e652281","019cfc7b-6c7b-7b1b-afe7-acad8efc6711","","null","
                <div class=""stimulus-container"">
                    <img src=""images/schematic_sequence/dinner_party_scheme/dinner_party_scheme_3.png"" class=""exp-image"">
                    <div class=""question-area""></div> 
                </div>","null","","","","","","","","","","","",""
"","","","","","html-button-response","64","255849","0.0-64.0","22562C21FF554B5B856E3FC2575DECB0","019cfc8c-0770-74d7-8283-01f03e652281","019cfc7b-6c7b-7b1b-afe7-acad8efc6711","","662","
                <div class=""stimulus-container"">
                    <img src=""images/schematic_sequence/dinner_party_scheme/dinner_party_scheme_3.png"" class=""exp-image"">
                    <div class=""question-area"">
                        <p style=""font-size: 20px; font-weight: bold; margin: 0;"">Is there a person in this image?</p>
                    </div>
                </div>","0","main_experiment_trial","3","dinner_party_scheme","schematic_sequence","chronological","","","","","","",""
"","","","","","html-keyboard-response","65","260853","0.0-65.0","22562C21FF554B5B856E3FC2575DECB0","019cfc8c-0770-74d7-8283-01f03e652281","019cfc7b-6c7b-7b1b-afe7-acad8efc6711","","null","
                <div class=""stimulus-container"">
                    <img src=""images/schematic_sequence/dinner_party_scheme/dinner_party_scheme_4.png"" class=""exp-image"">
                    <div class=""question-area""></div> 
                </div>","null","","","","","","","","","","","",""
"","","","","","html-button-response","66","261434","0.0-66.0","22562C21FF554B5B856E3FC2575DECB0","019cfc8c-0770-74d7-8283-01f03e652281","019cfc7b-6c7b-7b1b-afe7-acad8efc6711","","580","
                <div class=""stimulus-container"">
                    <img src=""images/schematic_sequence/dinner_party_scheme/dinner_party_scheme_4.png"" class=""exp-image"">
                    <div class=""question-area"">
                        <p style=""font-size: 20px; font-weight: bold; margin: 0;"">Is there a person in this image?</p>
                    </div>
                </div>","0","main_experiment_trial","4","dinner_party_scheme","schematic_sequence","chronological","","","","","","",""
"","","","","","html-keyboard-response","67","266436","0.0-67.0","22562C21FF554B5B856E3FC2575DECB0","019cfc8c-0770-74d7-8283-01f03e652281","019cfc7b-6c7b-7b1b-afe7-acad8efc6711","","null","
                <div class=""stimulus-container"">
                    <img src=""images/schematic_sequence/dinner_party_scheme/dinner_party_scheme_5.png"" class=""exp-image"">
                    <div class=""question-area""></div> 
                </div>","null","","","","","","","","","","","",""
"","","","","","html-button-response","68","267024","0.0-68.0","22562C21FF554B5B856E3FC2575DECB0","019cfc8c-0770-74d7-8283-01f03e652281","019cfc7b-6c7b-7b1b-afe7-acad8efc6711","","587","
                <div class=""stimulus-container"">
                    <img src=""images/schematic_sequence/dinner_party_scheme/dinner_party_scheme_5.png"" class=""exp-image"">
                    <div class=""question-area"">
                        <p style=""font-size: 20px; font-weight: bold; margin: 0;"">Is there a person in this image?</p>
                    </div>
                </div>","0","main_experiment_trial","5","dinner_party_scheme","schematic_sequence","chronological","","","","","","",""
"","","","","","html-keyboard-response","69","272043","0.0-69.0","22562C21FF554B5B856E3FC2575DECB0","019cfc8c-0770-74d7-8283-01f03e652281","019cfc7b-6c7b-7b1b-afe7-acad8efc6711","","null","
                <div class=""stimulus-container"">
                    <img src=""images/schematic_sequence/dinner_party_scheme/dinner_party_scheme_6.png"" class=""exp-image"">
                    <div class=""question-area""></div> 
                </div>","null","","","","","","","","","","","",""
"","","","","","html-button-response","70","272658","0.0-70.0","22562C21FF554B5B856E3FC2575DECB0","019cfc8c-0770-74d7-8283-01f03e652281","019cfc7b-6c7b-7b1b-afe7-acad8efc6711","","612","
                <div class=""stimulus-container"">
                    <img src=""images/schematic_sequence/dinner_party_scheme/dinner_party_scheme_6.png"" class=""exp-image"">
                    <div class=""question-area"">
                        <p style=""font-size: 20px; font-weight: bold; margin: 0;"">Is there a person in this image?</p>
                    </div>
                </div>","0","main_experiment_trial","6","dinner_party_scheme","schematic_sequence","chronological","","","","","","",""
"","","","","","html-keyboard-response","71","277664","0.0-71.0","22562C21FF554B5B856E3FC2575DECB0","019cfc8c-0770-74d7-8283-01f03e652281","019cfc7b-6c7b-7b1b-afe7-acad8efc6711","","null","
                <div class=""stimulus-container"">
                    <img src=""images/schematic_sequence/dinner_party_scheme/dinner_party_scheme_7.png"" class=""exp-image"">
                    <div class=""question-area""></div> 
                </div>","null","","","","","","","","","","","",""
"","","","","","html-button-response","72","278332","0.0-72.0","22562C21FF554B5B856E3FC2575DECB0","019cfc8c-0770-74d7-8283-01f03e652281","019cfc7b-6c7b-7b1b-afe7-acad8efc6711","","667","
                <div class=""stimulus-container"">
                    <img src=""images/schematic_sequence/dinner_party_scheme/dinner_party_scheme_7.png"" class=""exp-image"">
                    <div class=""question-area"">
                        <p style=""font-size: 20px; font-weight: bold; margin: 0;"">Is there a person in this image?</p>
                    </div>
                </div>","0","main_experiment_trial","7","dinner_party_scheme","schematic_sequence","chronological","","","","","","",""
"","","","","","html-keyboard-response","73","283333","0.0-73.0","22562C21FF554B5B856E3FC2575DECB0","019cfc8c-0770-74d7-8283-01f03e652281","019cfc7b-6c7b-7b1b-afe7-acad8efc6711","","null","
                <div class=""stimulus-container"">
                    <img src=""images/schematic_sequence/dinner_party_scheme/dinner_party_scheme_8.png"" class=""exp-image"">
                    <div class=""question-area""></div> 
                </div>","null","","","","","","","","","","","",""
"","","","","","html-button-response","74","283980","0.0-74.0","22562C21FF554B5B856E3FC2575DECB0","019cfc8c-0770-74d7-8283-01f03e652281","019cfc7b-6c7b-7b1b-afe7-acad8efc6711","","646","
                <div class=""stimulus-container"">
                    <img src=""images/schematic_sequence/dinner_party_scheme/dinner_party_scheme_8.png"" class=""exp-image"">
                    <div class=""question-area"">
                        <p style=""font-size: 20px; font-weight: bold; margin: 0;"">Is there a person in this image?</p>
                    </div>
                </div>","0","main_experiment_trial","8","dinner_party_scheme","schematic_sequence","chronological","","","","","","",""
"","","","","","html-keyboard-response","75","288996","0.0-75.0","22562C21FF554B5B856E3FC2575DECB0","019cfc8c-0770-74d7-8283-01f03e652281","019cfc7b-6c7b-7b1b-afe7-acad8efc6711","","null","
                <div class=""stimulus-container"">
                    <img src=""images/schematic_sequence/dinner_party_scheme/dinner_party_scheme_9.png"" class=""exp-image"">
                    <div class=""question-area""></div> 
                </div>","null","","","","","","","","","","","",""
"","","","","","html-button-response","76","289754","0.0-76.0","22562C21FF554B5B856E3FC2575DECB0","019cfc8c-0770-74d7-8283-01f03e652281","019cfc7b-6c7b-7b1b-afe7-acad8efc6711","","756","
                <div class=""stimulus-container"">
                    <img src=""images/schematic_sequence/dinner_party_scheme/dinner_party_scheme_9.png"" class=""exp-image"">
                    <div class=""question-area"">
                        <p style=""font-size: 20px; font-weight: bold; margin: 0;"">Is there a person in this image?</p>
                    </div>
                </div>","0","main_experiment_trial","9","dinner_party_scheme","schematic_sequence","chronological","","","","","","",""
"","","","","","html-keyboard-response","77","294761","0.0-77.0","22562C21FF554B5B856E3FC2575DECB0","019cfc8c-0770-74d7-8283-01f03e652281","019cfc7b-6c7b-7b1b-afe7-acad8efc6711","","null","
                <div class=""stimulus-container"">
                    <img src=""images/schematic_sequence/dinner_party_scheme/dinner_party_scheme_ten.png"" class=""exp-image"">
                    <div class=""question-area""></div> 
                </div>","null","","","","","","","","","","","",""
"","","","","","html-button-response","78","295404","0.0-78.0","22562C21FF554B5B856E3FC2575DECB0","019cfc8c-0770-74d7-8283-01f03e652281","019cfc7b-6c7b-7b1b-afe7-acad8efc6711","","642","
                <div class=""stimulus-container"">
                    <img src=""images/schematic_sequence/dinner_party_scheme/dinner_party_scheme_ten.png"" class=""exp-image"">
                    <div class=""question-area"">
                        <p style=""font-size: 20px; font-weight: bold; margin: 0;"">Is there a person in this image?</p>
                    </div>
                </div>","0","main_experiment_trial","ten","dinner_party_scheme","schematic_sequence","chronological","","","","","","",""
"","","","","","html-keyboard-response","79","300406","0.0-79.0","22562C21FF554B5B856E3FC2575DECB0","019cfc8c-0770-74d7-8283-01f03e652281","019cfc7b-6c7b-7b1b-afe7-acad8efc6711","","null","<div style=""background-color: white; width: 100vw; height: 100vh;""></div>","null","","","","","","","","","","","",""
"","","","","","html-keyboard-response","80","305410","0.0-80.0","22562C21FF554B5B856E3FC2575DECB0","019cfc8c-0770-74d7-8283-01f03e652281","019cfc7b-6c7b-7b1b-afe7-acad8efc6711","","null","
                <div class=""stimulus-container"">
                    <img src=""images/causal_sequence/coin_causal/coin_causal_1.png"" class=""exp-image"">
                    <div class=""question-area""></div> 
                </div>","null","","","","","","","","","","","",""
"","","","","","html-button-response","81","306313","0.0-81.0","22562C21FF554B5B856E3FC2575DECB0","019cfc8c-0770-74d7-8283-01f03e652281","019cfc7b-6c7b-7b1b-afe7-acad8efc6711","","902","
                <div class=""stimulus-container"">
                    <img src=""images/causal_sequence/coin_causal/coin_causal_1.png"" class=""exp-image"">
                    <div class=""question-area"">
                        <p style=""font-size: 20px; font-weight: bold; margin: 0;"">Is there a person in this image?</p>
                    </div>
                </div>","0","main_experiment_trial","1","coin_causal","causal_sequence","chronological","","","","","","",""
"","","","","","html-keyboard-response","82","311325","0.0-82.0","22562C21FF554B5B856E3FC2575DECB0","019cfc8c-0770-74d7-8283-01f03e652281","019cfc7b-6c7b-7b1b-afe7-acad8efc6711","","null","
                <div class=""stimulus-container"">
                    <img src=""images/causal_sequence/coin_causal/coin_causal_2.png"" class=""exp-image"">
                    <div class=""question-area""></div> 
                </div>","null","","","","","","","","","","","",""
"","","","","","html-button-response","83","314177","0.0-83.0","22562C21FF554B5B856E3FC2575DECB0","019cfc8c-0770-74d7-8283-01f03e652281","019cfc7b-6c7b-7b1b-afe7-acad8efc6711","","2851","
                <div class=""stimulus-container"">
                    <img src=""images/causal_sequence/coin_causal/coin_causal_2.png"" class=""exp-image"">
                    <div class=""question-area"">
                        <p style=""font-size: 20px; font-weight: bold; margin: 0;"">Is there a person in this image?</p>
                    </div>
                </div>","0","main_experiment_trial","2","coin_causal","causal_sequence","chronological","","","","","","",""
"","","","","","html-keyboard-response","84","319193","0.0-84.0","22562C21FF554B5B856E3FC2575DECB0","019cfc8c-0770-74d7-8283-01f03e652281","019cfc7b-6c7b-7b1b-afe7-acad8efc6711","","null","
                <div class=""stimulus-container"">
                    <img src=""images/causal_sequence/coin_causal/coin_causal_3.png"" class=""exp-image"">
                    <div class=""question-area""></div> 
                </div>","null","","","","","","","","","","","",""
"","","","","","html-button-response","85","321850","0.0-85.0","22562C21FF554B5B856E3FC2575DECB0","019cfc8c-0770-74d7-8283-01f03e652281","019cfc7b-6c7b-7b1b-afe7-acad8efc6711","","2656","
                <div class=""stimulus-container"">
                    <img src=""images/causal_sequence/coin_causal/coin_causal_3.png"" class=""exp-image"">
                    <div class=""question-area"">
                        <p style=""font-size: 20px; font-weight: bold; margin: 0;"">Is there a person in this image?</p>
                    </div>
                </div>","0","main_experiment_trial","3","coin_causal","causal_sequence","chronological","","","","","","",""
"","","","","","html-keyboard-response","86","326856","0.0-86.0","22562C21FF554B5B856E3FC2575DECB0","019cfc8c-0770-74d7-8283-01f03e652281","019cfc7b-6c7b-7b1b-afe7-acad8efc6711","","null","
                <div class=""stimulus-container"">
                    <img src=""images/causal_sequence/coin_causal/coin_causal_4.png"" class=""exp-image"">
                    <div class=""question-area""></div> 
                </div>","null","","","","","","","","","","","",""
"","","","","","html-button-response","87","329376","0.0-87.0","22562C21FF554B5B856E3FC2575DECB0","019cfc8c-0770-74d7-8283-01f03e652281","019cfc7b-6c7b-7b1b-afe7-acad8efc6711","","2518","
                <div class=""stimulus-container"">
                    <img src=""images/causal_sequence/coin_causal/coin_causal_4.png"" class=""exp-image"">
                    <div class=""question-area"">
                        <p style=""font-size: 20px; font-weight: bold; margin: 0;"">Is there a person in this image?</p>
                    </div>
                </div>","0","main_experiment_trial","4","coin_causal","causal_sequence","chronological","","","","","","",""
"","","","","","html-keyboard-response","88","334382","0.0-88.0","22562C21FF554B5B856E3FC2575DECB0","019cfc8c-0770-74d7-8283-01f03e652281","019cfc7b-6c7b-7b1b-afe7-acad8efc6711","","null","
                <div class=""stimulus-container"">
                    <img src=""images/causal_sequence/coin_causal/coin_causal_5.png"" class=""exp-image"">
                    <div class=""question-area""></div> 
                </div>","null","","","","","","","","","","","",""
"","","","","","html-button-response","89","335820","0.0-89.0","22562C21FF554B5B856E3FC2575DECB0","019cfc8c-0770-74d7-8283-01f03e652281","019cfc7b-6c7b-7b1b-afe7-acad8efc6711","","1438","
                <div class=""stimulus-container"">
                    <img src=""images/causal_sequence/coin_causal/coin_causal_5.png"" class=""exp-image"">
                    <div class=""question-area"">
                        <p style=""font-size: 20px; font-weight: bold; margin: 0;"">Is there a person in this image?</p>
                    </div>
                </div>","0","main_experiment_trial","5","coin_causal","causal_sequence","chronological","","","","","","",""
"","","","","","html-keyboard-response","90","340822","0.0-90.0","22562C21FF554B5B856E3FC2575DECB0","019cfc8c-0770-74d7-8283-01f03e652281","019cfc7b-6c7b-7b1b-afe7-acad8efc6711","","null","
                <div class=""stimulus-container"">
                    <img src=""images/causal_sequence/coin_causal/coin_causal_6.png"" class=""exp-image"">
                    <div class=""question-area""></div> 
                </div>","null","","","","","","","","","","","",""
"","","","","","html-button-response","91","342657","0.0-91.0","22562C21FF554B5B856E3FC2575DECB0","019cfc8c-0770-74d7-8283-01f03e652281","019cfc7b-6c7b-7b1b-afe7-acad8efc6711","","1834","
                <div class=""stimulus-container"">
                    <img src=""images/causal_sequence/coin_causal/coin_causal_6.png"" class=""exp-image"">
                    <div class=""question-area"">
                        <p style=""font-size: 20px; font-weight: bold; margin: 0;"">Is there a person in this image?</p>
                    </div>
                </div>","0","main_experiment_trial","6","coin_causal","causal_sequence","chronological","","","","","","",""
"","","","","","html-keyboard-response","92","347661","0.0-92.0","22562C21FF554B5B856E3FC2575DECB0","019cfc8c-0770-74d7-8283-01f03e652281","019cfc7b-6c7b-7b1b-afe7-acad8efc6711","","null","
                <div class=""stimulus-container"">
                    <img src=""images/causal_sequence/coin_causal/coin_causal_7.png"" class=""exp-image"">
                    <div class=""question-area""></div> 
                </div>","null","","","","","","","","","","","",""
"","","","","","html-button-response","93","349059","0.0-93.0","22562C21FF554B5B856E3FC2575DECB0","019cfc8c-0770-74d7-8283-01f03e652281","019cfc7b-6c7b-7b1b-afe7-acad8efc6711","","1396","
                <div class=""stimulus-container"">
                    <img src=""images/causal_sequence/coin_causal/coin_causal_7.png"" class=""exp-image"">
                    <div class=""question-area"">
                        <p style=""font-size: 20px; font-weight: bold; margin: 0;"">Is there a person in this image?</p>
                    </div>
                </div>","1","main_experiment_trial","7","coin_causal","causal_sequence","chronological","","","","","","",""
"","","","","","html-keyboard-response","94","354063","0.0-94.0","22562C21FF554B5B856E3FC2575DECB0","019cfc8c-0770-74d7-8283-01f03e652281","019cfc7b-6c7b-7b1b-afe7-acad8efc6711","","null","
                <div class=""stimulus-container"">
                    <img src=""images/causal_sequence/coin_causal/coin_causal_8.png"" class=""exp-image"">
                    <div class=""question-area""></div> 
                </div>","null","","","","","","","","","","","",""
"","","","","","html-button-response","95","355580","0.0-95.0","22562C21FF554B5B856E3FC2575DECB0","019cfc8c-0770-74d7-8283-01f03e652281","019cfc7b-6c7b-7b1b-afe7-acad8efc6711","","1514","
                <div class=""stimulus-container"">
                    <img src=""images/causal_sequence/coin_causal/coin_causal_8.png"" class=""exp-image"">
                    <div class=""question-area"">
                        <p style=""font-size: 20px; font-weight: bold; margin: 0;"">Is there a person in this image?</p>
                    </div>
                </div>","0","main_experiment_trial","8","coin_causal","causal_sequence","chronological","","","","","","",""
"","","","","","html-keyboard-response","96","360587","0.0-96.0","22562C21FF554B5B856E3FC2575DECB0","019cfc8c-0770-74d7-8283-01f03e652281","019cfc7b-6c7b-7b1b-afe7-acad8efc6711","","null","
                <div class=""stimulus-container"">
                    <img src=""images/causal_sequence/coin_causal/coin_causal_9.png"" class=""exp-image"">
                    <div class=""question-area""></div> 
                </div>","null","","","","","","","","","","","",""
"","","","","","html-button-response","97","362456","0.0-97.0","22562C21FF554B5B856E3FC2575DECB0","019cfc8c-0770-74d7-8283-01f03e652281","019cfc7b-6c7b-7b1b-afe7-acad8efc6711","","1867","
                <div class=""stimulus-container"">
                    <img src=""images/causal_sequence/coin_causal/coin_causal_9.png"" class=""exp-image"">
                    <div class=""question-area"">
                        <p style=""font-size: 20px; font-weight: bold; margin: 0;"">Is there a person in this image?</p>
                    </div>
                </div>","0","main_experiment_trial","9","coin_causal","causal_sequence","chronological","","","","","","",""
"","","","","","html-keyboard-response","98","367466","0.0-98.0","22562C21FF554B5B856E3FC2575DECB0","019cfc8c-0770-74d7-8283-01f03e652281","019cfc7b-6c7b-7b1b-afe7-acad8efc6711","","null","
                <div class=""stimulus-container"">
                    <img src=""images/causal_sequence/coin_causal/coin_causal_ten.png"" class=""exp-image"">
                    <div class=""question-area""></div> 
                </div>","null","","","","","","","","","","","",""
"","","","","","html-button-response","99","368595","0.0-99.0","22562C21FF554B5B856E3FC2575DECB0","019cfc8c-0770-74d7-8283-01f03e652281","019cfc7b-6c7b-7b1b-afe7-acad8efc6711","","1127","
                <div class=""stimulus-container"">
                    <img src=""images/causal_sequence/coin_causal/coin_causal_ten.png"" class=""exp-image"">
                    <div class=""question-area"">
                        <p style=""font-size: 20px; font-weight: bold; margin: 0;"">Is there a person in this image?</p>
                    </div>
                </div>","0","main_experiment_trial","ten","coin_causal","causal_sequence","chronological","","","","","","",""
"","","","","","html-keyboard-response","100","373602","0.0-100.0","22562C21FF554B5B856E3FC2575DECB0","019cfc8c-0770-74d7-8283-01f03e652281","019cfc7b-6c7b-7b1b-afe7-acad8efc6711","","null","<div style=""background-color: white; width: 100vw; height: 100vh;""></div>","null","","","","","","","","","","","",""
"","","","","","html-keyboard-response","101","378606","0.0-101.0","22562C21FF554B5B856E3FC2575DECB0","019cfc8c-0770-74d7-8283-01f03e652281","019cfc7b-6c7b-7b1b-afe7-acad8efc6711","","null","
                <div class=""stimulus-container"">
                    <img src=""images/semantic_sequence/housework_semantic/housework_semantic_1.png"" class=""exp-image"">
                    <div class=""question-area""></div> 
                </div>","null","","","","","","","","","","","",""
"","","","","","html-button-response","102","379656","0.0-102.0","22562C21FF554B5B856E3FC2575DECB0","019cfc8c-0770-74d7-8283-01f03e652281","019cfc7b-6c7b-7b1b-afe7-acad8efc6711","","1048","
                <div class=""stimulus-container"">
                    <img src=""images/semantic_sequence/housework_semantic/housework_semantic_1.png"" class=""exp-image"">
                    <div class=""question-area"">
                        <p style=""font-size: 20px; font-weight: bold; margin: 0;"">Is there a person in this image?</p>
                    </div>
                </div>","1","main_experiment_trial","1","housework_semantic","semantic_sequence","chronological","","","","","","",""
"","","","","","html-keyboard-response","103","384659","0.0-103.0","22562C21FF554B5B856E3FC2575DECB0","019cfc8c-0770-74d7-8283-01f03e652281","019cfc7b-6c7b-7b1b-afe7-acad8efc6711","","null","
                <div class=""stimulus-container"">
                    <img src=""images/semantic_sequence/housework_semantic/housework_semantic_2.png"" class=""exp-image"">
                    <div class=""question-area""></div> 
                </div>","null","","","","","","","","","","","",""
"","","","","","html-button-response","104","385290","0.0-104.0","22562C21FF554B5B856E3FC2575DECB0","019cfc8c-0770-74d7-8283-01f03e652281","019cfc7b-6c7b-7b1b-afe7-acad8efc6711","","630","
                <div class=""stimulus-container"">
                    <img src=""images/semantic_sequence/housework_semantic/housework_semantic_2.png"" class=""exp-image"">
                    <div class=""question-area"">
                        <p style=""font-size: 20px; font-weight: bold; margin: 0;"">Is there a person in this image?</p>
                    </div>
                </div>","0","main_experiment_trial","2","housework_semantic","semantic_sequence","chronological","","","","","","",""
"","","","","","html-keyboard-response","105","390299","0.0-105.0","22562C21FF554B5B856E3FC2575DECB0","019cfc8c-0770-74d7-8283-01f03e652281","019cfc7b-6c7b-7b1b-afe7-acad8efc6711","","null","
                <div class=""stimulus-container"">
                    <img src=""images/semantic_sequence/housework_semantic/housework_semantic_3.png"" class=""exp-image"">
                    <div class=""question-area""></div> 
                </div>","null","","","","","","","","","","","",""
"","","","","","html-button-response","106","391477","0.0-106.0","22562C21FF554B5B856E3FC2575DECB0","019cfc8c-0770-74d7-8283-01f03e652281","019cfc7b-6c7b-7b1b-afe7-acad8efc6711","","1177","
                <div class=""stimulus-container"">
                    <img src=""images/semantic_sequence/housework_semantic/housework_semantic_3.png"" class=""exp-image"">
                    <div class=""question-area"">
                        <p style=""font-size: 20px; font-weight: bold; margin: 0;"">Is there a person in this image?</p>
                    </div>
                </div>","0","main_experiment_trial","3","housework_semantic","semantic_sequence","chronological","","","","","","",""
"","","","","","html-keyboard-response","107","396479","0.0-107.0","22562C21FF554B5B856E3FC2575DECB0","019cfc8c-0770-74d7-8283-01f03e652281","019cfc7b-6c7b-7b1b-afe7-acad8efc6711","","null","
                <div class=""stimulus-container"">
                    <img src=""images/semantic_sequence/housework_semantic/housework_semantic_4.png"" class=""exp-image"">
                    <div class=""question-area""></div> 
                </div>","null","","","","","","","","","","","",""
"","","","","","html-button-response","108","397339","0.0-108.0","22562C21FF554B5B856E3FC2575DECB0","019cfc8c-0770-74d7-8283-01f03e652281","019cfc7b-6c7b-7b1b-afe7-acad8efc6711","","859","
                <div class=""stimulus-container"">
                    <img src=""images/semantic_sequence/housework_semantic/housework_semantic_4.png"" class=""exp-image"">
                    <div class=""question-area"">
                        <p style=""font-size: 20px; font-weight: bold; margin: 0;"">Is there a person in this image?</p>
                    </div>
                </div>","0","main_experiment_trial","4","housework_semantic","semantic_sequence","chronological","","","","","","",""
"","","","","","html-keyboard-response","109","402354","0.0-109.0","22562C21FF554B5B856E3FC2575DECB0","019cfc8c-0770-74d7-8283-01f03e652281","019cfc7b-6c7b-7b1b-afe7-acad8efc6711","","null","
                <div class=""stimulus-container"">
                    <img src=""images/semantic_sequence/housework_semantic/housework_semantic_5.png"" class=""exp-image"">
                    <div class=""question-area""></div> 
                </div>","null","","","","","","","","","","","",""
"","","","","","html-button-response","110","403700","0.0-110.0","22562C21FF554B5B856E3FC2575DECB0","019cfc8c-0770-74d7-8283-01f03e652281","019cfc7b-6c7b-7b1b-afe7-acad8efc6711","","1345","
                <div class=""stimulus-container"">
                    <img src=""images/semantic_sequence/housework_semantic/housework_semantic_5.png"" class=""exp-image"">
                    <div class=""question-area"">
                        <p style=""font-size: 20px; font-weight: bold; margin: 0;"">Is there a person in this image?</p>
                    </div>
                </div>","0","main_experiment_trial","5","housework_semantic","semantic_sequence","chronological","","","","","","",""
"","","","","","html-keyboard-response","111","408707","0.0-111.0","22562C21FF554B5B856E3FC2575DECB0","019cfc8c-0770-74d7-8283-01f03e652281","019cfc7b-6c7b-7b1b-afe7-acad8efc6711","","null","
                <div class=""stimulus-container"">
                    <img src=""images/semantic_sequence/housework_semantic/housework_semantic_6.png"" class=""exp-image"">
                    <div class=""question-area""></div> 
                </div>","null","","","","","","","","","","","",""
"","","","","","html-button-response","112","410354","0.0-112.0","22562C21FF554B5B856E3FC2575DECB0","019cfc8c-0770-74d7-8283-01f03e652281","019cfc7b-6c7b-7b1b-afe7-acad8efc6711","","1645","
                <div class=""stimulus-container"">
                    <img src=""images/semantic_sequence/housework_semantic/housework_semantic_6.png"" class=""exp-image"">
                    <div class=""question-area"">
                        <p style=""font-size: 20px; font-weight: bold; margin: 0;"">Is there a person in this image?</p>
                    </div>
                </div>","0","main_experiment_trial","6","housework_semantic","semantic_sequence","chronological","","","","","","",""
"","","","","","html-keyboard-response","113","415366","0.0-113.0","22562C21FF554B5B856E3FC2575DECB0","019cfc8c-0770-74d7-8283-01f03e652281","019cfc7b-6c7b-7b1b-afe7-acad8efc6711","","null","
                <div class=""stimulus-container"">
                    <img src=""images/semantic_sequence/housework_semantic/housework_semantic_7.png"" class=""exp-image"">
                    <div class=""question-area""></div> 
                </div>","null","","","","","","","","","","","",""
"","","","","","html-button-response","114","416409","0.0-114.0","22562C21FF554B5B856E3FC2575DECB0","019cfc8c-0770-74d7-8283-01f03e652281","019cfc7b-6c7b-7b1b-afe7-acad8efc6711","","1041","
                <div class=""stimulus-container"">
                    <img src=""images/semantic_sequence/housework_semantic/housework_semantic_7.png"" class=""exp-image"">
                    <div class=""question-area"">
                        <p style=""font-size: 20px; font-weight: bold; margin: 0;"">Is there a person in this image?</p>
                    </div>
                </div>","0","main_experiment_trial","7","housework_semantic","semantic_sequence","chronological","","","","","","",""
"","","","","","html-keyboard-response","115","421425","0.0-115.0","22562C21FF554B5B856E3FC2575DECB0","019cfc8c-0770-74d7-8283-01f03e652281","019cfc7b-6c7b-7b1b-afe7-acad8efc6711","","null","
                <div class=""stimulus-container"">
                    <img src=""images/semantic_sequence/housework_semantic/housework_semantic_8.png"" class=""exp-image"">
                    <div class=""question-area""></div> 
                </div>","null","","","","","","","","","","","",""
"","","","","","html-button-response","116","422096","0.0-116.0","22562C21FF554B5B856E3FC2575DECB0","019cfc8c-0770-74d7-8283-01f03e652281","019cfc7b-6c7b-7b1b-afe7-acad8efc6711","","670","
                <div class=""stimulus-container"">
                    <img src=""images/semantic_sequence/housework_semantic/housework_semantic_8.png"" class=""exp-image"">
                    <div class=""question-area"">
                        <p style=""font-size: 20px; font-weight: bold; margin: 0;"">Is there a person in this image?</p>
                    </div>
                </div>","0","main_experiment_trial","8","housework_semantic","semantic_sequence","chronological","","","","","","",""
"","","","","","html-keyboard-response","117","427109","0.0-117.0","22562C21FF554B5B856E3FC2575DECB0","019cfc8c-0770-74d7-8283-01f03e652281","019cfc7b-6c7b-7b1b-afe7-acad8efc6711","","null","
                <div class=""stimulus-container"">
                    <img src=""images/semantic_sequence/housework_semantic/housework_semantic_9.png"" class=""exp-image"">
                    <div class=""question-area""></div> 
                </div>","null","","","","","","","","","","","",""
"","","","","","html-button-response","118","427779","0.0-118.0","22562C21FF554B5B856E3FC2575DECB0","019cfc8c-0770-74d7-8283-01f03e652281","019cfc7b-6c7b-7b1b-afe7-acad8efc6711","","668","
                <div class=""stimulus-container"">
                    <img src=""images/semantic_sequence/housework_semantic/housework_semantic_9.png"" class=""exp-image"">
                    <div class=""question-area"">
                        <p style=""font-size: 20px; font-weight: bold; margin: 0;"">Is there a person in this image?</p>
                    </div>
                </div>","0","main_experiment_trial","9","housework_semantic","semantic_sequence","chronological","","","","","","",""
"","","","","","html-keyboard-response","119","432793","0.0-119.0","22562C21FF554B5B856E3FC2575DECB0","019cfc8c-0770-74d7-8283-01f03e652281","019cfc7b-6c7b-7b1b-afe7-acad8efc6711","","null","
                <div class=""stimulus-container"">
                    <img src=""images/semantic_sequence/housework_semantic/housework_semantic_ten.png"" class=""exp-image"">
                    <div class=""question-area""></div> 
                </div>","null","","","","","","","","","","","",""
"","","","","","html-button-response","120","433453","0.0-120.0","22562C21FF554B5B856E3FC2575DECB0","019cfc8c-0770-74d7-8283-01f03e652281","019cfc7b-6c7b-7b1b-afe7-acad8efc6711","","656","
                <div class=""stimulus-container"">
                    <img src=""images/semantic_sequence/housework_semantic/housework_semantic_ten.png"" class=""exp-image"">
                    <div class=""question-area"">
                        <p style=""font-size: 20px; font-weight: bold; margin: 0;"">Is there a person in this image?</p>
                    </div>
                </div>","0","main_experiment_trial","ten","housework_semantic","semantic_sequence","chronological","","","","","","",""
"","","","","","html-keyboard-response","121","438455","0.0-121.0","22562C21FF554B5B856E3FC2575DECB0","019cfc8c-0770-74d7-8283-01f03e652281","019cfc7b-6c7b-7b1b-afe7-acad8efc6711","","null","<div style=""background-color: white; width: 100vw; height: 100vh;""></div>","null","","","","","","","","","","","",""
"","","","","","html-keyboard-response","122","443461","0.0-122.0","22562C21FF554B5B856E3FC2575DECB0","019cfc8c-0770-74d7-8283-01f03e652281","019cfc7b-6c7b-7b1b-afe7-acad8efc6711","","null","
                <div class=""stimulus-container"">
                    <img src=""images/semantic_sequence/self_care_activities_semantic/self_care_activities_semantic_1.png"" class=""exp-image"">
                    <div class=""question-area""></div> 
                </div>","null","","","","","","","","","","","",""
"","","","","","html-button-response","123","444848","0.0-123.0","22562C21FF554B5B856E3FC2575DECB0","019cfc8c-0770-74d7-8283-01f03e652281","019cfc7b-6c7b-7b1b-afe7-acad8efc6711","","1385","
                <div class=""stimulus-container"">
                    <img src=""images/semantic_sequence/self_care_activities_semantic/self_care_activities_semantic_1.png"" class=""exp-image"">
                    <div class=""question-area"">
                        <p style=""font-size: 20px; font-weight: bold; margin: 0;"">Is there a person in this image?</p>
                    </div>
                </div>","0","main_experiment_trial","1","self_care_activities_semantic","semantic_sequence","chronological","","","","","","",""
"","","","","","html-keyboard-response","124","449856","0.0-124.0","22562C21FF554B5B856E3FC2575DECB0","019cfc8c-0770-74d7-8283-01f03e652281","019cfc7b-6c7b-7b1b-afe7-acad8efc6711","","null","
                <div class=""stimulus-container"">
                    <img src=""images/semantic_sequence/self_care_activities_semantic/self_care_activities_semantic_2.png"" class=""exp-image"">
                    <div class=""question-area""></div> 
                </div>","null","","","","","","","","","","","",""
"","","","","","html-button-response","125","450448","0.0-125.0","22562C21FF554B5B856E3FC2575DECB0","019cfc8c-0770-74d7-8283-01f03e652281","019cfc7b-6c7b-7b1b-afe7-acad8efc6711","","590","
                <div class=""stimulus-container"">
                    <img src=""images/semantic_sequence/self_care_activities_semantic/self_care_activities_semantic_2.png"" class=""exp-image"">
                    <div class=""question-area"">
                        <p style=""font-size: 20px; font-weight: bold; margin: 0;"">Is there a person in this image?</p>
                    </div>
                </div>","0","main_experiment_trial","2","self_care_activities_semantic","semantic_sequence","chronological","","","","","","",""
"","","","","","html-keyboard-response","126","455461","0.0-126.0","22562C21FF554B5B856E3FC2575DECB0","019cfc8c-0770-74d7-8283-01f03e652281","019cfc7b-6c7b-7b1b-afe7-acad8efc6711","","null","
                <div class=""stimulus-container"">
                    <img src=""images/semantic_sequence/self_care_activities_semantic/self_care_activities_semantic_3.png"" class=""exp-image"">
                    <div class=""question-area""></div> 
                </div>","null","","","","","","","","","","","",""
"","","","","","html-button-response","127","456220","0.0-127.0","22562C21FF554B5B856E3FC2575DECB0","019cfc8c-0770-74d7-8283-01f03e652281","019cfc7b-6c7b-7b1b-afe7-acad8efc6711","","758","
                <div class=""stimulus-container"">
                    <img src=""images/semantic_sequence/self_care_activities_semantic/self_care_activities_semantic_3.png"" class=""exp-image"">
                    <div class=""question-area"">
                        <p style=""font-size: 20px; font-weight: bold; margin: 0;"">Is there a person in this image?</p>
                    </div>
                </div>","0","main_experiment_trial","3","self_care_activities_semantic","semantic_sequence","chronological","","","","","","",""
"","","","","","html-keyboard-response","128","461221","0.0-128.0","22562C21FF554B5B856E3FC2575DECB0","019cfc8c-0770-74d7-8283-01f03e652281","019cfc7b-6c7b-7b1b-afe7-acad8efc6711","","null","
                <div class=""stimulus-container"">
                    <img src=""images/semantic_sequence/self_care_activities_semantic/self_care_activities_semantic_4.png"" class=""exp-image"">
                    <div class=""question-area""></div> 
                </div>","null","","","","","","","","","","","",""
"","","","","","html-button-response","129","461842","0.0-129.0","22562C21FF554B5B856E3FC2575DECB0","019cfc8c-0770-74d7-8283-01f03e652281","019cfc7b-6c7b-7b1b-afe7-acad8efc6711","","619","
                <div class=""stimulus-container"">
                    <img src=""images/semantic_sequence/self_care_activities_semantic/self_care_activities_semantic_4.png"" class=""exp-image"">
                    <div class=""question-area"">
                        <p style=""font-size: 20px; font-weight: bold; margin: 0;"">Is there a person in this image?</p>
                    </div>
                </div>","0","main_experiment_trial","4","self_care_activities_semantic","semantic_sequence","chronological","","","","","","",""
"","","","","","html-keyboard-response","130","466847","0.0-130.0","22562C21FF554B5B856E3FC2575DECB0","019cfc8c-0770-74d7-8283-01f03e652281","019cfc7b-6c7b-7b1b-afe7-acad8efc6711","","null","
                <div class=""stimulus-container"">
                    <img src=""images/semantic_sequence/self_care_activities_semantic/self_care_activities_semantic_5.png"" class=""exp-image"">
                    <div class=""question-area""></div> 
                </div>","null","","","","","","","","","","","",""
"","","","","","html-button-response","131","467460","0.0-131.0","22562C21FF554B5B856E3FC2575DECB0","019cfc8c-0770-74d7-8283-01f03e652281","019cfc7b-6c7b-7b1b-afe7-acad8efc6711","","611","
                <div class=""stimulus-container"">
                    <img src=""images/semantic_sequence/self_care_activities_semantic/self_care_activities_semantic_5.png"" class=""exp-image"">
                    <div class=""question-area"">
                        <p style=""font-size: 20px; font-weight: bold; margin: 0;"">Is there a person in this image?</p>
                    </div>
                </div>","0","main_experiment_trial","5","self_care_activities_semantic","semantic_sequence","chronological","","","","","","",""
"","","","","","html-keyboard-response","132","472470","0.0-132.0","22562C21FF554B5B856E3FC2575DECB0","019cfc8c-0770-74d7-8283-01f03e652281","019cfc7b-6c7b-7b1b-afe7-acad8efc6711","","null","
                <div class=""stimulus-container"">
                    <img src=""images/semantic_sequence/self_care_activities_semantic/self_care_activities_semantic_6.png"" class=""exp-image"">
                    <div class=""question-area""></div> 
                </div>","null","","","","","","","","","","","",""
"","","","","","html-button-response","133","474099","0.0-133.0","22562C21FF554B5B856E3FC2575DECB0","019cfc8c-0770-74d7-8283-01f03e652281","019cfc7b-6c7b-7b1b-afe7-acad8efc6711","","1629","
                <div class=""stimulus-container"">
                    <img src=""images/semantic_sequence/self_care_activities_semantic/self_care_activities_semantic_6.png"" class=""exp-image"">
                    <div class=""question-area"">
                        <p style=""font-size: 20px; font-weight: bold; margin: 0;"">Is there a person in this image?</p>
                    </div>
                </div>","1","main_experiment_trial","6","self_care_activities_semantic","semantic_sequence","chronological","","","","","","",""
"","","","","","html-keyboard-response","134","479106","0.0-134.0","22562C21FF554B5B856E3FC2575DECB0","019cfc8c-0770-74d7-8283-01f03e652281","019cfc7b-6c7b-7b1b-afe7-acad8efc6711","","null","
                <div class=""stimulus-container"">
                    <img src=""images/semantic_sequence/self_care_activities_semantic/self_care_activities_semantic_7.png"" class=""exp-image"">
                    <div class=""question-area""></div> 
                </div>","null","","","","","","","","","","","",""
"","","","","","html-button-response","135","480456","0.0-135.0","22562C21FF554B5B856E3FC2575DECB0","019cfc8c-0770-74d7-8283-01f03e652281","019cfc7b-6c7b-7b1b-afe7-acad8efc6711","","1348","
                <div class=""stimulus-container"">
                    <img src=""images/semantic_sequence/self_care_activities_semantic/self_care_activities_semantic_7.png"" class=""exp-image"">
                    <div class=""question-area"">
                        <p style=""font-size: 20px; font-weight: bold; margin: 0;"">Is there a person in this image?</p>
                    </div>
                </div>","0","main_experiment_trial","7","self_care_activities_semantic","semantic_sequence","chronological","","","","","","",""
"","","","","","html-keyboard-response","136","485472","0.0-136.0","22562C21FF554B5B856E3FC2575DECB0","019cfc8c-0770-74d7-8283-01f03e652281","019cfc7b-6c7b-7b1b-afe7-acad8efc6711","","null","
                <div class=""stimulus-container"">
                    <img src=""images/semantic_sequence/self_care_activities_semantic/self_care_activities_semantic_8.png"" class=""exp-image"">
                    <div class=""question-area""></div> 
                </div>","null","","","","","","","","","","","",""
"","","","","","html-button-response","137","486740","0.0-137.0","22562C21FF554B5B856E3FC2575DECB0","019cfc8c-0770-74d7-8283-01f03e652281","019cfc7b-6c7b-7b1b-afe7-acad8efc6711","","1267","
                <div class=""stimulus-container"">
                    <img src=""images/semantic_sequence/self_care_activities_semantic/self_care_activities_semantic_8.png"" class=""exp-image"">
                    <div class=""question-area"">
                        <p style=""font-size: 20px; font-weight: bold; margin: 0;"">Is there a person in this image?</p>
                    </div>
                </div>","0","main_experiment_trial","8","self_care_activities_semantic","semantic_sequence","chronological","","","","","","",""
"","","","","","html-keyboard-response","138","491746","0.0-138.0","22562C21FF554B5B856E3FC2575DECB0","019cfc8c-0770-74d7-8283-01f03e652281","019cfc7b-6c7b-7b1b-afe7-acad8efc6711","","null","
                <div class=""stimulus-container"">
                    <img src=""images/semantic_sequence/self_care_activities_semantic/self_care_activities_semantic_9.png"" class=""exp-image"">
                    <div class=""question-area""></div> 
                </div>","null","","","","","","","","","","","",""
"","","","","","html-button-response","139","492472","0.0-139.0","22562C21FF554B5B856E3FC2575DECB0","019cfc8c-0770-74d7-8283-01f03e652281","019cfc7b-6c7b-7b1b-afe7-acad8efc6711","","725","
                <div class=""stimulus-container"">
                    <img src=""images/semantic_sequence/self_care_activities_semantic/self_care_activities_semantic_9.png"" class=""exp-image"">
                    <div class=""question-area"">
                        <p style=""font-size: 20px; font-weight: bold; margin: 0;"">Is there a person in this image?</p>
                    </div>
                </div>","0","main_experiment_trial","9","self_care_activities_semantic","semantic_sequence","chronological","","","","","","",""
"","","","","","html-keyboard-response","140","497482","0.0-140.0","22562C21FF554B5B856E3FC2575DECB0","019cfc8c-0770-74d7-8283-01f03e652281","019cfc7b-6c7b-7b1b-afe7-acad8efc6711","","null","
                <div class=""stimulus-container"">
                    <img src=""images/semantic_sequence/self_care_activities_semantic/self_care_activities_semantic_ten.png"" class=""exp-image"">
                    <div class=""question-area""></div> 
                </div>","null","","","","","","","","","","","",""
"","","","","","html-button-response","141","498117","0.0-141.0","22562C21FF554B5B856E3FC2575DECB0","019cfc8c-0770-74d7-8283-01f03e652281","019cfc7b-6c7b-7b1b-afe7-acad8efc6711","","634","
                <div class=""stimulus-container"">
                    <img src=""images/semantic_sequence/self_care_activities_semantic/self_care_activities_semantic_ten.png"" class=""exp-image"">
                    <div class=""question-area"">
                        <p style=""font-size: 20px; font-weight: bold; margin: 0;"">Is there a person in this image?</p>
                    </div>
                </div>","0","main_experiment_trial","ten","self_care_activities_semantic","semantic_sequence","chronological","","","","","","",""
"","","","","","html-keyboard-response","142","503123","0.0-142.0","22562C21FF554B5B856E3FC2575DECB0","019cfc8c-0770-74d7-8283-01f03e652281","019cfc7b-6c7b-7b1b-afe7-acad8efc6711","","null","<div style=""background-color: white; width: 100vw; height: 100vh;""></div>","null","","","","","","","","","","","",""
"","","","","","html-keyboard-response","143","508130","0.0-143.0","22562C21FF554B5B856E3FC2575DECB0","019cfc8c-0770-74d7-8283-01f03e652281","019cfc7b-6c7b-7b1b-afe7-acad8efc6711","","null","
                <div class=""stimulus-container"">
                    <img src=""images/causal_sequence/saving_a_cat_causal/saving_a_cat_causal_1.png"" class=""exp-image"">
                    <div class=""question-area""></div> 
                </div>","null","","","","","","","","","","","",""
"","","","","","html-button-response","144","508822","0.0-144.0","22562C21FF554B5B856E3FC2575DECB0","019cfc8c-0770-74d7-8283-01f03e652281","019cfc7b-6c7b-7b1b-afe7-acad8efc6711","","690","
                <div class=""stimulus-container"">
                    <img src=""images/causal_sequence/saving_a_cat_causal/saving_a_cat_causal_1.png"" class=""exp-image"">
                    <div class=""question-area"">
                        <p style=""font-size: 20px; font-weight: bold; margin: 0;"">Is there a person in this image?</p>
                    </div>
                </div>","0","main_experiment_trial","1","saving_a_cat_causal","causal_sequence","chronological","","","","","","",""
"","","","","","html-keyboard-response","145","513834","0.0-145.0","22562C21FF554B5B856E3FC2575DECB0","019cfc8c-0770-74d7-8283-01f03e652281","019cfc7b-6c7b-7b1b-afe7-acad8efc6711","","null","
                <div class=""stimulus-container"">
                    <img src=""images/causal_sequence/saving_a_cat_causal/saving_a_cat_causal_2.png"" class=""exp-image"">
                    <div class=""question-area""></div> 
                </div>","null","","","","","","","","","","","",""
"","","","","","html-button-response","146","514642","0.0-146.0","22562C21FF554B5B856E3FC2575DECB0","019cfc8c-0770-74d7-8283-01f03e652281","019cfc7b-6c7b-7b1b-afe7-acad8efc6711","","807","
                <div class=""stimulus-container"">
                    <img src=""images/causal_sequence/saving_a_cat_causal/saving_a_cat_causal_2.png"" class=""exp-image"">
                    <div class=""question-area"">
                        <p style=""font-size: 20px; font-weight: bold; margin: 0;"">Is there a person in this image?</p>
                    </div>
                </div>","1","main_experiment_trial","2","saving_a_cat_causal","causal_sequence","chronological","","","","","","",""
"","","","","","html-keyboard-response","147","519648","0.0-147.0","22562C21FF554B5B856E3FC2575DECB0","019cfc8c-0770-74d7-8283-01f03e652281","019cfc7b-6c7b-7b1b-afe7-acad8efc6711","","null","
                <div class=""stimulus-container"">
                    <img src=""images/causal_sequence/saving_a_cat_causal/saving_a_cat_causal_3.png"" class=""exp-image"">
                    <div class=""question-area""></div> 
                </div>","null","","","","","","","","","","","",""
"","","","","","html-button-response","148","520626","0.0-148.0","22562C21FF554B5B856E3FC2575DECB0","019cfc8c-0770-74d7-8283-01f03e652281","019cfc7b-6c7b-7b1b-afe7-acad8efc6711","","977","
                <div class=""stimulus-container"">
                    <img src=""images/causal_sequence/saving_a_cat_causal/saving_a_cat_causal_3.png"" class=""exp-image"">
                    <div class=""question-area"">
                        <p style=""font-size: 20px; font-weight: bold; margin: 0;"">Is there a person in this image?</p>
                    </div>
                </div>","1","main_experiment_trial","3","saving_a_cat_causal","causal_sequence","chronological","","","","","","",""
"","","","","","html-keyboard-response","149","525641","0.0-149.0","22562C21FF554B5B856E3FC2575DECB0","019cfc8c-0770-74d7-8283-01f03e652281","019cfc7b-6c7b-7b1b-afe7-acad8efc6711","","null","
                <div class=""stimulus-container"">
                    <img src=""images/causal_sequence/saving_a_cat_causal/saving_a_cat_causal_4.png"" class=""exp-image"">
                    <div class=""question-area""></div> 
                </div>","null","","","","","","","","","","","",""
"","","","","","html-button-response","150","527831","0.0-150.0","22562C21FF554B5B856E3FC2575DECB0","019cfc8c-0770-74d7-8283-01f03e652281","019cfc7b-6c7b-7b1b-afe7-acad8efc6711","","2188","
                <div class=""stimulus-container"">
                    <img src=""images/causal_sequence/saving_a_cat_causal/saving_a_cat_causal_4.png"" class=""exp-image"">
                    <div class=""question-area"">
                        <p style=""font-size: 20px; font-weight: bold; margin: 0;"">Is there a person in this image?</p>
                    </div>
                </div>","0","main_experiment_trial","4","saving_a_cat_causal","causal_sequence","chronological","","","","","","",""
"","","","","","html-keyboard-response","151","532842","0.0-151.0","22562C21FF554B5B856E3FC2575DECB0","019cfc8c-0770-74d7-8283-01f03e652281","019cfc7b-6c7b-7b1b-afe7-acad8efc6711","","null","
                <div class=""stimulus-container"">
                    <img src=""images/causal_sequence/saving_a_cat_causal/saving_a_cat_causal_5.png"" class=""exp-image"">
                    <div class=""question-area""></div> 
                </div>","null","","","","","","","","","","","",""
"","","","","","html-button-response","152","533860","0.0-152.0","22562C21FF554B5B856E3FC2575DECB0","019cfc8c-0770-74d7-8283-01f03e652281","019cfc7b-6c7b-7b1b-afe7-acad8efc6711","","1016","
                <div class=""stimulus-container"">
                    <img src=""images/causal_sequence/saving_a_cat_causal/saving_a_cat_causal_5.png"" class=""exp-image"">
                    <div class=""question-area"">
                        <p style=""font-size: 20px; font-weight: bold; margin: 0;"">Is there a person in this image?</p>
                    </div>
                </div>","0","main_experiment_trial","5","saving_a_cat_causal","causal_sequence","chronological","","","","","","",""
"","","","","","html-keyboard-response","153","538878","0.0-153.0","22562C21FF554B5B856E3FC2575DECB0","019cfc8c-0770-74d7-8283-01f03e652281","019cfc7b-6c7b-7b1b-afe7-acad8efc6711","","null","
                <div class=""stimulus-container"">
                    <img src=""images/causal_sequence/saving_a_cat_causal/saving_a_cat_causal_6.png"" class=""exp-image"">
                    <div class=""question-area""></div> 
                </div>","null","","","","","","","","","","","",""
"","","","","","html-button-response","154","540375","0.0-154.0","22562C21FF554B5B856E3FC2575DECB0","019cfc8c-0770-74d7-8283-01f03e652281","019cfc7b-6c7b-7b1b-afe7-acad8efc6711","","1495","
                <div class=""stimulus-container"">
                    <img src=""images/causal_sequence/saving_a_cat_causal/saving_a_cat_causal_6.png"" class=""exp-image"">
                    <div class=""question-area"">
                        <p style=""font-size: 20px; font-weight: bold; margin: 0;"">Is there a person in this image?</p>
                    </div>
                </div>","0","main_experiment_trial","6","saving_a_cat_causal","causal_sequence","chronological","","","","","","",""
"","","","","","html-keyboard-response","155","545381","0.0-155.0","22562C21FF554B5B856E3FC2575DECB0","019cfc8c-0770-74d7-8283-01f03e652281","019cfc7b-6c7b-7b1b-afe7-acad8efc6711","","null","
                <div class=""stimulus-container"">
                    <img src=""images/causal_sequence/saving_a_cat_causal/saving_a_cat_causal_7.png"" class=""exp-image"">
                    <div class=""question-area""></div> 
                </div>","null","","","","","","","","","","","",""
"","","","","","html-button-response","156","547327","0.0-156.0","22562C21FF554B5B856E3FC2575DECB0","019cfc8c-0770-74d7-8283-01f03e652281","019cfc7b-6c7b-7b1b-afe7-acad8efc6711","","1945","
                <div class=""stimulus-container"">
                    <img src=""images/causal_sequence/saving_a_cat_causal/saving_a_cat_causal_7.png"" class=""exp-image"">
                    <div class=""question-area"">
                        <p style=""font-size: 20px; font-weight: bold; margin: 0;"">Is there a person in this image?</p>
                    </div>
                </div>","0","main_experiment_trial","7","saving_a_cat_causal","causal_sequence","chronological","","","","","","",""
"","","","","","html-keyboard-response","157","552343","0.0-157.0","22562C21FF554B5B856E3FC2575DECB0","019cfc8c-0770-74d7-8283-01f03e652281","019cfc7b-6c7b-7b1b-afe7-acad8efc6711","","null","
                <div class=""stimulus-container"">
                    <img src=""images/causal_sequence/saving_a_cat_causal/saving_a_cat_causal_8.png"" class=""exp-image"">
                    <div class=""question-area""></div> 
                </div>","null","","","","","","","","","","","",""
"","","","","","html-button-response","158","553402","0.0-158.0","22562C21FF554B5B856E3FC2575DECB0","019cfc8c-0770-74d7-8283-01f03e652281","019cfc7b-6c7b-7b1b-afe7-acad8efc6711","","1058","
                <div class=""stimulus-container"">
                    <img src=""images/causal_sequence/saving_a_cat_causal/saving_a_cat_causal_8.png"" class=""exp-image"">
                    <div class=""question-area"">
                        <p style=""font-size: 20px; font-weight: bold; margin: 0;"">Is there a person in this image?</p>
                    </div>
                </div>","0","main_experiment_trial","8","saving_a_cat_causal","causal_sequence","chronological","","","","","","",""
"","","","","","html-keyboard-response","159","558418","0.0-159.0","22562C21FF554B5B856E3FC2575DECB0","019cfc8c-0770-74d7-8283-01f03e652281","019cfc7b-6c7b-7b1b-afe7-acad8efc6711","","null","
                <div class=""stimulus-container"">
                    <img src=""images/causal_sequence/saving_a_cat_causal/saving_a_cat_causal_9.png"" class=""exp-image"">
                    <div class=""question-area""></div> 
                </div>","null","","","","","","","","","","","",""
"","","","","","html-button-response","160","560517","0.0-160.0","22562C21FF554B5B856E3FC2575DECB0","019cfc8c-0770-74d7-8283-01f03e652281","019cfc7b-6c7b-7b1b-afe7-acad8efc6711","","2098","
                <div class=""stimulus-container"">
                    <img src=""images/causal_sequence/saving_a_cat_causal/saving_a_cat_causal_9.png"" class=""exp-image"">
                    <div class=""question-area"">
                        <p style=""font-size: 20px; font-weight: bold; margin: 0;"">Is there a person in this image?</p>
                    </div>
                </div>","0","main_experiment_trial","9","saving_a_cat_causal","causal_sequence","chronological","","","","","","",""
"","","","","","html-keyboard-response","161","565528","0.0-161.0","22562C21FF554B5B856E3FC2575DECB0","019cfc8c-0770-74d7-8283-01f03e652281","019cfc7b-6c7b-7b1b-afe7-acad8efc6711","","null","
                <div class=""stimulus-container"">
                    <img src=""images/causal_sequence/saving_a_cat_causal/saving_a_cat_causal_ten.png"" class=""exp-image"">
                    <div class=""question-area""></div> 
                </div>","null","","","","","","","","","","","",""
"","","","","","html-button-response","162","566584","0.0-162.0","22562C21FF554B5B856E3FC2575DECB0","019cfc8c-0770-74d7-8283-01f03e652281","019cfc7b-6c7b-7b1b-afe7-acad8efc6711","","1055","
                <div class=""stimulus-container"">
                    <img src=""images/causal_sequence/saving_a_cat_causal/saving_a_cat_causal_ten.png"" class=""exp-image"">
                    <div class=""question-area"">
                        <p style=""font-size: 20px; font-weight: bold; margin: 0;"">Is there a person in this image?</p>
                    </div>
                </div>","0","main_experiment_trial","ten","saving_a_cat_causal","causal_sequence","chronological","","","","","","",""
"","","","","","html-keyboard-response","163","571597","0.0-163.0","22562C21FF554B5B856E3FC2575DECB0","019cfc8c-0770-74d7-8283-01f03e652281","019cfc7b-6c7b-7b1b-afe7-acad8efc6711","","null","<div style=""background-color: white; width: 100vw; height: 100vh;""></div>","null","","","","","","","","","","","",""
"","","","","","html-keyboard-response","164","576612","0.0-164.0","22562C21FF554B5B856E3FC2575DECB0","019cfc8c-0770-74d7-8283-01f03e652281","019cfc7b-6c7b-7b1b-afe7-acad8efc6711","","null","
                <div class=""stimulus-container"">
                    <img src=""images/semantic_sequence/maintaining_a_car_semantic/maintaining_a_car_semantic_1.png"" class=""exp-image"">
                    <div class=""question-area""></div> 
                </div>","null","","","","","","","","","","","",""
"","","","","","html-button-response","165","577951","0.0-165.0","22562C21FF554B5B856E3FC2575DECB0","019cfc8c-0770-74d7-8283-01f03e652281","019cfc7b-6c7b-7b1b-afe7-acad8efc6711","","1337","
                <div class=""stimulus-container"">
                    <img src=""images/semantic_sequence/maintaining_a_car_semantic/maintaining_a_car_semantic_1.png"" class=""exp-image"">
                    <div class=""question-area"">
                        <p style=""font-size: 20px; font-weight: bold; margin: 0;"">Is there a person in this image?</p>
                    </div>
                </div>","0","main_experiment_trial","1","maintaining_a_car_semantic","semantic_sequence","chronological","","","","","","",""
"","","","","","html-keyboard-response","166","582959","0.0-166.0","22562C21FF554B5B856E3FC2575DECB0","019cfc8c-0770-74d7-8283-01f03e652281","019cfc7b-6c7b-7b1b-afe7-acad8efc6711","","null","
                <div class=""stimulus-container"">
                    <img src=""images/semantic_sequence/maintaining_a_car_semantic/maintaining_a_car_semantic_2.png"" class=""exp-image"">
                    <div class=""question-area""></div> 
                </div>","null","","","","","","","","","","","",""
"","","","","","html-button-response","167","584154","0.0-167.0","22562C21FF554B5B856E3FC2575DECB0","019cfc8c-0770-74d7-8283-01f03e652281","019cfc7b-6c7b-7b1b-afe7-acad8efc6711","","1192","
                <div class=""stimulus-container"">
                    <img src=""images/semantic_sequence/maintaining_a_car_semantic/maintaining_a_car_semantic_2.png"" class=""exp-image"">
                    <div class=""question-area"">
                        <p style=""font-size: 20px; font-weight: bold; margin: 0;"">Is there a person in this image?</p>
                    </div>
                </div>","0","main_experiment_trial","2","maintaining_a_car_semantic","semantic_sequence","chronological","","","","","","",""
"","","","","","html-keyboard-response","168","589161","0.0-168.0","22562C21FF554B5B856E3FC2575DECB0","019cfc8c-0770-74d7-8283-01f03e652281","019cfc7b-6c7b-7b1b-afe7-acad8efc6711","","null","
                <div class=""stimulus-container"">
                    <img src=""images/semantic_sequence/maintaining_a_car_semantic/maintaining_a_car_semantic_3.png"" class=""exp-image"">
                    <div class=""question-area""></div> 
                </div>","null","","","","","","","","","","","",""
"","","","","","html-button-response","169","590429","0.0-169.0","22562C21FF554B5B856E3FC2575DECB0","019cfc8c-0770-74d7-8283-01f03e652281","019cfc7b-6c7b-7b1b-afe7-acad8efc6711","","1267","
                <div class=""stimulus-container"">
                    <img src=""images/semantic_sequence/maintaining_a_car_semantic/maintaining_a_car_semantic_3.png"" class=""exp-image"">
                    <div class=""question-area"">
                        <p style=""font-size: 20px; font-weight: bold; margin: 0;"">Is there a person in this image?</p>
                    </div>
                </div>","0","main_experiment_trial","3","maintaining_a_car_semantic","semantic_sequence","chronological","","","","","","",""
"","","","","","html-keyboard-response","170","595438","0.0-170.0","22562C21FF554B5B856E3FC2575DECB0","019cfc8c-0770-74d7-8283-01f03e652281","019cfc7b-6c7b-7b1b-afe7-acad8efc6711","","null","
                <div class=""stimulus-container"">
                    <img src=""images/semantic_sequence/maintaining_a_car_semantic/maintaining_a_car_semantic_4.png"" class=""exp-image"">
                    <div class=""question-area""></div> 
                </div>","null","","","","","","","","","","","",""
"","","","","","html-button-response","171","596528","0.0-171.0","22562C21FF554B5B856E3FC2575DECB0","019cfc8c-0770-74d7-8283-01f03e652281","019cfc7b-6c7b-7b1b-afe7-acad8efc6711","","1088","
                <div class=""stimulus-container"">
                    <img src=""images/semantic_sequence/maintaining_a_car_semantic/maintaining_a_car_semantic_4.png"" class=""exp-image"">
                    <div class=""question-area"">
                        <p style=""font-size: 20px; font-weight: bold; margin: 0;"">Is there a person in this image?</p>
                    </div>
                </div>","0","main_experiment_trial","4","maintaining_a_car_semantic","semantic_sequence","chronological","","","","","","",""
"","","","","","html-keyboard-response","172","601537","0.0-172.0","22562C21FF554B5B856E3FC2575DECB0","019cfc8c-0770-74d7-8283-01f03e652281","019cfc7b-6c7b-7b1b-afe7-acad8efc6711","","null","
                <div class=""stimulus-container"">
                    <img src=""images/semantic_sequence/maintaining_a_car_semantic/maintaining_a_car_semantic_5.png"" class=""exp-image"">
                    <div class=""question-area""></div> 
                </div>","null","","","","","","","","","","","",""
"","","","","","html-button-response","173","603498","0.0-173.0","22562C21FF554B5B856E3FC2575DECB0","019cfc8c-0770-74d7-8283-01f03e652281","019cfc7b-6c7b-7b1b-afe7-acad8efc6711","","1956","
                <div class=""stimulus-container"">
                    <img src=""images/semantic_sequence/maintaining_a_car_semantic/maintaining_a_car_semantic_5.png"" class=""exp-image"">
                    <div class=""question-area"">
                        <p style=""font-size: 20px; font-weight: bold; margin: 0;"">Is there a person in this image?</p>
                    </div>
                </div>","0","main_experiment_trial","5","maintaining_a_car_semantic","semantic_sequence","chronological","","","","","","",""
"","","","","","html-keyboard-response","174","608500","0.0-174.0","22562C21FF554B5B856E3FC2575DECB0","019cfc8c-0770-74d7-8283-01f03e652281","019cfc7b-6c7b-7b1b-afe7-acad8efc6711","","null","
                <div class=""stimulus-container"">
                    <img src=""images/semantic_sequence/maintaining_a_car_semantic/maintaining_a_car_semantic_6.png"" class=""exp-image"">
                    <div class=""question-area""></div> 
                </div>","null","","","","","","","","","","","",""
"","","","","","html-button-response","175","610140","0.0-175.0","22562C21FF554B5B856E3FC2575DECB0","019cfc8c-0770-74d7-8283-01f03e652281","019cfc7b-6c7b-7b1b-afe7-acad8efc6711","","1640","
                <div class=""stimulus-container"">
                    <img src=""images/semantic_sequence/maintaining_a_car_semantic/maintaining_a_car_semantic_6.png"" class=""exp-image"">
                    <div class=""question-area"">
                        <p style=""font-size: 20px; font-weight: bold; margin: 0;"">Is there a person in this image?</p>
                    </div>
