"success","timeout","failed_images","failed_audio","failed_video","trial_type","trial_index","time_elapsed","internal_node_id","subject_id","study_id","session_id","view_history","rt","stimulus","response","task","image_index","folder","sequence_type","presentation_order","valuable_image_index","reward_type","target_X","l_dist","r_dist","chosen_image_index","selected_after_X","correct_choice"
"true","false","[]","[]","[]","preload","0","37973","0.0-0.0","6519BE1F887E457E8F55DAF5746A82C9","019d6668-b5b7-7d62-bf1b-f5adef6c6cfc","019d6630-2071-75cb-8026-6699844a2719","","","","","","","","","","","","","","","","",""
"","","","","","instructions","1","52572","0.0-1.0","6519BE1F887E457E8F55DAF5746A82C9","019d6668-b5b7-7d62-bf1b-f5adef6c6cfc","019d6630-2071-75cb-8026-6699844a2719","[{""page_index"":0,""viewing_time"":14597}]","14597","","","","","","","","","","","","","","",""
"","","","","","instructions","2","81768","0.0-2.0","6519BE1F887E457E8F55DAF5746A82C9","019d6668-b5b7-7d62-bf1b-f5adef6c6cfc","019d6630-2071-75cb-8026-6699844a2719","[{""page_index"":0,""viewing_time"":29195}]","29195","","","","","","","","","","","","","","",""
"true","","","","","fullscreen","3","84651","0.0-3.0","6519BE1F887E457E8F55DAF5746A82C9","019d6668-b5b7-7d62-bf1b-f5adef6c6cfc","019d6630-2071-75cb-8026-6699844a2719","","1839","","","","","","","","","","","","","","",""
"","","","","","instructions","4","98887","0.0-4.0","6519BE1F887E457E8F55DAF5746A82C9","019d6668-b5b7-7d62-bf1b-f5adef6c6cfc","019d6630-2071-75cb-8026-6699844a2719","[{""page_index"":0,""viewing_time"":14232}]","14233","","","","","","","","","","","","","","",""
"","","","","","instructions","5","238826","0.0-5.0","6519BE1F887E457E8F55DAF5746A82C9","019d6668-b5b7-7d62-bf1b-f5adef6c6cfc","019d6630-2071-75cb-8026-6699844a2719","[{""page_index"":0,""viewing_time"":139933}]","139933","","","","","","","","","","","","","","",""
"","","","","","html-keyboard-response","6","242893","0.0-6.0","6519BE1F887E457E8F55DAF5746A82C9","019d6668-b5b7-7d62-bf1b-f5adef6c6cfc","019d6630-2071-75cb-8026-6699844a2719","","null","
                <div class=""stimulus-container"">
                    <img src=""images/instructions/movie_1.png"" class=""exp-image"">
                    <div class=""question-area""></div> 
                </div>","null","","","","","","","","","","","","",""
"","","","","","html-button-response","7","245898","0.0-7.0","6519BE1F887E457E8F55DAF5746A82C9","019d6668-b5b7-7d62-bf1b-f5adef6c6cfc","019d6630-2071-75cb-8026-6699844a2719","","null","
                <div class=""stimulus-container"">
                    <img src=""images/instructions/movie_1.png"" class=""exp-image"">
                    <div class=""question-area"">
                        <p style=""font-size: 20px; font-weight: bold; margin: 0;"">Was there a person in this image?</p>
                    </div>
                </div>","null","example_question","1","","","","","","","","","","",""
"","","","","","html-keyboard-response","8","250164","0.0-8.0","6519BE1F887E457E8F55DAF5746A82C9","019d6668-b5b7-7d62-bf1b-f5adef6c6cfc","019d6630-2071-75cb-8026-6699844a2719","","null","
                <div class=""stimulus-container"">
                    <img src=""images/instructions/movie_2.png"" class=""exp-image"">
                    <div class=""question-area""></div> 
                </div>","null","","","","","","","","","","","","",""
"","","","","","html-button-response","9","250867","0.0-9.0","6519BE1F887E457E8F55DAF5746A82C9","019d6668-b5b7-7d62-bf1b-f5adef6c6cfc","019d6630-2071-75cb-8026-6699844a2719","","700","
                <div class=""stimulus-container"">
                    <img src=""images/instructions/movie_2.png"" class=""exp-image"">
                    <div class=""question-area"">
                        <p style=""font-size: 20px; font-weight: bold; margin: 0;"">Was there a person in this image?</p>
                    </div>
                </div>","0","example_question","2","","","","","","","","","","",""
"","","","","","html-keyboard-response","10","254871","0.0-10.0","6519BE1F887E457E8F55DAF5746A82C9","019d6668-b5b7-7d62-bf1b-f5adef6c6cfc","019d6630-2071-75cb-8026-6699844a2719","","null","
                <div class=""stimulus-container"">
                    <img src=""images/instructions/movie_3.png"" class=""exp-image"">
                    <div class=""question-area""></div> 
                </div>","null","","","","","","","","","","","","",""
"","","","","","html-button-response","11","256103","0.0-11.0","6519BE1F887E457E8F55DAF5746A82C9","019d6668-b5b7-7d62-bf1b-f5adef6c6cfc","019d6630-2071-75cb-8026-6699844a2719","","1231","
                <div class=""stimulus-container"">
                    <img src=""images/instructions/movie_3.png"" class=""exp-image"">
                    <div class=""question-area"">
                        <p style=""font-size: 20px; font-weight: bold; margin: 0;"">Was there a person in this image?</p>
                    </div>
                </div>","0","example_question","3","","","","","","","","","","",""
"","","","","","html-keyboard-response","12","260111","0.0-12.0","6519BE1F887E457E8F55DAF5746A82C9","019d6668-b5b7-7d62-bf1b-f5adef6c6cfc","019d6630-2071-75cb-8026-6699844a2719","","null","
                <div class=""stimulus-container"">
                    <img src=""images/instructions/movie_4.png"" class=""exp-image"">
                    <div class=""question-area""></div> 
                </div>","null","","","","","","","","","","","","",""
"","","","","","html-button-response","13","260911","0.0-13.0","6519BE1F887E457E8F55DAF5746A82C9","019d6668-b5b7-7d62-bf1b-f5adef6c6cfc","019d6630-2071-75cb-8026-6699844a2719","","799","
                <div class=""stimulus-container"">
                    <img src=""images/instructions/movie_4.png"" class=""exp-image"">
                    <div class=""question-area"">
                        <p style=""font-size: 20px; font-weight: bold; margin: 0;"">Was there a person in this image?</p>
                    </div>
                </div>","0","example_question","4","","","","","","","","","","",""
"","","","","","instructions","14","263124","0.0-14.0","6519BE1F887E457E8F55DAF5746A82C9","019d6668-b5b7-7d62-bf1b-f5adef6c6cfc","019d6630-2071-75cb-8026-6699844a2719","[{""page_index"":0,""viewing_time"":2211}]","2211","","","","","","","","","","","","","","",""
"","","","","","instructions","15","272261","0.0-15.0","6519BE1F887E457E8F55DAF5746A82C9","019d6668-b5b7-7d62-bf1b-f5adef6c6cfc","019d6630-2071-75cb-8026-6699844a2719","[{""page_index"":0,""viewing_time"":9136}]","9136","","","","","","","","","","","","","","",""
"","","","","","html-keyboard-response","16","277416","0.0-16.0","6519BE1F887E457E8F55DAF5746A82C9","019d6668-b5b7-7d62-bf1b-f5adef6c6cfc","019d6630-2071-75cb-8026-6699844a2719","","null","<div style=""background-color: white; width: 100vw; height: 100vh;""></div>","null","","","","","","","","","","","","",""
"","","","","","html-keyboard-response","17","282632","0.0-17.0","6519BE1F887E457E8F55DAF5746A82C9","019d6668-b5b7-7d62-bf1b-f5adef6c6cfc","019d6630-2071-75cb-8026-6699844a2719","","null","
                <div class=""stimulus-container"">
                    <img src=""images/schematic_sequence/hotel_scheme/hotel_scheme_1.png"" class=""exp-image"">
                    <div class=""question-area""></div> 
                </div>","null","","","","","","","","","","","","",""
"","","","","","html-button-response","18","284318","0.0-18.0","6519BE1F887E457E8F55DAF5746A82C9","019d6668-b5b7-7d62-bf1b-f5adef6c6cfc","019d6630-2071-75cb-8026-6699844a2719","","1684","
                <div class=""stimulus-container"">
                    <img src=""images/schematic_sequence/hotel_scheme/hotel_scheme_1.png"" class=""exp-image"">
                    <div class=""question-area"">
                        <p style=""font-size: 20px; font-weight: bold; margin: 0;"">Is there a person in this image?</p>
                    </div>
                </div>","1","main_experiment_trial","1","hotel_scheme","schematic_sequence","chronological","","","","","","","",""
"","","","","","html-keyboard-response","19","289332","0.0-19.0","6519BE1F887E457E8F55DAF5746A82C9","019d6668-b5b7-7d62-bf1b-f5adef6c6cfc","019d6630-2071-75cb-8026-6699844a2719","","null","
                <div class=""stimulus-container"">
                    <img src=""images/schematic_sequence/hotel_scheme/hotel_scheme_2.png"" class=""exp-image"">
                    <div class=""question-area""></div> 
                </div>","null","","","","","","","","","","","","",""
"","","","","","html-button-response","20","290198","0.0-20.0","6519BE1F887E457E8F55DAF5746A82C9","019d6668-b5b7-7d62-bf1b-f5adef6c6cfc","019d6630-2071-75cb-8026-6699844a2719","","864","
                <div class=""stimulus-container"">
                    <img src=""images/schematic_sequence/hotel_scheme/hotel_scheme_2.png"" class=""exp-image"">
                    <div class=""question-area"">
                        <p style=""font-size: 20px; font-weight: bold; margin: 0;"">Is there a person in this image?</p>
                    </div>
                </div>","0","main_experiment_trial","2","hotel_scheme","schematic_sequence","chronological","","","","","","","",""
"","","","","","html-keyboard-response","21","295209","0.0-21.0","6519BE1F887E457E8F55DAF5746A82C9","019d6668-b5b7-7d62-bf1b-f5adef6c6cfc","019d6630-2071-75cb-8026-6699844a2719","","null","
                <div class=""stimulus-container"">
                    <img src=""images/schematic_sequence/hotel_scheme/hotel_scheme_3.png"" class=""exp-image"">
                    <div class=""question-area""></div> 
                </div>","null","","","","","","","","","","","","",""
"","","","","","html-button-response","22","296065","0.0-22.0","6519BE1F887E457E8F55DAF5746A82C9","019d6668-b5b7-7d62-bf1b-f5adef6c6cfc","019d6630-2071-75cb-8026-6699844a2719","","854","
                <div class=""stimulus-container"">
                    <img src=""images/schematic_sequence/hotel_scheme/hotel_scheme_3.png"" class=""exp-image"">
                    <div class=""question-area"">
                        <p style=""font-size: 20px; font-weight: bold; margin: 0;"">Is there a person in this image?</p>
                    </div>
                </div>","0","main_experiment_trial","3","hotel_scheme","schematic_sequence","chronological","","","","","","","",""
"","","","","","html-keyboard-response","23","301082","0.0-23.0","6519BE1F887E457E8F55DAF5746A82C9","019d6668-b5b7-7d62-bf1b-f5adef6c6cfc","019d6630-2071-75cb-8026-6699844a2719","","null","
                <div class=""stimulus-container"">
                    <img src=""images/schematic_sequence/hotel_scheme/hotel_scheme_4.png"" class=""exp-image"">
                    <div class=""question-area""></div> 
                </div>","null","","","","","","","","","","","","",""
"","","","","","html-button-response","24","301666","0.0-24.0","6519BE1F887E457E8F55DAF5746A82C9","019d6668-b5b7-7d62-bf1b-f5adef6c6cfc","019d6630-2071-75cb-8026-6699844a2719","","584","
                <div class=""stimulus-container"">
                    <img src=""images/schematic_sequence/hotel_scheme/hotel_scheme_4.png"" class=""exp-image"">
                    <div class=""question-area"">
                        <p style=""font-size: 20px; font-weight: bold; margin: 0;"">Is there a person in this image?</p>
                    </div>
                </div>","1","main_experiment_trial","4","hotel_scheme","schematic_sequence","chronological","","","","","","","",""
"","","","","","html-keyboard-response","25","306676","0.0-25.0","6519BE1F887E457E8F55DAF5746A82C9","019d6668-b5b7-7d62-bf1b-f5adef6c6cfc","019d6630-2071-75cb-8026-6699844a2719","","null","
                <div class=""stimulus-container"">
                    <img src=""images/schematic_sequence/hotel_scheme/hotel_scheme_5.png"" class=""exp-image"">
                    <div class=""question-area""></div> 
                </div>","null","","","","","","","","","","","","",""
"","","","","","html-button-response","26","308570","0.0-26.0","6519BE1F887E457E8F55DAF5746A82C9","019d6668-b5b7-7d62-bf1b-f5adef6c6cfc","019d6630-2071-75cb-8026-6699844a2719","","1893","
                <div class=""stimulus-container"">
                    <img src=""images/schematic_sequence/hotel_scheme/hotel_scheme_5.png"" class=""exp-image"">
                    <div class=""question-area"">
                        <p style=""font-size: 20px; font-weight: bold; margin: 0;"">Is there a person in this image?</p>
                    </div>
                </div>","0","main_experiment_trial","5","hotel_scheme","schematic_sequence","chronological","","","","","","","",""
"","","","","","html-keyboard-response","27","313582","0.0-27.0","6519BE1F887E457E8F55DAF5746A82C9","019d6668-b5b7-7d62-bf1b-f5adef6c6cfc","019d6630-2071-75cb-8026-6699844a2719","","null","
                <div class=""stimulus-container"">
                    <img src=""images/schematic_sequence/hotel_scheme/hotel_scheme_6.png"" class=""exp-image"">
                    <div class=""question-area""></div> 
                </div>","null","","","","","","","","","","","","",""
"","","","","","html-button-response","28","314170","0.0-28.0","6519BE1F887E457E8F55DAF5746A82C9","019d6668-b5b7-7d62-bf1b-f5adef6c6cfc","019d6630-2071-75cb-8026-6699844a2719","","587","
                <div class=""stimulus-container"">
                    <img src=""images/schematic_sequence/hotel_scheme/hotel_scheme_6.png"" class=""exp-image"">
                    <div class=""question-area"">
                        <p style=""font-size: 20px; font-weight: bold; margin: 0;"">Is there a person in this image?</p>
                    </div>
                </div>","0","main_experiment_trial","6","hotel_scheme","schematic_sequence","chronological","","","","","","","",""
"","","","","","html-keyboard-response","29","319178","0.0-29.0","6519BE1F887E457E8F55DAF5746A82C9","019d6668-b5b7-7d62-bf1b-f5adef6c6cfc","019d6630-2071-75cb-8026-6699844a2719","","null","
                <div class=""stimulus-container"">
                    <img src=""images/schematic_sequence/hotel_scheme/hotel_scheme_7.png"" class=""exp-image"">
                    <div class=""question-area""></div> 
                </div>","null","","","","","","","","","","","","",""
"","","","","","html-button-response","30","319988","0.0-30.0","6519BE1F887E457E8F55DAF5746A82C9","019d6668-b5b7-7d62-bf1b-f5adef6c6cfc","019d6630-2071-75cb-8026-6699844a2719","","808","
                <div class=""stimulus-container"">
                    <img src=""images/schematic_sequence/hotel_scheme/hotel_scheme_7.png"" class=""exp-image"">
                    <div class=""question-area"">
                        <p style=""font-size: 20px; font-weight: bold; margin: 0;"">Is there a person in this image?</p>
                    </div>
                </div>","0","main_experiment_trial","7","hotel_scheme","schematic_sequence","chronological","","","","","","","",""
"","","","","","html-keyboard-response","31","324995","0.0-31.0","6519BE1F887E457E8F55DAF5746A82C9","019d6668-b5b7-7d62-bf1b-f5adef6c6cfc","019d6630-2071-75cb-8026-6699844a2719","","null","
                <div class=""stimulus-container"">
                    <img src=""images/schematic_sequence/hotel_scheme/hotel_scheme_8.png"" class=""exp-image"">
                    <div class=""question-area""></div> 
                </div>","null","","","","","","","","","","","","",""
"","","","","","html-button-response","32","325656","0.0-32.0","6519BE1F887E457E8F55DAF5746A82C9","019d6668-b5b7-7d62-bf1b-f5adef6c6cfc","019d6630-2071-75cb-8026-6699844a2719","","657","
                <div class=""stimulus-container"">
                    <img src=""images/schematic_sequence/hotel_scheme/hotel_scheme_8.png"" class=""exp-image"">
                    <div class=""question-area"">
                        <p style=""font-size: 20px; font-weight: bold; margin: 0;"">Is there a person in this image?</p>
                    </div>
                </div>","0","main_experiment_trial","8","hotel_scheme","schematic_sequence","chronological","","","","","","","",""
"","","","","","html-keyboard-response","33","330668","0.0-33.0","6519BE1F887E457E8F55DAF5746A82C9","019d6668-b5b7-7d62-bf1b-f5adef6c6cfc","019d6630-2071-75cb-8026-6699844a2719","","null","
                <div class=""stimulus-container"">
                    <img src=""images/schematic_sequence/hotel_scheme/hotel_scheme_9.png"" class=""exp-image"">
                    <div class=""question-area""></div> 
                </div>","null","","","","","","","","","","","","",""
"","","","","","html-button-response","34","331524","0.0-34.0","6519BE1F887E457E8F55DAF5746A82C9","019d6668-b5b7-7d62-bf1b-f5adef6c6cfc","019d6630-2071-75cb-8026-6699844a2719","","854","
                <div class=""stimulus-container"">
                    <img src=""images/schematic_sequence/hotel_scheme/hotel_scheme_9.png"" class=""exp-image"">
                    <div class=""question-area"">
                        <p style=""font-size: 20px; font-weight: bold; margin: 0;"">Is there a person in this image?</p>
                    </div>
                </div>","0","main_experiment_trial","9","hotel_scheme","schematic_sequence","chronological","","","","","","","",""
"","","","","","html-keyboard-response","35","336530","0.0-35.0","6519BE1F887E457E8F55DAF5746A82C9","019d6668-b5b7-7d62-bf1b-f5adef6c6cfc","019d6630-2071-75cb-8026-6699844a2719","","null","
                <div class=""stimulus-container"">
                    <img src=""images/schematic_sequence/hotel_scheme/hotel_scheme_ten.png"" class=""exp-image"">
                    <div class=""question-area""></div> 
                </div>","null","","","","","","","","","","","","",""
"","","","","","html-button-response","36","337296","0.0-36.0","6519BE1F887E457E8F55DAF5746A82C9","019d6668-b5b7-7d62-bf1b-f5adef6c6cfc","019d6630-2071-75cb-8026-6699844a2719","","762","
                <div class=""stimulus-container"">
                    <img src=""images/schematic_sequence/hotel_scheme/hotel_scheme_ten.png"" class=""exp-image"">
                    <div class=""question-area"">
                        <p style=""font-size: 20px; font-weight: bold; margin: 0;"">Is there a person in this image?</p>
                    </div>
                </div>","0","main_experiment_trial","ten","hotel_scheme","schematic_sequence","chronological","","","","","","","",""
"","","","","","html-keyboard-response","37","342313","0.0-37.0","6519BE1F887E457E8F55DAF5746A82C9","019d6668-b5b7-7d62-bf1b-f5adef6c6cfc","019d6630-2071-75cb-8026-6699844a2719","","null","<div style=""background-color: white; width: 100vw; height: 100vh;""></div>","null","","","","","","","","","","","","",""
"","","","","","html-keyboard-response","38","347317","0.0-38.0","6519BE1F887E457E8F55DAF5746A82C9","019d6668-b5b7-7d62-bf1b-f5adef6c6cfc","019d6630-2071-75cb-8026-6699844a2719","","null","
                <div class=""stimulus-container"">
                    <img src=""images/causal_sequence/museum_causal/museum_causal_1.png"" class=""exp-image"">
                    <div class=""question-area""></div> 
                </div>","null","","","","","","","","","","","","",""
"","","","","","html-button-response","39","348704","0.0-39.0","6519BE1F887E457E8F55DAF5746A82C9","019d6668-b5b7-7d62-bf1b-f5adef6c6cfc","019d6630-2071-75cb-8026-6699844a2719","","1385","
                <div class=""stimulus-container"">
                    <img src=""images/causal_sequence/museum_causal/museum_causal_1.png"" class=""exp-image"">
                    <div class=""question-area"">
                        <p style=""font-size: 20px; font-weight: bold; margin: 0;"">Is there a person in this image?</p>
                    </div>
                </div>","0","main_experiment_trial","1","museum_causal","causal_sequence","chronological","","","","","","","",""
"","","","","","html-keyboard-response","40","353716","0.0-40.0","6519BE1F887E457E8F55DAF5746A82C9","019d6668-b5b7-7d62-bf1b-f5adef6c6cfc","019d6630-2071-75cb-8026-6699844a2719","","null","
                <div class=""stimulus-container"">
                    <img src=""images/causal_sequence/museum_causal/museum_causal_2.png"" class=""exp-image"">
                    <div class=""question-area""></div> 
                </div>","null","","","","","","","","","","","","",""
"","","","","","html-button-response","41","354430","0.0-41.0","6519BE1F887E457E8F55DAF5746A82C9","019d6668-b5b7-7d62-bf1b-f5adef6c6cfc","019d6630-2071-75cb-8026-6699844a2719","","712","
                <div class=""stimulus-container"">
                    <img src=""images/causal_sequence/museum_causal/museum_causal_2.png"" class=""exp-image"">
                    <div class=""question-area"">
                        <p style=""font-size: 20px; font-weight: bold; margin: 0;"">Is there a person in this image?</p>
                    </div>
                </div>","0","main_experiment_trial","2","museum_causal","causal_sequence","chronological","","","","","","","",""
"","","","","","html-keyboard-response","42","359448","0.0-42.0","6519BE1F887E457E8F55DAF5746A82C9","019d6668-b5b7-7d62-bf1b-f5adef6c6cfc","019d6630-2071-75cb-8026-6699844a2719","","null","
                <div class=""stimulus-container"">
                    <img src=""images/causal_sequence/museum_causal/museum_causal_3.png"" class=""exp-image"">
                    <div class=""question-area""></div> 
                </div>","null","","","","","","","","","","","","",""
"","","","","","html-button-response","43","360118","0.0-43.0","6519BE1F887E457E8F55DAF5746A82C9","019d6668-b5b7-7d62-bf1b-f5adef6c6cfc","019d6630-2071-75cb-8026-6699844a2719","","670","
                <div class=""stimulus-container"">
                    <img src=""images/causal_sequence/museum_causal/museum_causal_3.png"" class=""exp-image"">
                    <div class=""question-area"">
                        <p style=""font-size: 20px; font-weight: bold; margin: 0;"">Is there a person in this image?</p>
                    </div>
                </div>","0","main_experiment_trial","3","museum_causal","causal_sequence","chronological","","","","","","","",""
"","","","","","html-keyboard-response","44","365124","0.0-44.0","6519BE1F887E457E8F55DAF5746A82C9","019d6668-b5b7-7d62-bf1b-f5adef6c6cfc","019d6630-2071-75cb-8026-6699844a2719","","null","
                <div class=""stimulus-container"">
                    <img src=""images/causal_sequence/museum_causal/museum_causal_4.png"" class=""exp-image"">
                    <div class=""question-area""></div> 
                </div>","null","","","","","","","","","","","","",""
"","","","","","html-button-response","45","366959","0.0-45.0","6519BE1F887E457E8F55DAF5746A82C9","019d6668-b5b7-7d62-bf1b-f5adef6c6cfc","019d6630-2071-75cb-8026-6699844a2719","","1834","
                <div class=""stimulus-container"">
                    <img src=""images/causal_sequence/museum_causal/museum_causal_4.png"" class=""exp-image"">
                    <div class=""question-area"">
                        <p style=""font-size: 20px; font-weight: bold; margin: 0;"">Is there a person in this image?</p>
                    </div>
                </div>","1","main_experiment_trial","4","museum_causal","causal_sequence","chronological","","","","","","","",""
"","","","","","html-keyboard-response","46","371971","0.0-46.0","6519BE1F887E457E8F55DAF5746A82C9","019d6668-b5b7-7d62-bf1b-f5adef6c6cfc","019d6630-2071-75cb-8026-6699844a2719","","null","
                <div class=""stimulus-container"">
                    <img src=""images/causal_sequence/museum_causal/museum_causal_5.png"" class=""exp-image"">
                    <div class=""question-area""></div> 
                </div>","null","","","","","","","","","","","","",""
"","","","","","html-button-response","47","373416","0.0-47.0","6519BE1F887E457E8F55DAF5746A82C9","019d6668-b5b7-7d62-bf1b-f5adef6c6cfc","019d6630-2071-75cb-8026-6699844a2719","","1444","
                <div class=""stimulus-container"">
                    <img src=""images/causal_sequence/museum_causal/museum_causal_5.png"" class=""exp-image"">
                    <div class=""question-area"">
                        <p style=""font-size: 20px; font-weight: bold; margin: 0;"">Is there a person in this image?</p>
                    </div>
                </div>","0","main_experiment_trial","5","museum_causal","causal_sequence","chronological","","","","","","","",""
"","","","","","html-keyboard-response","48","378428","0.0-48.0","6519BE1F887E457E8F55DAF5746A82C9","019d6668-b5b7-7d62-bf1b-f5adef6c6cfc","019d6630-2071-75cb-8026-6699844a2719","","null","
                <div class=""stimulus-container"">
                    <img src=""images/causal_sequence/museum_causal/museum_causal_6.png"" class=""exp-image"">
                    <div class=""question-area""></div> 
                </div>","null","","","","","","","","","","","","",""
"","","","","","html-button-response","49","379120","0.0-49.0","6519BE1F887E457E8F55DAF5746A82C9","019d6668-b5b7-7d62-bf1b-f5adef6c6cfc","019d6630-2071-75cb-8026-6699844a2719","","688","
                <div class=""stimulus-container"">
                    <img src=""images/causal_sequence/museum_causal/museum_causal_6.png"" class=""exp-image"">
                    <div class=""question-area"">
                        <p style=""font-size: 20px; font-weight: bold; margin: 0;"">Is there a person in this image?</p>
                    </div>
                </div>","0","main_experiment_trial","6","museum_causal","causal_sequence","chronological","","","","","","","",""
"","","","","","html-keyboard-response","50","384244","0.0-50.0","6519BE1F887E457E8F55DAF5746A82C9","019d6668-b5b7-7d62-bf1b-f5adef6c6cfc","019d6630-2071-75cb-8026-6699844a2719","","null","
                <div class=""stimulus-container"">
                    <img src=""images/causal_sequence/museum_causal/museum_causal_7.png"" class=""exp-image"">
                    <div class=""question-area""></div> 
                </div>","null","","","","","","","","","","","","",""
"","","","","","html-button-response","51","385708","0.0-51.0","6519BE1F887E457E8F55DAF5746A82C9","019d6668-b5b7-7d62-bf1b-f5adef6c6cfc","019d6630-2071-75cb-8026-6699844a2719","","1462","
                <div class=""stimulus-container"">
                    <img src=""images/causal_sequence/museum_causal/museum_causal_7.png"" class=""exp-image"">
                    <div class=""question-area"">
                        <p style=""font-size: 20px; font-weight: bold; margin: 0;"">Is there a person in this image?</p>
                    </div>
                </div>","1","main_experiment_trial","7","museum_causal","causal_sequence","chronological","","","","","","","",""
"","","","","","html-keyboard-response","52","391243","0.0-52.0","6519BE1F887E457E8F55DAF5746A82C9","019d6668-b5b7-7d62-bf1b-f5adef6c6cfc","019d6630-2071-75cb-8026-6699844a2719","","null","
                <div class=""stimulus-container"">
                    <img src=""images/causal_sequence/museum_causal/museum_causal_8.png"" class=""exp-image"">
                    <div class=""question-area""></div> 
                </div>","null","","","","","","","","","","","","",""
"","","","","","html-button-response","53","393755","0.0-53.0","6519BE1F887E457E8F55DAF5746A82C9","019d6668-b5b7-7d62-bf1b-f5adef6c6cfc","019d6630-2071-75cb-8026-6699844a2719","","2511","
                <div class=""stimulus-container"">
                    <img src=""images/causal_sequence/museum_causal/museum_causal_8.png"" class=""exp-image"">
                    <div class=""question-area"">
                        <p style=""font-size: 20px; font-weight: bold; margin: 0;"">Is there a person in this image?</p>
                    </div>
                </div>","0","main_experiment_trial","8","museum_causal","causal_sequence","chronological","","","","","","","",""
"","","","","","html-keyboard-response","54","398765","0.0-54.0","6519BE1F887E457E8F55DAF5746A82C9","019d6668-b5b7-7d62-bf1b-f5adef6c6cfc","019d6630-2071-75cb-8026-6699844a2719","","null","
                <div class=""stimulus-container"">
                    <img src=""images/causal_sequence/museum_causal/museum_causal_9.png"" class=""exp-image"">
                    <div class=""question-area""></div> 
                </div>","null","","","","","","","","","","","","",""
"","","","","","html-button-response","55","401083","0.0-55.0","6519BE1F887E457E8F55DAF5746A82C9","019d6668-b5b7-7d62-bf1b-f5adef6c6cfc","019d6630-2071-75cb-8026-6699844a2719","","2318","
                <div class=""stimulus-container"">
                    <img src=""images/causal_sequence/museum_causal/museum_causal_9.png"" class=""exp-image"">
                    <div class=""question-area"">
                        <p style=""font-size: 20px; font-weight: bold; margin: 0;"">Is there a person in this image?</p>
                    </div>
                </div>","1","main_experiment_trial","9","museum_causal","causal_sequence","chronological","","","","","","","",""
"","","","","","html-keyboard-response","56","406309","0.0-56.0","6519BE1F887E457E8F55DAF5746A82C9","019d6668-b5b7-7d62-bf1b-f5adef6c6cfc","019d6630-2071-75cb-8026-6699844a2719","","null","
                <div class=""stimulus-container"">
                    <img src=""images/causal_sequence/museum_causal/museum_causal_ten.png"" class=""exp-image"">
                    <div class=""question-area""></div> 
                </div>","null","","","","","","","","","","","","",""
"","","","","","html-button-response","57","408050","0.0-57.0","6519BE1F887E457E8F55DAF5746A82C9","019d6668-b5b7-7d62-bf1b-f5adef6c6cfc","019d6630-2071-75cb-8026-6699844a2719","","1739","
                <div class=""stimulus-container"">
                    <img src=""images/causal_sequence/museum_causal/museum_causal_ten.png"" class=""exp-image"">
                    <div class=""question-area"">
                        <p style=""font-size: 20px; font-weight: bold; margin: 0;"">Is there a person in this image?</p>
                    </div>
                </div>","0","main_experiment_trial","ten","museum_causal","causal_sequence","chronological","","","","","","","",""
"","","","","","html-keyboard-response","58","413053","0.0-58.0","6519BE1F887E457E8F55DAF5746A82C9","019d6668-b5b7-7d62-bf1b-f5adef6c6cfc","019d6630-2071-75cb-8026-6699844a2719","","null","<div style=""background-color: white; width: 100vw; height: 100vh;""></div>","null","","","","","","","","","","","","",""
"","","","","","html-keyboard-response","59","418062","0.0-59.0","6519BE1F887E457E8F55DAF5746A82C9","019d6668-b5b7-7d62-bf1b-f5adef6c6cfc","019d6630-2071-75cb-8026-6699844a2719","","null","
                <div class=""stimulus-container"">
                    <img src=""images/causal_sequence/coin_causal/coin_causal_1.png"" class=""exp-image"">
                    <div class=""question-area""></div> 
                </div>","null","","","","","","","","","","","","",""
"","","","","","html-button-response","60","419131","0.0-60.0","6519BE1F887E457E8F55DAF5746A82C9","019d6668-b5b7-7d62-bf1b-f5adef6c6cfc","019d6630-2071-75cb-8026-6699844a2719","","1068","
                <div class=""stimulus-container"">
                    <img src=""images/causal_sequence/coin_causal/coin_causal_1.png"" class=""exp-image"">
                    <div class=""question-area"">
                        <p style=""font-size: 20px; font-weight: bold; margin: 0;"">Is there a person in this image?</p>
                    </div>
                </div>","0","main_experiment_trial","1","coin_causal","causal_sequence","chronological","","","","","","","",""
"","","","","","html-keyboard-response","61","424139","0.0-61.0","6519BE1F887E457E8F55DAF5746A82C9","019d6668-b5b7-7d62-bf1b-f5adef6c6cfc","019d6630-2071-75cb-8026-6699844a2719","","null","
                <div class=""stimulus-container"">
                    <img src=""images/causal_sequence/coin_causal/coin_causal_2.png"" class=""exp-image"">
                    <div class=""question-area""></div> 
                </div>","null","","","","","","","","","","","","",""
"","","","","","html-button-response","62","424911","0.0-62.0","6519BE1F887E457E8F55DAF5746A82C9","019d6668-b5b7-7d62-bf1b-f5adef6c6cfc","019d6630-2071-75cb-8026-6699844a2719","","769","
                <div class=""stimulus-container"">
                    <img src=""images/causal_sequence/coin_causal/coin_causal_2.png"" class=""exp-image"">
                    <div class=""question-area"">
                        <p style=""font-size: 20px; font-weight: bold; margin: 0;"">Is there a person in this image?</p>
                    </div>
                </div>","0","main_experiment_trial","2","coin_causal","causal_sequence","chronological","","","","","","","",""
"","","","","","html-keyboard-response","63","429915","0.0-63.0","6519BE1F887E457E8F55DAF5746A82C9","019d6668-b5b7-7d62-bf1b-f5adef6c6cfc","019d6630-2071-75cb-8026-6699844a2719","","null","
                <div class=""stimulus-container"">
                    <img src=""images/causal_sequence/coin_causal/coin_causal_3.png"" class=""exp-image"">
                    <div class=""question-area""></div> 
                </div>","null","","","","","","","","","","","","",""
"","","","","","html-button-response","64","432278","0.0-64.0","6519BE1F887E457E8F55DAF5746A82C9","019d6668-b5b7-7d62-bf1b-f5adef6c6cfc","019d6630-2071-75cb-8026-6699844a2719","","2360","
                <div class=""stimulus-container"">
                    <img src=""images/causal_sequence/coin_causal/coin_causal_3.png"" class=""exp-image"">
                    <div class=""question-area"">
                        <p style=""font-size: 20px; font-weight: bold; margin: 0;"">Is there a person in this image?</p>
                    </div>
                </div>","0","main_experiment_trial","3","coin_causal","causal_sequence","chronological","","","","","","","",""
"","","","","","html-keyboard-response","65","437287","0.0-65.0","6519BE1F887E457E8F55DAF5746A82C9","019d6668-b5b7-7d62-bf1b-f5adef6c6cfc","019d6630-2071-75cb-8026-6699844a2719","","null","
                <div class=""stimulus-container"">
                    <img src=""images/causal_sequence/coin_causal/coin_causal_4.png"" class=""exp-image"">
                    <div class=""question-area""></div> 
                </div>","null","","","","","","","","","","","","",""
"","","","","","html-button-response","66","438224","0.0-66.0","6519BE1F887E457E8F55DAF5746A82C9","019d6668-b5b7-7d62-bf1b-f5adef6c6cfc","019d6630-2071-75cb-8026-6699844a2719","","936","
                <div class=""stimulus-container"">
                    <img src=""images/causal_sequence/coin_causal/coin_causal_4.png"" class=""exp-image"">
                    <div class=""question-area"">
                        <p style=""font-size: 20px; font-weight: bold; margin: 0;"">Is there a person in this image?</p>
                    </div>
                </div>","0","main_experiment_trial","4","coin_causal","causal_sequence","chronological","","","","","","","",""
"","","","","","html-keyboard-response","67","443226","0.0-67.0","6519BE1F887E457E8F55DAF5746A82C9","019d6668-b5b7-7d62-bf1b-f5adef6c6cfc","019d6630-2071-75cb-8026-6699844a2719","","null","
                <div class=""stimulus-container"">
                    <img src=""images/causal_sequence/coin_causal/coin_causal_5.png"" class=""exp-image"">
                    <div class=""question-area""></div> 
                </div>","null","","","","","","","","","","","","",""
"","","","","","html-button-response","68","444107","0.0-68.0","6519BE1F887E457E8F55DAF5746A82C9","019d6668-b5b7-7d62-bf1b-f5adef6c6cfc","019d6630-2071-75cb-8026-6699844a2719","","879","
                <div class=""stimulus-container"">
                    <img src=""images/causal_sequence/coin_causal/coin_causal_5.png"" class=""exp-image"">
                    <div class=""question-area"">
                        <p style=""font-size: 20px; font-weight: bold; margin: 0;"">Is there a person in this image?</p>
                    </div>
                </div>","0","main_experiment_trial","5","coin_causal","causal_sequence","chronological","","","","","","","",""
"","","","","","html-keyboard-response","69","449118","0.0-69.0","6519BE1F887E457E8F55DAF5746A82C9","019d6668-b5b7-7d62-bf1b-f5adef6c6cfc","019d6630-2071-75cb-8026-6699844a2719","","null","
                <div class=""stimulus-container"">
                    <img src=""images/causal_sequence/coin_causal/coin_causal_6.png"" class=""exp-image"">
                    <div class=""question-area""></div> 
                </div>","null","","","","","","","","","","","","",""
"","","","","","html-button-response","70","450519","0.0-70.0","6519BE1F887E457E8F55DAF5746A82C9","019d6668-b5b7-7d62-bf1b-f5adef6c6cfc","019d6630-2071-75cb-8026-6699844a2719","","1399","
                <div class=""stimulus-container"">
                    <img src=""images/causal_sequence/coin_causal/coin_causal_6.png"" class=""exp-image"">
                    <div class=""question-area"">
                        <p style=""font-size: 20px; font-weight: bold; margin: 0;"">Is there a person in this image?</p>
                    </div>
                </div>","0","main_experiment_trial","6","coin_causal","causal_sequence","chronological","","","","","","","",""
"","","","","","html-keyboard-response","71","455523","0.0-71.0","6519BE1F887E457E8F55DAF5746A82C9","019d6668-b5b7-7d62-bf1b-f5adef6c6cfc","019d6630-2071-75cb-8026-6699844a2719","","null","
                <div class=""stimulus-container"">
                    <img src=""images/causal_sequence/coin_causal/coin_causal_7.png"" class=""exp-image"">
                    <div class=""question-area""></div> 
                </div>","null","","","","","","","","","","","","",""
"","","","","","html-button-response","72","458145","0.0-72.0","6519BE1F887E457E8F55DAF5746A82C9","019d6668-b5b7-7d62-bf1b-f5adef6c6cfc","019d6630-2071-75cb-8026-6699844a2719","","2621","
                <div class=""stimulus-container"">
                    <img src=""images/causal_sequence/coin_causal/coin_causal_7.png"" class=""exp-image"">
                    <div class=""question-area"">
                        <p style=""font-size: 20px; font-weight: bold; margin: 0;"">Is there a person in this image?</p>
                    </div>
                </div>","1","main_experiment_trial","7","coin_causal","causal_sequence","chronological","","","","","","","",""
"","","","","","html-keyboard-response","73","463152","0.0-73.0","6519BE1F887E457E8F55DAF5746A82C9","019d6668-b5b7-7d62-bf1b-f5adef6c6cfc","019d6630-2071-75cb-8026-6699844a2719","","null","
                <div class=""stimulus-container"">
                    <img src=""images/causal_sequence/coin_causal/coin_causal_8.png"" class=""exp-image"">
                    <div class=""question-area""></div> 
                </div>","null","","","","","","","","","","","","",""
"","","","","","html-button-response","74","464829","0.0-74.0","6519BE1F887E457E8F55DAF5746A82C9","019d6668-b5b7-7d62-bf1b-f5adef6c6cfc","019d6630-2071-75cb-8026-6699844a2719","","1675","
                <div class=""stimulus-container"">
                    <img src=""images/causal_sequence/coin_causal/coin_causal_8.png"" class=""exp-image"">
                    <div class=""question-area"">
                        <p style=""font-size: 20px; font-weight: bold; margin: 0;"">Is there a person in this image?</p>
                    </div>
                </div>","0","main_experiment_trial","8","coin_causal","causal_sequence","chronological","","","","","","","",""
"","","","","","html-keyboard-response","75","469844","0.0-75.0","6519BE1F887E457E8F55DAF5746A82C9","019d6668-b5b7-7d62-bf1b-f5adef6c6cfc","019d6630-2071-75cb-8026-6699844a2719","","null","
                <div class=""stimulus-container"">
                    <img src=""images/causal_sequence/coin_causal/coin_causal_9.png"" class=""exp-image"">
                    <div class=""question-area""></div> 
                </div>","null","","","","","","","","","","","","",""
"","","","","","html-button-response","76","470560","0.0-76.0","6519BE1F887E457E8F55DAF5746A82C9","019d6668-b5b7-7d62-bf1b-f5adef6c6cfc","019d6630-2071-75cb-8026-6699844a2719","","715","
                <div class=""stimulus-container"">
                    <img src=""images/causal_sequence/coin_causal/coin_causal_9.png"" class=""exp-image"">
                    <div class=""question-area"">
                        <p style=""font-size: 20px; font-weight: bold; margin: 0;"">Is there a person in this image?</p>
                    </div>
                </div>","0","main_experiment_trial","9","coin_causal","causal_sequence","chronological","","","","","","","",""
"","","","","","html-keyboard-response","77","475566","0.0-77.0","6519BE1F887E457E8F55DAF5746A82C9","019d6668-b5b7-7d62-bf1b-f5adef6c6cfc","019d6630-2071-75cb-8026-6699844a2719","","null","
                <div class=""stimulus-container"">
                    <img src=""images/causal_sequence/coin_causal/coin_causal_ten.png"" class=""exp-image"">
                    <div class=""question-area""></div> 
                </div>","null","","","","","","","","","","","","",""
"","","","","","html-button-response","78","476450","0.0-78.0","6519BE1F887E457E8F55DAF5746A82C9","019d6668-b5b7-7d62-bf1b-f5adef6c6cfc","019d6630-2071-75cb-8026-6699844a2719","","882","
                <div class=""stimulus-container"">
                    <img src=""images/causal_sequence/coin_causal/coin_causal_ten.png"" class=""exp-image"">
                    <div class=""question-area"">
                        <p style=""font-size: 20px; font-weight: bold; margin: 0;"">Is there a person in this image?</p>
                    </div>
                </div>","0","main_experiment_trial","ten","coin_causal","causal_sequence","chronological","","","","","","","",""
"","","","","","html-keyboard-response","79","481493","0.0-79.0","6519BE1F887E457E8F55DAF5746A82C9","019d6668-b5b7-7d62-bf1b-f5adef6c6cfc","019d6630-2071-75cb-8026-6699844a2719","","null","<div style=""background-color: white; width: 100vw; height: 100vh;""></div>","null","","","","","","","","","","","","",""
"","","","","","html-keyboard-response","80","486505","0.0-80.0","6519BE1F887E457E8F55DAF5746A82C9","019d6668-b5b7-7d62-bf1b-f5adef6c6cfc","019d6630-2071-75cb-8026-6699844a2719","","null","
                <div class=""stimulus-container"">
                    <img src=""images/semantic_sequence/visiting_cities_semantic/visiting_cities_semantic_1.png"" class=""exp-image"">
                    <div class=""question-area""></div> 
                </div>","null","","","","","","","","","","","","",""
"","","","","","html-button-response","81","489350","0.0-81.0","6519BE1F887E457E8F55DAF5746A82C9","019d6668-b5b7-7d62-bf1b-f5adef6c6cfc","019d6630-2071-75cb-8026-6699844a2719","","2844","
                <div class=""stimulus-container"">
                    <img src=""images/semantic_sequence/visiting_cities_semantic/visiting_cities_semantic_1.png"" class=""exp-image"">
                    <div class=""question-area"">
                        <p style=""font-size: 20px; font-weight: bold; margin: 0;"">Is there a person in this image?</p>
                    </div>
                </div>","0","main_experiment_trial","1","visiting_cities_semantic","semantic_sequence","chronological","","","","","","","",""
"","","","","","html-keyboard-response","82","494697","0.0-82.0","6519BE1F887E457E8F55DAF5746A82C9","019d6668-b5b7-7d62-bf1b-f5adef6c6cfc","019d6630-2071-75cb-8026-6699844a2719","","null","
                <div class=""stimulus-container"">
                    <img src=""images/semantic_sequence/visiting_cities_semantic/visiting_cities_semantic_2.png"" class=""exp-image"">
                    <div class=""question-area""></div> 
                </div>","null","","","","","","","","","","","","",""
"","","","","","html-button-response","83","496006","0.0-83.0","6519BE1F887E457E8F55DAF5746A82C9","019d6668-b5b7-7d62-bf1b-f5adef6c6cfc","019d6630-2071-75cb-8026-6699844a2719","","1306","
                <div class=""stimulus-container"">
                    <img src=""images/semantic_sequence/visiting_cities_semantic/visiting_cities_semantic_2.png"" class=""exp-image"">
                    <div class=""question-area"">
                        <p style=""font-size: 20px; font-weight: bold; margin: 0;"">Is there a person in this image?</p>
                    </div>
                </div>","1","main_experiment_trial","2","visiting_cities_semantic","semantic_sequence","chronological","","","","","","","",""
"","","","","","html-keyboard-response","84","501010","0.0-84.0","6519BE1F887E457E8F55DAF5746A82C9","019d6668-b5b7-7d62-bf1b-f5adef6c6cfc","019d6630-2071-75cb-8026-6699844a2719","","null","
                <div class=""stimulus-container"">
                    <img src=""images/semantic_sequence/visiting_cities_semantic/visiting_cities_semantic_3.png"" class=""exp-image"">
                    <div class=""question-area""></div> 
                </div>","null","","","","","","","","","","","","",""
"","","","","","html-button-response","85","502249","0.0-85.0","6519BE1F887E457E8F55DAF5746A82C9","019d6668-b5b7-7d62-bf1b-f5adef6c6cfc","019d6630-2071-75cb-8026-6699844a2719","","1236","
                <div class=""stimulus-container"">
                    <img src=""images/semantic_sequence/visiting_cities_semantic/visiting_cities_semantic_3.png"" class=""exp-image"">
                    <div class=""question-area"">
                        <p style=""font-size: 20px; font-weight: bold; margin: 0;"">Is there a person in this image?</p>
                    </div>
                </div>","1","main_experiment_trial","3","visiting_cities_semantic","semantic_sequence","chronological","","","","","","","",""
"","","","","","html-keyboard-response","86","507261","0.0-86.0","6519BE1F887E457E8F55DAF5746A82C9","019d6668-b5b7-7d62-bf1b-f5adef6c6cfc","019d6630-2071-75cb-8026-6699844a2719","","null","
                <div class=""stimulus-container"">
                    <img src=""images/semantic_sequence/visiting_cities_semantic/visiting_cities_semantic_4.png"" class=""exp-image"">
                    <div class=""question-area""></div> 
                </div>","null","","","","","","","","","","","","",""
"","","","","","html-button-response","87","508201","0.0-87.0","6519BE1F887E457E8F55DAF5746A82C9","019d6668-b5b7-7d62-bf1b-f5adef6c6cfc","019d6630-2071-75cb-8026-6699844a2719","","937","
                <div class=""stimulus-container"">
                    <img src=""images/semantic_sequence/visiting_cities_semantic/visiting_cities_semantic_4.png"" class=""exp-image"">
                    <div class=""question-area"">
                        <p style=""font-size: 20px; font-weight: bold; margin: 0;"">Is there a person in this image?</p>
                    </div>
                </div>","1","main_experiment_trial","4","visiting_cities_semantic","semantic_sequence","chronological","","","","","","","",""
"","","","","","html-keyboard-response","88","513215","0.0-88.0","6519BE1F887E457E8F55DAF5746A82C9","019d6668-b5b7-7d62-bf1b-f5adef6c6cfc","019d6630-2071-75cb-8026-6699844a2719","","null","
                <div class=""stimulus-container"">
                    <img src=""images/semantic_sequence/visiting_cities_semantic/visiting_cities_semantic_5.png"" class=""exp-image"">
                    <div class=""question-area""></div> 
                </div>","null","","","","","","","","","","","","",""
"","","","","","html-button-response","89","514059","0.0-89.0","6519BE1F887E457E8F55DAF5746A82C9","019d6668-b5b7-7d62-bf1b-f5adef6c6cfc","019d6630-2071-75cb-8026-6699844a2719","","843","
                <div class=""stimulus-container"">
                    <img src=""images/semantic_sequence/visiting_cities_semantic/visiting_cities_semantic_5.png"" class=""exp-image"">
                    <div class=""question-area"">
                        <p style=""font-size: 20px; font-weight: bold; margin: 0;"">Is there a person in this image?</p>
                    </div>
                </div>","1","main_experiment_trial","5","visiting_cities_semantic","semantic_sequence","chronological","","","","","","","",""
"","","","","","html-keyboard-response","90","519267","0.0-90.0","6519BE1F887E457E8F55DAF5746A82C9","019d6668-b5b7-7d62-bf1b-f5adef6c6cfc","019d6630-2071-75cb-8026-6699844a2719","","null","
                <div class=""stimulus-container"">
                    <img src=""images/semantic_sequence/visiting_cities_semantic/visiting_cities_semantic_6.png"" class=""exp-image"">
                    <div class=""question-area""></div> 
                </div>","null","","","","","","","","","","","","",""
"","","","","","html-button-response","91","521461","0.0-91.0","6519BE1F887E457E8F55DAF5746A82C9","019d6668-b5b7-7d62-bf1b-f5adef6c6cfc","019d6630-2071-75cb-8026-6699844a2719","","2192","
                <div class=""stimulus-container"">
                    <img src=""images/semantic_sequence/visiting_cities_semantic/visiting_cities_semantic_6.png"" class=""exp-image"">
                    <div class=""question-area"">
                        <p style=""font-size: 20px; font-weight: bold; margin: 0;"">Is there a person in this image?</p>
                    </div>
                </div>","1","main_experiment_trial","6","visiting_cities_semantic","semantic_sequence","chronological","","","","","","","",""
"","","","","","html-keyboard-response","92","526479","0.0-92.0","6519BE1F887E457E8F55DAF5746A82C9","019d6668-b5b7-7d62-bf1b-f5adef6c6cfc","019d6630-2071-75cb-8026-6699844a2719","","null","
                <div class=""stimulus-container"">
                    <img src=""images/semantic_sequence/visiting_cities_semantic/visiting_cities_semantic_7.png"" class=""exp-image"">
                    <div class=""question-area""></div> 
                </div>","null","","","","","","","","","","","","",""
"","","","","","html-button-response","93","527681","0.0-93.0","6519BE1F887E457E8F55DAF5746A82C9","019d6668-b5b7-7d62-bf1b-f5adef6c6cfc","019d6630-2071-75cb-8026-6699844a2719","","1201","
                <div class=""stimulus-container"">
                    <img src=""images/semantic_sequence/visiting_cities_semantic/visiting_cities_semantic_7.png"" class=""exp-image"">
                    <div class=""question-area"">
                        <p style=""font-size: 20px; font-weight: bold; margin: 0;"">Is there a person in this image?</p>
                    </div>
                </div>","0","main_experiment_trial","7","visiting_cities_semantic","semantic_sequence","chronological","","","","","","","",""
"","","","","","html-keyboard-response","94","532690","0.0-94.0","6519BE1F887E457E8F55DAF5746A82C9","019d6668-b5b7-7d62-bf1b-f5adef6c6cfc","019d6630-2071-75cb-8026-6699844a2719","","null","
                <div class=""stimulus-container"">
                    <img src=""images/semantic_sequence/visiting_cities_semantic/visiting_cities_semantic_8.png"" class=""exp-image"">
                    <div class=""question-area""></div> 
                </div>","null","","","","","","","","","","","","",""
"","","","","","html-button-response","95","533374","0.0-95.0","6519BE1F887E457E8F55DAF5746A82C9","019d6668-b5b7-7d62-bf1b-f5adef6c6cfc","019d6630-2071-75cb-8026-6699844a2719","","682","
                <div class=""stimulus-container"">
                    <img src=""images/semantic_sequence/visiting_cities_semantic/visiting_cities_semantic_8.png"" class=""exp-image"">
                    <div class=""question-area"">
                        <p style=""font-size: 20px; font-weight: bold; margin: 0;"">Is there a person in this image?</p>
                    </div>
                </div>","0","main_experiment_trial","8","visiting_cities_semantic","semantic_sequence","chronological","","","","","","","",""
"","","","","","html-keyboard-response","96","538381","0.0-96.0","6519BE1F887E457E8F55DAF5746A82C9","019d6668-b5b7-7d62-bf1b-f5adef6c6cfc","019d6630-2071-75cb-8026-6699844a2719","","null","
                <div class=""stimulus-container"">
                    <img src=""images/semantic_sequence/visiting_cities_semantic/visiting_cities_semantic_9.png"" class=""exp-image"">
                    <div class=""question-area""></div> 
                </div>","null","","","","","","","","","","","","",""
"","","","","","html-button-response","97","539145","0.0-97.0","6519BE1F887E457E8F55DAF5746A82C9","019d6668-b5b7-7d62-bf1b-f5adef6c6cfc","019d6630-2071-75cb-8026-6699844a2719","","762","
                <div class=""stimulus-container"">
                    <img src=""images/semantic_sequence/visiting_cities_semantic/visiting_cities_semantic_9.png"" class=""exp-image"">
                    <div class=""question-area"">
                        <p style=""font-size: 20px; font-weight: bold; margin: 0;"">Is there a person in this image?</p>
                    </div>
                </div>","0","main_experiment_trial","9","visiting_cities_semantic","semantic_sequence","chronological","","","","","","","",""
"","","","","","html-keyboard-response","98","544723","0.0-98.0","6519BE1F887E457E8F55DAF5746A82C9","019d6668-b5b7-7d62-bf1b-f5adef6c6cfc","019d6630-2071-75cb-8026-6699844a2719","","null","
                <div class=""stimulus-container"">
                    <img src=""images/semantic_sequence/visiting_cities_semantic/visiting_cities_semantic_ten.png"" class=""exp-image"">
                    <div class=""question-area""></div> 
                </div>","null","","","","","","","","","","","","",""
"","","","","","html-button-response","99","545425","0.0-99.0","6519BE1F887E457E8F55DAF5746A82C9","019d6668-b5b7-7d62-bf1b-f5adef6c6cfc","019d6630-2071-75cb-8026-6699844a2719","","700","
                <div class=""stimulus-container"">
                    <img src=""images/semantic_sequence/visiting_cities_semantic/visiting_cities_semantic_ten.png"" class=""exp-image"">
                    <div class=""question-area"">
                        <p style=""font-size: 20px; font-weight: bold; margin: 0;"">Is there a person in this image?</p>
                    </div>
                </div>","0","main_experiment_trial","ten","visiting_cities_semantic","semantic_sequence","chronological","","","","","","","",""
"","","","","","html-keyboard-response","100","550437","0.0-100.0","6519BE1F887E457E8F55DAF5746A82C9","019d6668-b5b7-7d62-bf1b-f5adef6c6cfc","019d6630-2071-75cb-8026-6699844a2719","","null","<div style=""background-color: white; width: 100vw; height: 100vh;""></div>","null","","","","","","","","","","","","",""
"","","","","","html-keyboard-response","101","555446","0.0-101.0","6519BE1F887E457E8F55DAF5746A82C9","019d6668-b5b7-7d62-bf1b-f5adef6c6cfc","019d6630-2071-75cb-8026-6699844a2719","","null","
                <div class=""stimulus-container"">
                    <img src=""images/schematic_sequence/supermarket_scheme/supermarket_scheme_1.png"" class=""exp-image"">
                    <div class=""question-area""></div> 
                </div>","null","","","","","","","","","","","","",""
"","","","","","html-button-response","102","556723","0.0-102.0","6519BE1F887E457E8F55DAF5746A82C9","019d6668-b5b7-7d62-bf1b-f5adef6c6cfc","019d6630-2071-75cb-8026-6699844a2719","","1276","
                <div class=""stimulus-container"">
                    <img src=""images/schematic_sequence/supermarket_scheme/supermarket_scheme_1.png"" class=""exp-image"">
                    <div class=""question-area"">
                        <p style=""font-size: 20px; font-weight: bold; margin: 0;"">Is there a person in this image?</p>
                    </div>
                </div>","1","main_experiment_trial","1","supermarket_scheme","schematic_sequence","chronological","","","","","","","",""
"","","","","","html-keyboard-response","103","562013","0.0-103.0","6519BE1F887E457E8F55DAF5746A82C9","019d6668-b5b7-7d62-bf1b-f5adef6c6cfc","019d6630-2071-75cb-8026-6699844a2719","","null","
                <div class=""stimulus-container"">
                    <img src=""images/schematic_sequence/supermarket_scheme/supermarket_scheme_2.png"" class=""exp-image"">
                    <div class=""question-area""></div> 
                </div>","null","","","","","","","","","","","","",""
"","","","","","html-button-response","104","564798","0.0-104.0","6519BE1F887E457E8F55DAF5746A82C9","019d6668-b5b7-7d62-bf1b-f5adef6c6cfc","019d6630-2071-75cb-8026-6699844a2719","","2783","
                <div class=""stimulus-container"">
                    <img src=""images/schematic_sequence/supermarket_scheme/supermarket_scheme_2.png"" class=""exp-image"">
                    <div class=""question-area"">
                        <p style=""font-size: 20px; font-weight: bold; margin: 0;"">Is there a person in this image?</p>
                    </div>
                </div>","1","main_experiment_trial","2","supermarket_scheme","schematic_sequence","chronological","","","","","","","",""
"","","","","","html-keyboard-response","105","569807","0.0-105.0","6519BE1F887E457E8F55DAF5746A82C9","019d6668-b5b7-7d62-bf1b-f5adef6c6cfc","019d6630-2071-75cb-8026-6699844a2719","","null","
                <div class=""stimulus-container"">
                    <img src=""images/schematic_sequence/supermarket_scheme/supermarket_scheme_3.png"" class=""exp-image"">
                    <div class=""question-area""></div> 
                </div>","null","","","","","","","","","","","","",""
"","","","","","html-button-response","106","571684","0.0-106.0","6519BE1F887E457E8F55DAF5746A82C9","019d6668-b5b7-7d62-bf1b-f5adef6c6cfc","019d6630-2071-75cb-8026-6699844a2719","","1874","
                <div class=""stimulus-container"">
                    <img src=""images/schematic_sequence/supermarket_scheme/supermarket_scheme_3.png"" class=""exp-image"">
                    <div class=""question-area"">
                        <p style=""font-size: 20px; font-weight: bold; margin: 0;"">Is there a person in this image?</p>
                    </div>
                </div>","1","main_experiment_trial","3","supermarket_scheme","schematic_sequence","chronological","","","","","","","",""
"","","","","","html-keyboard-response","107","576685","0.0-107.0","6519BE1F887E457E8F55DAF5746A82C9","019d6668-b5b7-7d62-bf1b-f5adef6c6cfc","019d6630-2071-75cb-8026-6699844a2719","","null","
                <div class=""stimulus-container"">
                    <img src=""images/schematic_sequence/supermarket_scheme/supermarket_scheme_4.png"" class=""exp-image"">
                    <div class=""question-area""></div> 
                </div>","null","","","","","","","","","","","","",""
"","","","","","html-button-response","108","579747","0.0-108.0","6519BE1F887E457E8F55DAF5746A82C9","019d6668-b5b7-7d62-bf1b-f5adef6c6cfc","019d6630-2071-75cb-8026-6699844a2719","","null","
                <div class=""stimulus-container"">
                    <img src=""images/schematic_sequence/supermarket_scheme/supermarket_scheme_4.png"" class=""exp-image"">
                    <div class=""question-area"">
                        <p style=""font-size: 20px; font-weight: bold; margin: 0;"">Is there a person in this image?</p>
                    </div>
                </div>","null","main_experiment_trial","4","supermarket_scheme","schematic_sequence","chronological","","","","","","","",""
"","","","","","html-keyboard-response","109","584783","0.0-109.0","6519BE1F887E457E8F55DAF5746A82C9","019d6668-b5b7-7d62-bf1b-f5adef6c6cfc","019d6630-2071-75cb-8026-6699844a2719","","null","
                <div class=""stimulus-container"">
                    <img src=""images/schematic_sequence/supermarket_scheme/supermarket_scheme_5.png"" class=""exp-image"">
                    <div class=""question-area""></div> 
                </div>","null","","","","","","","","","","","","",""
"","","","","","html-button-response","110","585771","0.0-110.0","6519BE1F887E457E8F55DAF5746A82C9","019d6668-b5b7-7d62-bf1b-f5adef6c6cfc","019d6630-2071-75cb-8026-6699844a2719","","989","
                <div class=""stimulus-container"">
                    <img src=""images/schematic_sequence/supermarket_scheme/supermarket_scheme_5.png"" class=""exp-image"">
                    <div class=""question-area"">
                        <p style=""font-size: 20px; font-weight: bold; margin: 0;"">Is there a person in this image?</p>
                    </div>
                </div>","1","main_experiment_trial","5","supermarket_scheme","schematic_sequence","chronological","","","","","","","",""
"","","","","","html-keyboard-response","111","590985","0.0-111.0","6519BE1F887E457E8F55DAF5746A82C9","019d6668-b5b7-7d62-bf1b-f5adef6c6cfc","019d6630-2071-75cb-8026-6699844a2719","","null","
                <div class=""stimulus-container"">
                    <img src=""images/schematic_sequence/supermarket_scheme/supermarket_scheme_6.png"" class=""exp-image"">
                    <div class=""question-area""></div> 
                </div>","null","","","","","","","","","","","","",""
"","","","","","html-button-response","112","592560","0.0-112.0","6519BE1F887E457E8F55DAF5746A82C9","019d6668-b5b7-7d62-bf1b-f5adef6c6cfc","019d6630-2071-75cb-8026-6699844a2719","","1575","
                <div class=""stimulus-container"">
                    <img src=""images/schematic_sequence/supermarket_scheme/supermarket_scheme_6.png"" class=""exp-image"">
                    <div class=""question-area"">
                        <p style=""font-size: 20px; font-weight: bold; margin: 0;"">Is there a person in this image?</p>
                    </div>
                </div>","0","main_experiment_trial","6","supermarket_scheme","schematic_sequence","chronological","","","","","","","",""
"","","","","","html-keyboard-response","113","597563","0.0-113.0","6519BE1F887E457E8F55DAF5746A82C9","019d6668-b5b7-7d62-bf1b-f5adef6c6cfc","019d6630-2071-75cb-8026-6699844a2719","","null","
                <div class=""stimulus-container"">
                    <img src=""images/schematic_sequence/supermarket_scheme/supermarket_scheme_7.png"" class=""exp-image"">
                    <div class=""question-area""></div> 
                </div>","null","","","","","","","","","","","","",""
"","","","","","html-button-response","114","598539","0.0-114.0","6519BE1F887E457E8F55DAF5746A82C9","019d6668-b5b7-7d62-bf1b-f5adef6c6cfc","019d6630-2071-75cb-8026-6699844a2719","","974","
                <div class=""stimulus-container"">
                    <img src=""images/schematic_sequence/supermarket_scheme/supermarket_scheme_7.png"" class=""exp-image"">
                    <div class=""question-area"">
                        <p style=""font-size: 20px; font-weight: bold; margin: 0;"">Is there a person in this image?</p>
                    </div>
                </div>","0","main_experiment_trial","7","supermarket_scheme","schematic_sequence","chronological","","","","","","","",""
"","","","","","html-keyboard-response","115","603967","0.0-115.0","6519BE1F887E457E8F55DAF5746A82C9","019d6668-b5b7-7d62-bf1b-f5adef6c6cfc","019d6630-2071-75cb-8026-6699844a2719","","null","
                <div class=""stimulus-container"">
                    <img src=""images/schematic_sequence/supermarket_scheme/supermarket_scheme_8.png"" class=""exp-image"">
                    <div class=""question-area""></div> 
                </div>","null","","","","","","","","","","","","",""
"","","","","","html-button-response","116","604857","0.0-116.0","6519BE1F887E457E8F55DAF5746A82C9","019d6668-b5b7-7d62-bf1b-f5adef6c6cfc","019d6630-2071-75cb-8026-6699844a2719","","889","
                <div class=""stimulus-container"">
                    <img src=""images/schematic_sequence/supermarket_scheme/supermarket_scheme_8.png"" class=""exp-image"">
                    <div class=""question-area"">
                        <p style=""font-size: 20px; font-weight: bold; margin: 0;"">Is there a person in this image?</p>
                    </div>
                </div>","0","main_experiment_trial","8","supermarket_scheme","schematic_sequence","chronological","","","","","","","",""
"","","","","","html-keyboard-response","117","609872","0.0-117.0","6519BE1F887E457E8F55DAF5746A82C9","019d6668-b5b7-7d62-bf1b-f5adef6c6cfc","019d6630-2071-75cb-8026-6699844a2719","","null","
                <div class=""stimulus-container"">
                    <img src=""images/schematic_sequence/supermarket_scheme/supermarket_scheme_9.png"" class=""exp-image"">
                    <div class=""question-area""></div> 
                </div>","null","","","","","","","","","","","","",""
"","","","","","html-button-response","118","610926","0.0-118.0","6519BE1F887E457E8F55DAF5746A82C9","019d6668-b5b7-7d62-bf1b-f5adef6c6cfc","019d6630-2071-75cb-8026-6699844a2719","","1053","
                <div class=""stimulus-container"">
                    <img src=""images/schematic_sequence/supermarket_scheme/supermarket_scheme_9.png"" class=""exp-image"">
                    <div class=""question-area"">
                        <p style=""font-size: 20px; font-weight: bold; margin: 0;"">Is there a person in this image?</p>
                    </div>
                </div>","0","main_experiment_trial","9","supermarket_scheme","schematic_sequence","chronological","","","","","","","",""
"","","","","","html-keyboard-response","119","616000","0.0-119.0","6519BE1F887E457E8F55DAF5746A82C9","019d6668-b5b7-7d62-bf1b-f5adef6c6cfc","019d6630-2071-75cb-8026-6699844a2719","","null","
                <div class=""stimulus-container"">
                    <img src=""images/schematic_sequence/supermarket_scheme/supermarket_scheme_ten.png"" class=""exp-image"">
                    <div class=""question-area""></div> 
                </div>","null","","","","","","","","","","","","",""
"","","","","","html-button-response","120","618418","0.0-120.0","6519BE1F887E457E8F55DAF5746A82C9","019d6668-b5b7-7d62-bf1b-f5adef6c6cfc","019d6630-2071-75cb-8026-6699844a2719","","2418","
                <div class=""stimulus-container"">
                    <img src=""images/schematic_sequence/supermarket_scheme/supermarket_scheme_ten.png"" class=""exp-image"">
                    <div class=""question-area"">
                        <p style=""font-size: 20px; font-weight: bold; margin: 0;"">Is there a person in this image?</p>
                    </div>
                </div>","1","main_experiment_trial","ten","supermarket_scheme","schematic_sequence","chronological","","","","","","","",""
"","","","","","html-keyboard-response","121","624005","0.0-121.0","6519BE1F887E457E8F55DAF5746A82C9","019d6668-b5b7-7d62-bf1b-f5adef6c6cfc","019d6630-2071-75cb-8026-6699844a2719","","null","<div style=""background-color: white; width: 100vw; height: 100vh;""></div>","null","","","","","","","","","","","","",""
"","","","","","html-keyboard-response","122","629010","0.0-122.0","6519BE1F887E457E8F55DAF5746A82C9","019d6668-b5b7-7d62-bf1b-f5adef6c6cfc","019d6630-2071-75cb-8026-6699844a2719","","null","
                <div class=""stimulus-container"">
                    <img src=""images/semantic_sequence/maintaining_a_car_semantic/maintaining_a_car_semantic_1.png"" class=""exp-image"">
                    <div class=""question-area""></div> 
                </div>","null","","","","","","","","","","","","",""
"","","","","","html-button-response","123","630494","0.0-123.0","6519BE1F887E457E8F55DAF5746A82C9","019d6668-b5b7-7d62-bf1b-f5adef6c6cfc","019d6630-2071-75cb-8026-6699844a2719","","1484","
                <div class=""stimulus-container"">
                    <img src=""images/semantic_sequence/maintaining_a_car_semantic/maintaining_a_car_semantic_1.png"" class=""exp-image"">
                    <div class=""question-area"">
                        <p style=""font-size: 20px; font-weight: bold; margin: 0;"">Is there a person in this image?</p>
                    </div>
                </div>","0","main_experiment_trial","1","maintaining_a_car_semantic","semantic_sequence","chronological","","","","","","","",""
"","","","","","html-keyboard-response","124","635505","0.0-124.0","6519BE1F887E457E8F55DAF5746A82C9","019d6668-b5b7-7d62-bf1b-f5adef6c6cfc","019d6630-2071-75cb-8026-6699844a2719","","null","
                <div class=""stimulus-container"">
                    <img src=""images/semantic_sequence/maintaining_a_car_semantic/maintaining_a_car_semantic_2.png"" class=""exp-image"">
                    <div class=""question-area""></div> 
                </div>","null","","","","","","","","","","","","",""
"","","","","","html-button-response","125","636303","0.0-125.0","6519BE1F887E457E8F55DAF5746A82C9","019d6668-b5b7-7d62-bf1b-f5adef6c6cfc","019d6630-2071-75cb-8026-6699844a2719","","796","
                <div class=""stimulus-container"">
                    <img src=""images/semantic_sequence/maintaining_a_car_semantic/maintaining_a_car_semantic_2.png"" class=""exp-image"">
                    <div class=""question-area"">
                        <p style=""font-size: 20px; font-weight: bold; margin: 0;"">Is there a person in this image?</p>
                    </div>
                </div>","0","main_experiment_trial","2","maintaining_a_car_semantic","semantic_sequence","chronological","","","","","","","",""
"","","","","","html-keyboard-response","126","641310","0.0-126.0","6519BE1F887E457E8F55DAF5746A82C9","019d6668-b5b7-7d62-bf1b-f5adef6c6cfc","019d6630-2071-75cb-8026-6699844a2719","","null","
                <div class=""stimulus-container"">
                    <img src=""images/semantic_sequence/maintaining_a_car_semantic/maintaining_a_car_semantic_3.png"" class=""exp-image"">
                    <div class=""question-area""></div> 
                </div>","null","","","","","","","","","","","","",""
"","","","","","html-button-response","127","643321","0.0-127.0","6519BE1F887E457E8F55DAF5746A82C9","019d6668-b5b7-7d62-bf1b-f5adef6c6cfc","019d6630-2071-75cb-8026-6699844a2719","","2011","
                <div class=""stimulus-container"">
                    <img src=""images/semantic_sequence/maintaining_a_car_semantic/maintaining_a_car_semantic_3.png"" class=""exp-image"">
                    <div class=""question-area"">
                        <p style=""font-size: 20px; font-weight: bold; margin: 0;"">Is there a person in this image?</p>
                    </div>
                </div>","0","main_experiment_trial","3","maintaining_a_car_semantic","semantic_sequence","chronological","","","","","","","",""
"","","","","","html-keyboard-response","128","648331","0.0-128.0","6519BE1F887E457E8F55DAF5746A82C9","019d6668-b5b7-7d62-bf1b-f5adef6c6cfc","019d6630-2071-75cb-8026-6699844a2719","","null","
                <div class=""stimulus-container"">
                    <img src=""images/semantic_sequence/maintaining_a_car_semantic/maintaining_a_car_semantic_4.png"" class=""exp-image"">
                    <div class=""question-area""></div> 
                </div>","null","","","","","","","","","","","","",""
"","","","","","html-button-response","129","649134","0.0-129.0","6519BE1F887E457E8F55DAF5746A82C9","019d6668-b5b7-7d62-bf1b-f5adef6c6cfc","019d6630-2071-75cb-8026-6699844a2719","","802","
                <div class=""stimulus-container"">
                    <img src=""images/semantic_sequence/maintaining_a_car_semantic/maintaining_a_car_semantic_4.png"" class=""exp-image"">
                    <div class=""question-area"">
                        <p style=""font-size: 20px; font-weight: bold; margin: 0;"">Is there a person in this image?</p>
                    </div>
                </div>","0","main_experiment_trial","4","maintaining_a_car_semantic","semantic_sequence","chronological","","","","","","","",""
"","","","","","html-keyboard-response","130","654138","0.0-130.0","6519BE1F887E457E8F55DAF5746A82C9","019d6668-b5b7-7d62-bf1b-f5adef6c6cfc","019d6630-2071-75cb-8026-6699844a2719","","null","
                <div class=""stimulus-container"">
                    <img src=""images/semantic_sequence/maintaining_a_car_semantic/maintaining_a_car_semantic_5.png"" class=""exp-image"">
                    <div class=""question-area""></div> 
                </div>","null","","","","","","","","","","","","",""
"","","","","","html-button-response","131","654772","0.0-131.0","6519BE1F887E457E8F55DAF5746A82C9","019d6668-b5b7-7d62-bf1b-f5adef6c6cfc","019d6630-2071-75cb-8026-6699844a2719","","631","
                <div class=""stimulus-container"">
                    <img src=""images/semantic_sequence/maintaining_a_car_semantic/maintaining_a_car_semantic_5.png"" class=""exp-image"">
                    <div class=""question-area"">
                        <p style=""font-size: 20px; font-weight: bold; margin: 0;"">Is there a person in this image?</p>
                    </div>
                </div>","0","main_experiment_trial","5","maintaining_a_car_semantic","semantic_sequence","chronological","","","","","","","",""
"","","","","","html-keyboard-response","132","659776","0.0-132.0","6519BE1F887E457E8F55DAF5746A82C9","019d6668-b5b7-7d62-bf1b-f5adef6c6cfc","019d6630-2071-75cb-8026-6699844a2719","","null","
                <div class=""stimulus-container"">
                    <img src=""images/semantic_sequence/maintaining_a_car_semantic/maintaining_a_car_semantic_6.png"" class=""exp-image"">
                    <div class=""question-area""></div> 
                </div>","null","","","","","","","","","","","","",""
"","","","","","html-button-response","133","660611","0.0-133.0","6519BE1F887E457E8F55DAF5746A82C9","019d6668-b5b7-7d62-bf1b-f5adef6c6cfc","019d6630-2071-75cb-8026-6699844a2719","","833","
                <div class=""stimulus-container"">
                    <img src=""images/semantic_sequence/maintaining_a_car_semantic/maintaining_a_car_semantic_6.png"" class=""exp-image"">
                    <div class=""question-area"">
                        <p style=""font-size: 20px; font-weight: bold; margin: 0;"">Is there a person in this image?</p>
                    </div>
                </div>","0","main_experiment_trial","6","maintaining_a_car_semantic","semantic_sequence","chronological","","","","","","","",""
"","","","","","html-keyboard-response","134","665620","0.0-134.0","6519BE1F887E457E8F55DAF5746A82C9","019d6668-b5b7-7d62-bf1b-f5adef6c6cfc","019d6630-2071-75cb-8026-6699844a2719","","null","
                <div class=""stimulus-container"">
                    <img src=""images/semantic_sequence/maintaining_a_car_semantic/maintaining_a_car_semantic_7.png"" class=""exp-image"">
                    <div class=""question-area""></div> 
                </div>","null","","","","","","","","","","","","",""
"","","","","","html-button-response","135","666398","0.0-135.0","6519BE1F887E457E8F55DAF5746A82C9","019d6668-b5b7-7d62-bf1b-f5adef6c6cfc","019d6630-2071-75cb-8026-6699844a2719","","776","
                <div class=""stimulus-container"">
                    <img src=""images/semantic_sequence/maintaining_a_car_semantic/maintaining_a_car_semantic_7.png"" class=""exp-image"">
                    <div class=""question-area"">
                        <p style=""font-size: 20px; font-weight: bold; margin: 0;"">Is there a person in this image?</p>
                    </div>
                </div>","0","main_experiment_trial","7","maintaining_a_car_semantic","semantic_sequence","chronological","","","","","","","",""
"","","","","","html-keyboard-response","136","671415","0.0-136.0","6519BE1F887E457E8F55DAF5746A82C9","019d6668-b5b7-7d62-bf1b-f5adef6c6cfc","019d6630-2071-75cb-8026-6699844a2719","","null","
                <div class=""stimulus-container"">
                    <img src=""images/semantic_sequence/maintaining_a_car_semantic/maintaining_a_car_semantic_8.png"" class=""exp-image"">
                    <div class=""question-area""></div> 
                </div>","null","","","","","","","","","","","","",""
"","","","","","html-button-response","137","672577","0.0-137.0","6519BE1F887E457E8F55DAF5746A82C9","019d6668-b5b7-7d62-bf1b-f5adef6c6cfc","019d6630-2071-75cb-8026-6699844a2719","","1159","
                <div class=""stimulus-container"">
                    <img src=""images/semantic_sequence/maintaining_a_car_semantic/maintaining_a_car_semantic_8.png"" class=""exp-image"">
                    <div class=""question-area"">
                        <p style=""font-size: 20px; font-weight: bold; margin: 0;"">Is there a person in this image?</p>
                    </div>
                </div>","0","main_experiment_trial","8","maintaining_a_car_semantic","semantic_sequence","chronological","","","","","","","",""
"","","","","","html-keyboard-response","138","677581","0.0-138.0","6519BE1F887E457E8F55DAF5746A82C9","019d6668-b5b7-7d62-bf1b-f5adef6c6cfc","019d6630-2071-75cb-8026-6699844a2719","","null","
                <div class=""stimulus-container"">
                    <img src=""images/semantic_sequence/maintaining_a_car_semantic/maintaining_a_car_semantic_9.png"" class=""exp-image"">
                    <div class=""question-area""></div> 
                </div>","null","","","","","","","","","","","","",""
"","","","","","html-button-response","139","679432","0.0-139.0","6519BE1F887E457E8F55DAF5746A82C9","019d6668-b5b7-7d62-bf1b-f5adef6c6cfc","019d6630-2071-75cb-8026-6699844a2719","","1850","
                <div class=""stimulus-container"">
                    <img src=""images/semantic_sequence/maintaining_a_car_semantic/maintaining_a_car_semantic_9.png"" class=""exp-image"">
                    <div class=""question-area"">
                        <p style=""font-size: 20px; font-weight: bold; margin: 0;"">Is there a person in this image?</p>
                    </div>
                </div>","0","main_experiment_trial","9","maintaining_a_car_semantic","semantic_sequence","chronological","","","","","","","",""
"","","","","","html-keyboard-response","140","684640","0.0-140.0","6519BE1F887E457E8F55DAF5746A82C9","019d6668-b5b7-7d62-bf1b-f5adef6c6cfc","019d6630-2071-75cb-8026-6699844a2719","","null","
                <div class=""stimulus-container"">
                    <img src=""images/semantic_sequence/maintaining_a_car_semantic/maintaining_a_car_semantic_ten.png"" class=""exp-image"">
                    <div class=""question-area""></div> 
                </div>","null","","","","","","","","","","","","",""
"","","","","","html-button-response","141","685322","0.0-141.0","6519BE1F887E457E8F55DAF5746A82C9","019d6668-b5b7-7d62-bf1b-f5adef6c6cfc","019d6630-2071-75cb-8026-6699844a2719","","682","
                <div class=""stimulus-container"">
                    <img src=""images/semantic_sequence/maintaining_a_car_semantic/maintaining_a_car_semantic_ten.png"" class=""exp-image"">
                    <div class=""question-area"">
                        <p style=""font-size: 20px; font-weight: bold; margin: 0;"">Is there a person in this image?</p>
                    </div>
                </div>","0","main_experiment_trial","ten","maintaining_a_car_semantic","semantic_sequence","chronological","","","","","","","",""
"","","","","","html-keyboard-response","142","690326","0.0-142.0","6519BE1F887E457E8F55DAF5746A82C9","019d6668-b5b7-7d62-bf1b-f5adef6c6cfc","019d6630-2071-75cb-8026-6699844a2719","","null","<div style=""background-color: white; width: 100vw; height: 100vh;""></div>","null","","","","","","","","","","","","",""
"","","","","","html-keyboard-response","143","695343","0.0-143.0","6519BE1F887E457E8F55DAF5746A82C9","019d6668-b5b7-7d62-bf1b-f5adef6c6cfc","019d6630-2071-75cb-8026-6699844a2719","","null","
                <div class=""stimulus-container"">
                    <img src=""images/semantic_sequence/physical_activity_semantic/physical_activity_semantic_1.png"" class=""exp-image"">
                    <div class=""question-area""></div> 
                </div>","null","","","","","","","","","","","","",""
"","","","","","html-button-response","144","696228","0.0-144.0","6519BE1F887E457E8F55DAF5746A82C9","019d6668-b5b7-7d62-bf1b-f5adef6c6cfc","019d6630-2071-75cb-8026-6699844a2719","","885","
                <div class=""stimulus-container"">
                    <img src=""images/semantic_sequence/physical_activity_semantic/physical_activity_semantic_1.png"" class=""exp-image"">
                    <div class=""question-area"">
                        <p style=""font-size: 20px; font-weight: bold; margin: 0;"">Is there a person in this image?</p>
                    </div>
                </div>","0","main_experiment_trial","1","physical_activity_semantic","semantic_sequence","chronological","","","","","","","",""
"","","","","","html-keyboard-response","145","701244","0.0-145.0","6519BE1F887E457E8F55DAF5746A82C9","019d6668-b5b7-7d62-bf1b-f5adef6c6cfc","019d6630-2071-75cb-8026-6699844a2719","","null","
                <div class=""stimulus-container"">
                    <img src=""images/semantic_sequence/physical_activity_semantic/physical_activity_semantic_2.png"" class=""exp-image"">
                    <div class=""question-area""></div> 
                </div>","null","","","","","","","","","","","","",""
"","","","","","html-button-response","146","702680","0.0-146.0","6519BE1F887E457E8F55DAF5746A82C9","019d6668-b5b7-7d62-bf1b-f5adef6c6cfc","019d6630-2071-75cb-8026-6699844a2719","","1435","
                <div class=""stimulus-container"">
                    <img src=""images/semantic_sequence/physical_activity_semantic/physical_activity_semantic_2.png"" class=""exp-image"">
                    <div class=""question-area"">
                        <p style=""font-size: 20px; font-weight: bold; margin: 0;"">Is there a person in this image?</p>
                    </div>
                </div>","0","main_experiment_trial","2","physical_activity_semantic","semantic_sequence","chronological","","","","","","","",""
"","","","","","html-keyboard-response","147","707686","0.0-147.0","6519BE1F887E457E8F55DAF5746A82C9","019d6668-b5b7-7d62-bf1b-f5adef6c6cfc","019d6630-2071-75cb-8026-6699844a2719","","null","
                <div class=""stimulus-container"">
                    <img src=""images/semantic_sequence/physical_activity_semantic/physical_activity_semantic_3.png"" class=""exp-image"">
                    <div class=""question-area""></div> 
                </div>","null","","","","","","","","","","","","",""
"","","","","","html-button-response","148","708647","0.0-148.0","6519BE1F887E457E8F55DAF5746A82C9","019d6668-b5b7-7d62-bf1b-f5adef6c6cfc","019d6630-2071-75cb-8026-6699844a2719","","961","
                <div class=""stimulus-container"">
                    <img src=""images/semantic_sequence/physical_activity_semantic/physical_activity_semantic_3.png"" class=""exp-image"">
                    <div class=""question-area"">
                        <p style=""font-size: 20px; font-weight: bold; margin: 0;"">Is there a person in this image?</p>
                    </div>
                </div>","0","main_experiment_trial","3","physical_activity_semantic","semantic_sequence","chronological","","","","","","","",""
"","","","","","html-keyboard-response","149","713653","0.0-149.0","6519BE1F887E457E8F55DAF5746A82C9","019d6668-b5b7-7d62-bf1b-f5adef6c6cfc","019d6630-2071-75cb-8026-6699844a2719","","null","
                <div class=""stimulus-container"">
                    <img src=""images/semantic_sequence/physical_activity_semantic/physical_activity_semantic_4.png"" class=""exp-image"">
                    <div class=""question-area""></div> 
                </div>","null","","","","","","","","","","","","",""
"","","","","","html-button-response","150","715843","0.0-150.0","6519BE1F887E457E8F55DAF5746A82C9","019d6668-b5b7-7d62-bf1b-f5adef6c6cfc","019d6630-2071-75cb-8026-6699844a2719","","2188","
                <div class=""stimulus-container"">
                    <img src=""images/semantic_sequence/physical_activity_semantic/physical_activity_semantic_4.png"" class=""exp-image"">
                    <div class=""question-area"">
                        <p style=""font-size: 20px; font-weight: bold; margin: 0;"">Is there a person in this image?</p>
                    </div>
                </div>","0","main_experiment_trial","4","physical_activity_semantic","semantic_sequence","chronological","","","","","","","",""
"","","","","","html-keyboard-response","151","720861","0.0-151.0","6519BE1F887E457E8F55DAF5746A82C9","019d6668-b5b7-7d62-bf1b-f5adef6c6cfc","019d6630-2071-75cb-8026-6699844a2719","","null","
                <div class=""stimulus-container"">
                    <img src=""images/semantic_sequence/physical_activity_semantic/physical_activity_semantic_5.png"" class=""exp-image"">
                    <div class=""question-area""></div> 
                </div>","null","","","","","","","","","","","","",""
"","","","","","html-button-response","152","721739","0.0-152.0","6519BE1F887E457E8F55DAF5746A82C9","019d6668-b5b7-7d62-bf1b-f5adef6c6cfc","019d6630-2071-75cb-8026-6699844a2719","","876","
                <div class=""stimulus-container"">
                    <img src=""images/semantic_sequence/physical_activity_semantic/physical_activity_semantic_5.png"" class=""exp-image"">
                    <div class=""question-area"">
                        <p style=""font-size: 20px; font-weight: bold; margin: 0;"">Is there a person in this image?</p>
                    </div>
                </div>","0","main_experiment_trial","5","physical_activity_semantic","semantic_sequence","chronological","","","","","","","",""
"","","","","","html-keyboard-response","153","726899","0.0-153.0","6519BE1F887E457E8F55DAF5746A82C9","019d6668-b5b7-7d62-bf1b-f5adef6c6cfc","019d6630-2071-75cb-8026-6699844a2719","","null","
                <div class=""stimulus-container"">
                    <img src=""images/semantic_sequence/physical_activity_semantic/physical_activity_semantic_6.png"" class=""exp-image"">
                    <div class=""question-area""></div> 
                </div>","null","","","","","","","","","","","","",""
"","","","","","html-button-response","154","727872","0.0-154.0","6519BE1F887E457E8F55DAF5746A82C9","019d6668-b5b7-7d62-bf1b-f5adef6c6cfc","019d6630-2071-75cb-8026-6699844a2719","","971","
                <div class=""stimulus-container"">
                    <img src=""images/semantic_sequence/physical_activity_semantic/physical_activity_semantic_6.png"" class=""exp-image"">
                    <div class=""question-area"">
                        <p style=""font-size: 20px; font-weight: bold; margin: 0;"">Is there a person in this image?</p>
                    </div>
                </div>","0","main_experiment_trial","6","physical_activity_semantic","semantic_sequence","chronological","","","","","","","",""
"","","","","","html-keyboard-response","155","732877","0.0-155.0","6519BE1F887E457E8F55DAF5746A82C9","019d6668-b5b7-7d62-bf1b-f5adef6c6cfc","019d6630-2071-75cb-8026-6699844a2719","","null","
                <div class=""stimulus-container"">
                    <img src=""images/semantic_sequence/physical_activity_semantic/physical_activity_semantic_7.png"" class=""exp-image"">
                    <div class=""question-area""></div> 
                </div>","null","","","","","","","","","","","","",""
"","","","","","html-button-response","156","733906","0.0-156.0","6519BE1F887E457E8F55DAF5746A82C9","019d6668-b5b7-7d62-bf1b-f5adef6c6cfc","019d6630-2071-75cb-8026-6699844a2719","","1027","
                <div class=""stimulus-container"">
                    <img src=""images/semantic_sequence/physical_activity_semantic/physical_activity_semantic_7.png"" class=""exp-image"">
                    <div class=""question-area"">
                        <p style=""font-size: 20px; font-weight: bold; margin: 0;"">Is there a person in this image?</p>
                    </div>
                </div>","0","main_experiment_trial","7","physical_activity_semantic","semantic_sequence","chronological","","","","","","","",""
"","","","","","html-keyboard-response","157","738922","0.0-157.0","6519BE1F887E457E8F55DAF5746A82C9","019d6668-b5b7-7d62-bf1b-f5adef6c6cfc","019d6630-2071-75cb-8026-6699844a2719","","null","
                <div class=""stimulus-container"">
                    <img src=""images/semantic_sequence/physical_activity_semantic/physical_activity_semantic_8.png"" class=""exp-image"">
                    <div class=""question-area""></div> 
                </div>","null","","","","","","","","","","","","",""
"","","","","","html-button-response","158","739669","0.0-158.0","6519BE1F887E457E8F55DAF5746A82C9","019d6668-b5b7-7d62-bf1b-f5adef6c6cfc","019d6630-2071-75cb-8026-6699844a2719","","746","
                <div class=""stimulus-container"">
                    <img src=""images/semantic_sequence/physical_activity_semantic/physical_activity_semantic_8.png"" class=""exp-image"">
                    <div class=""question-area"">
                        <p style=""font-size: 20px; font-weight: bold; margin: 0;"">Is there a person in this image?</p>
                    </div>
                </div>","0","main_experiment_trial","8","physical_activity_semantic","semantic_sequence","chronological","","","","","","","",""
"","","","","","html-keyboard-response","159","744671","0.0-159.0","6519BE1F887E457E8F55DAF5746A82C9","019d6668-b5b7-7d62-bf1b-f5adef6c6cfc","019d6630-2071-75cb-8026-6699844a2719","","null","
                <div class=""stimulus-container"">
                    <img src=""images/semantic_sequence/physical_activity_semantic/physical_activity_semantic_9.png"" class=""exp-image"">
                    <div class=""question-area""></div> 
                </div>","null","","","","","","","","","","","","",""
"","","","","","html-button-response","160","745462","0.0-160.0","6519BE1F887E457E8F55DAF5746A82C9","019d6668-b5b7-7d62-bf1b-f5adef6c6cfc","019d6630-2071-75cb-8026-6699844a2719","","791","
                <div class=""stimulus-container"">
                    <img src=""images/semantic_sequence/physical_activity_semantic/physical_activity_semantic_9.png"" class=""exp-image"">
                    <div class=""question-area"">
                        <p style=""font-size: 20px; font-weight: bold; margin: 0;"">Is there a person in this image?</p>
                    </div>
                </div>","0","main_experiment_trial","9","physical_activity_semantic","semantic_sequence","chronological","","","","","","","",""
"","","","","","html-keyboard-response","161","750953","0.0-161.0","6519BE1F887E457E8F55DAF5746A82C9","019d6668-b5b7-7d62-bf1b-f5adef6c6cfc","019d6630-2071-75cb-8026-6699844a2719","","null","
                <div class=""stimulus-container"">
                    <img src=""images/semantic_sequence/physical_activity_semantic/physical_activity_semantic_ten.png"" class=""exp-image"">
                    <div class=""question-area""></div> 
                </div>","null","","","","","","","","","","","","",""
"","","","","","html-button-response","162","751821","0.0-162.0","6519BE1F887E457E8F55DAF5746A82C9","019d6668-b5b7-7d62-bf1b-f5adef6c6cfc","019d6630-2071-75cb-8026-6699844a2719","","866","
                <div class=""stimulus-container"">
                    <img src=""images/semantic_sequence/physical_activity_semantic/physical_activity_semantic_ten.png"" class=""exp-image"">
                    <div class=""question-area"">
                        <p style=""font-size: 20px; font-weight: bold; margin: 0;"">Is there a person in this image?</p>
                    </div>
                </div>","0","main_experiment_trial","ten","physical_activity_semantic","semantic_sequence","chronological","","","","","","","",""
"","","","","","html-keyboard-response","163","756827","0.0-163.0","6519BE1F887E457E8F55DAF5746A82C9","019d6668-b5b7-7d62-bf1b-f5adef6c6cfc","019d6630-2071-75cb-8026-6699844a2719","","null","<div style=""background-color: white; width: 100vw; height: 100vh;""></div>","null","","","","","","","","","","","","",""
"","","","","","html-keyboard-response","164","761840","0.0-164.0","6519BE1F887E457E8F55DAF5746A82C9","019d6668-b5b7-7d62-bf1b-f5adef6c6cfc","019d6630-2071-75cb-8026-6699844a2719","","null","
                <div class=""stimulus-container"">
                    <img src=""images/semantic_sequence/self_care_activities_semantic/self_care_activities_semantic_1.png"" class=""exp-image"">
                    <div class=""question-area""></div> 
                </div>","null","","","","","","","","","","","","",""
"","","","","","html-button-response","165","762689","0.0-165.0","6519BE1F887E457E8F55DAF5746A82C9","019d6668-b5b7-7d62-bf1b-f5adef6c6cfc","019d6630-2071-75cb-8026-6699844a2719","","848","
                <div class=""stimulus-container"">
                    <img src=""images/semantic_sequence/self_care_activities_semantic/self_care_activities_semantic_1.png"" class=""exp-image"">
                    <div class=""question-area"">
                        <p style=""font-size: 20px; font-weight: bold; margin: 0;"">Is there a person in this image?</p>
                    </div>
                </div>","0","main_experiment_trial","1","self_care_activities_semantic","semantic_sequence","chronological","","","","","","","",""
"","","","","","html-keyboard-response","166","767697","0.0-166.0","6519BE1F887E457E8F55DAF5746A82C9","019d6668-b5b7-7d62-bf1b-f5adef6c6cfc","019d6630-2071-75cb-8026-6699844a2719","","null","
                <div class=""stimulus-container"">
                    <img src=""images/semantic_sequence/self_care_activities_semantic/self_care_activities_semantic_2.png"" class=""exp-image"">
                    <div class=""question-area""></div> 
                </div>","null","","","","","","","","","","","","",""
"","","","","","html-button-response","167","768385","0.0-167.0","6519BE1F887E457E8F55DAF5746A82C9","019d6668-b5b7-7d62-bf1b-f5adef6c6cfc","019d6630-2071-75cb-8026-6699844a2719","","687","
                <div class=""stimulus-container"">
                    <img src=""images/semantic_sequence/self_care_activities_semantic/self_care_activities_semantic_2.png"" class=""exp-image"">
                    <div class=""question-area"">
                        <p style=""font-size: 20px; font-weight: bold; margin: 0;"">Is there a person in this image?</p>
                    </div>
                </div>","0","main_experiment_trial","2","self_care_activities_semantic","semantic_sequence","chronological","","","","","","","",""
"","","","","","html-keyboard-response","168","773400","0.0-168.0","6519BE1F887E457E8F55DAF5746A82C9","019d6668-b5b7-7d62-bf1b-f5adef6c6cfc","019d6630-2071-75cb-8026-6699844a2719","","null","
                <div class=""stimulus-container"">
                    <img src=""images/semantic_sequence/self_care_activities_semantic/self_care_activities_semantic_3.png"" class=""exp-image"">
                    <div class=""question-area""></div> 
                </div>","null","","","","","","","","","","","","",""
"","","","","","html-button-response","169","774419","0.0-169.0","6519BE1F887E457E8F55DAF5746A82C9","019d6668-b5b7-7d62-bf1b-f5adef6c6cfc","019d6630-2071-75cb-8026-6699844a2719","","1018","
                <div class=""stimulus-container"">
                    <img src=""images/semantic_sequence/self_care_activities_semantic/self_care_activities_semantic_3.png"" class=""exp-image"">
                    <div class=""question-area"">
                        <p style=""font-size: 20px; font-weight: bold; margin: 0;"">Is there a person in this image?</p>
                    </div>
                </div>","0","main_experiment_trial","3","self_care_activities_semantic","semantic_sequence","chronological","","","","","","","",""
"","","","","","html-keyboard-response","170","779431","0.0-170.0","6519BE1F887E457E8F55DAF5746A82C9","019d6668-b5b7-7d62-bf1b-f5adef6c6cfc","019d6630-2071-75cb-8026-6699844a2719","","null","
                <div class=""stimulus-container"">
                    <img src=""images/semantic_sequence/self_care_activities_semantic/self_care_activities_semantic_4.png"" class=""exp-image"">
                    <div class=""question-area""></div> 
                </div>","null","","","","","","","","","","","","",""
"","","","","","html-button-response","171","781609","0.0-171.0","6519BE1F887E457E8F55DAF5746A82C9","019d6668-b5b7-7d62-bf1b-f5adef6c6cfc","019d6630-2071-75cb-8026-6699844a2719","","2176","
                <div class=""stimulus-container"">
                    <img src=""images/semantic_sequence/self_care_activities_semantic/self_care_activities_semantic_4.png"" class=""exp-image"">
                    <div class=""question-area"">
                        <p style=""font-size: 20px; font-weight: bold; margin: 0;"">Is there a person in this image?</p>
                    </div>
                </div>","0","main_experiment_trial","4","self_care_activities_semantic","semantic_sequence","chronological","","","","","","","",""
"","","","","","html-keyboard-response","172","786887","0.0-172.0","6519BE1F887E457E8F55DAF5746A82C9","019d6668-b5b7-7d62-bf1b-f5adef6c6cfc","019d6630-2071-75cb-8026-6699844a2719","","null","
                <div class=""stimulus-container"">
                    <img src=""images/semantic_sequence/self_care_activities_semantic/self_care_activities_semantic_5.png"" class=""exp-image"">
                    <div class=""question-area""></div> 
                </div>","null","","","","","","","","","","","","",""
"","","","","","html-button-response","173","787882","0.0-173.0","6519BE1F887E457E8F55DAF5746A82C9","019d6668-b5b7-7d62-bf1b-f5adef6c6cfc","019d6630-2071-75cb-8026-6699844a2719","","994","
                <div class=""stimulus-container"">
                    <img src=""images/semantic_sequence/self_care_activities_semantic/self_care_activities_semantic_5.png"" class=""exp-image"">
                    <div class=""question-area"">
                        <p style=""font-size: 20px; font-weight: bold; margin: 0;"">Is there a person in this image?</p>
                    </div>
                </div>","0","main_experiment_trial","5","self_care_activities_semantic","semantic_sequence","chronological","","","","","","","",""
"","","","","","html-keyboard-response","174","793305","0.0-174.0","6519BE1F887E457E8F55DAF5746A82C9","019d6668-b5b7-7d62-bf1b-f5adef6c6cfc","019d6630-2071-75cb-8026-6699844a2719","","null","
                <div class=""stimulus-container"">
                    <img src=""images/semantic_sequence/self_care_activities_semantic/self_care_activities_semantic_6.png"" class=""exp-image"">
                    <div class=""question-area""></div> 
                </div>","null","","","","","","","","","","","","",""
"","","","","","html-button-response","175","795137","0.0-175.0","6519BE1F887E457E8F55DAF5746A82C9","019d6668-b5b7-7d62-bf1b-f5adef6c6cfc","019d6630-2071-75cb-8026-6699844a2719","","1831","
                <div class=""stimulus-container"">
                    <img src=""images/semantic_sequence/self_care_activities_semantic/self_care_activities_semantic_6.png"" class=""exp-image"">
                    <div class=""question-area"">
