"success","timeout","failed_images","failed_audio","failed_video","trial_type","trial_index","time_elapsed","internal_node_id","subject_id","study_id","session_id","view_history","rt","stimulus","response","task","image_index","folder","sequence_type","presentation_order","valuable_image_index","reward_type","target_X","l_dist","r_dist","chosen_image_index","selected_after_X","correct_choice"
"true","false","[]","[]","[]","preload","0","6208","0.0-0.0","FD824EFB7F914FB49FE37E05862AC30B","019d6687-fb09-7572-9d51-8f463273c496","019d6630-2071-75cb-8026-6699844a2719","","","","","","","","","","","","","","","","",""
"","","","","","instructions","1","16687","0.0-1.0","FD824EFB7F914FB49FE37E05862AC30B","019d6687-fb09-7572-9d51-8f463273c496","019d6630-2071-75cb-8026-6699844a2719","[{""page_index"":0,""viewing_time"":10478}]","10478","","","","","","","","","","","","","","",""
"","","","","","instructions","2","22993","0.0-2.0","FD824EFB7F914FB49FE37E05862AC30B","019d6687-fb09-7572-9d51-8f463273c496","019d6630-2071-75cb-8026-6699844a2719","[{""page_index"":0,""viewing_time"":6305}]","6305","","","","","","","","","","","","","","",""
"true","","","","","fullscreen","3","25271","0.0-3.0","FD824EFB7F914FB49FE37E05862AC30B","019d6687-fb09-7572-9d51-8f463273c496","019d6630-2071-75cb-8026-6699844a2719","","1263","","","","","","","","","","","","","","",""
"","","","","","instructions","4","33554","0.0-4.0","FD824EFB7F914FB49FE37E05862AC30B","019d6687-fb09-7572-9d51-8f463273c496","019d6630-2071-75cb-8026-6699844a2719","[{""page_index"":0,""viewing_time"":8282}]","8283","","","","","","","","","","","","","","",""
"","","","","","instructions","5","218602","0.0-5.0","FD824EFB7F914FB49FE37E05862AC30B","019d6687-fb09-7572-9d51-8f463273c496","019d6630-2071-75cb-8026-6699844a2719","[{""page_index"":0,""viewing_time"":185048}]","185048","","","","","","","","","","","","","","",""
"","","","","","html-keyboard-response","6","222609","0.0-6.0","FD824EFB7F914FB49FE37E05862AC30B","019d6687-fb09-7572-9d51-8f463273c496","019d6630-2071-75cb-8026-6699844a2719","","null","
                <div class=""stimulus-container"">
                    <img src=""images/instructions/movie_1.png"" class=""exp-image"">
                    <div class=""question-area""></div> 
                </div>","null","","","","","","","","","","","","",""
"","","","","","html-button-response","7","224801","0.0-7.0","FD824EFB7F914FB49FE37E05862AC30B","019d6687-fb09-7572-9d51-8f463273c496","019d6630-2071-75cb-8026-6699844a2719","","2190","
                <div class=""stimulus-container"">
                    <img src=""images/instructions/movie_1.png"" class=""exp-image"">
                    <div class=""question-area"">
                        <p style=""font-size: 20px; font-weight: bold; margin: 0;"">Was there a person in this image?</p>
                    </div>
                </div>","0","example_question","1","","","","","","","","","","",""
"","","","","","html-keyboard-response","8","228809","0.0-8.0","FD824EFB7F914FB49FE37E05862AC30B","019d6687-fb09-7572-9d51-8f463273c496","019d6630-2071-75cb-8026-6699844a2719","","null","
                <div class=""stimulus-container"">
                    <img src=""images/instructions/movie_2.png"" class=""exp-image"">
                    <div class=""question-area""></div> 
                </div>","null","","","","","","","","","","","","",""
"","","","","","html-button-response","9","229964","0.0-9.0","FD824EFB7F914FB49FE37E05862AC30B","019d6687-fb09-7572-9d51-8f463273c496","019d6630-2071-75cb-8026-6699844a2719","","1154","
                <div class=""stimulus-container"">
                    <img src=""images/instructions/movie_2.png"" class=""exp-image"">
                    <div class=""question-area"">
                        <p style=""font-size: 20px; font-weight: bold; margin: 0;"">Was there a person in this image?</p>
                    </div>
                </div>","0","example_question","2","","","","","","","","","","",""
"","","","","","html-keyboard-response","10","233979","0.0-10.0","FD824EFB7F914FB49FE37E05862AC30B","019d6687-fb09-7572-9d51-8f463273c496","019d6630-2071-75cb-8026-6699844a2719","","null","
                <div class=""stimulus-container"">
                    <img src=""images/instructions/movie_3.png"" class=""exp-image"">
                    <div class=""question-area""></div> 
                </div>","null","","","","","","","","","","","","",""
"","","","","","html-button-response","11","234580","0.0-11.0","FD824EFB7F914FB49FE37E05862AC30B","019d6687-fb09-7572-9d51-8f463273c496","019d6630-2071-75cb-8026-6699844a2719","","601","
                <div class=""stimulus-container"">
                    <img src=""images/instructions/movie_3.png"" class=""exp-image"">
                    <div class=""question-area"">
                        <p style=""font-size: 20px; font-weight: bold; margin: 0;"">Was there a person in this image?</p>
                    </div>
                </div>","0","example_question","3","","","","","","","","","","",""
"","","","","","html-keyboard-response","12","238585","0.0-12.0","FD824EFB7F914FB49FE37E05862AC30B","019d6687-fb09-7572-9d51-8f463273c496","019d6630-2071-75cb-8026-6699844a2719","","null","
                <div class=""stimulus-container"">
                    <img src=""images/instructions/movie_4.png"" class=""exp-image"">
                    <div class=""question-area""></div> 
                </div>","null","","","","","","","","","","","","",""
"","","","","","html-button-response","13","239014","0.0-13.0","FD824EFB7F914FB49FE37E05862AC30B","019d6687-fb09-7572-9d51-8f463273c496","019d6630-2071-75cb-8026-6699844a2719","","429","
                <div class=""stimulus-container"">
                    <img src=""images/instructions/movie_4.png"" class=""exp-image"">
                    <div class=""question-area"">
                        <p style=""font-size: 20px; font-weight: bold; margin: 0;"">Was there a person in this image?</p>
                    </div>
                </div>","0","example_question","4","","","","","","","","","","",""
"","","","","","instructions","14","240360","0.0-14.0","FD824EFB7F914FB49FE37E05862AC30B","019d6687-fb09-7572-9d51-8f463273c496","019d6630-2071-75cb-8026-6699844a2719","[{""page_index"":0,""viewing_time"":1345}]","1346","","","","","","","","","","","","","","",""
"","","","","","instructions","15","283306","0.0-15.0","FD824EFB7F914FB49FE37E05862AC30B","019d6687-fb09-7572-9d51-8f463273c496","019d6630-2071-75cb-8026-6699844a2719","[{""page_index"":0,""viewing_time"":42945}]","42946","","","","","","","","","","","","","","",""
"","","","","","html-keyboard-response","16","288311","0.0-16.0","FD824EFB7F914FB49FE37E05862AC30B","019d6687-fb09-7572-9d51-8f463273c496","019d6630-2071-75cb-8026-6699844a2719","","null","<div style=""background-color: white; width: 100vw; height: 100vh;""></div>","null","","","","","","","","","","","","",""
"","","","","","html-keyboard-response","17","293327","0.0-17.0","FD824EFB7F914FB49FE37E05862AC30B","019d6687-fb09-7572-9d51-8f463273c496","019d6630-2071-75cb-8026-6699844a2719","","null","
                <div class=""stimulus-container"">
                    <img src=""images/schematic_sequence/dinner_party_scheme/dinner_party_scheme_1.png"" class=""exp-image"">
                    <div class=""question-area""></div> 
                </div>","null","","","","","","","","","","","","",""
"","","","","","html-button-response","18","293898","0.0-18.0","FD824EFB7F914FB49FE37E05862AC30B","019d6687-fb09-7572-9d51-8f463273c496","019d6630-2071-75cb-8026-6699844a2719","","570","
                <div class=""stimulus-container"">
                    <img src=""images/schematic_sequence/dinner_party_scheme/dinner_party_scheme_1.png"" class=""exp-image"">
                    <div class=""question-area"">
                        <p style=""font-size: 20px; font-weight: bold; margin: 0;"">Is there a person in this image?</p>
                    </div>
                </div>","0","main_experiment_trial","1","dinner_party_scheme","schematic_sequence","chronological","","","","","","","",""
"","","","","","html-keyboard-response","19","298906","0.0-19.0","FD824EFB7F914FB49FE37E05862AC30B","019d6687-fb09-7572-9d51-8f463273c496","019d6630-2071-75cb-8026-6699844a2719","","null","
                <div class=""stimulus-container"">
                    <img src=""images/schematic_sequence/dinner_party_scheme/dinner_party_scheme_2.png"" class=""exp-image"">
                    <div class=""question-area""></div> 
                </div>","null","","","","","","","","","","","","",""
"","","","","","html-button-response","20","299532","0.0-20.0","FD824EFB7F914FB49FE37E05862AC30B","019d6687-fb09-7572-9d51-8f463273c496","019d6630-2071-75cb-8026-6699844a2719","","624","
                <div class=""stimulus-container"">
                    <img src=""images/schematic_sequence/dinner_party_scheme/dinner_party_scheme_2.png"" class=""exp-image"">
                    <div class=""question-area"">
                        <p style=""font-size: 20px; font-weight: bold; margin: 0;"">Is there a person in this image?</p>
                    </div>
                </div>","0","main_experiment_trial","2","dinner_party_scheme","schematic_sequence","chronological","","","","","","","",""
"","","","","","html-keyboard-response","21","304535","0.0-21.0","FD824EFB7F914FB49FE37E05862AC30B","019d6687-fb09-7572-9d51-8f463273c496","019d6630-2071-75cb-8026-6699844a2719","","null","
                <div class=""stimulus-container"">
                    <img src=""images/schematic_sequence/dinner_party_scheme/dinner_party_scheme_3.png"" class=""exp-image"">
                    <div class=""question-area""></div> 
                </div>","null","","","","","","","","","","","","",""
"","","","","","html-button-response","22","305061","0.0-22.0","FD824EFB7F914FB49FE37E05862AC30B","019d6687-fb09-7572-9d51-8f463273c496","019d6630-2071-75cb-8026-6699844a2719","","525","
                <div class=""stimulus-container"">
                    <img src=""images/schematic_sequence/dinner_party_scheme/dinner_party_scheme_3.png"" class=""exp-image"">
                    <div class=""question-area"">
                        <p style=""font-size: 20px; font-weight: bold; margin: 0;"">Is there a person in this image?</p>
                    </div>
                </div>","0","main_experiment_trial","3","dinner_party_scheme","schematic_sequence","chronological","","","","","","","",""
"","","","","","html-keyboard-response","23","310069","0.0-23.0","FD824EFB7F914FB49FE37E05862AC30B","019d6687-fb09-7572-9d51-8f463273c496","019d6630-2071-75cb-8026-6699844a2719","","null","
                <div class=""stimulus-container"">
                    <img src=""images/schematic_sequence/dinner_party_scheme/dinner_party_scheme_4.png"" class=""exp-image"">
                    <div class=""question-area""></div> 
                </div>","null","","","","","","","","","","","","",""
"","","","","","html-button-response","24","310455","0.0-24.0","FD824EFB7F914FB49FE37E05862AC30B","019d6687-fb09-7572-9d51-8f463273c496","019d6630-2071-75cb-8026-6699844a2719","","385","
                <div class=""stimulus-container"">
                    <img src=""images/schematic_sequence/dinner_party_scheme/dinner_party_scheme_4.png"" class=""exp-image"">
                    <div class=""question-area"">
                        <p style=""font-size: 20px; font-weight: bold; margin: 0;"">Is there a person in this image?</p>
                    </div>
                </div>","0","main_experiment_trial","4","dinner_party_scheme","schematic_sequence","chronological","","","","","","","",""
"","","","","","html-keyboard-response","25","315460","0.0-25.0","FD824EFB7F914FB49FE37E05862AC30B","019d6687-fb09-7572-9d51-8f463273c496","019d6630-2071-75cb-8026-6699844a2719","","null","
                <div class=""stimulus-container"">
                    <img src=""images/schematic_sequence/dinner_party_scheme/dinner_party_scheme_5.png"" class=""exp-image"">
                    <div class=""question-area""></div> 
                </div>","null","","","","","","","","","","","","",""
"","","","","","html-button-response","26","315801","0.0-26.0","FD824EFB7F914FB49FE37E05862AC30B","019d6687-fb09-7572-9d51-8f463273c496","019d6630-2071-75cb-8026-6699844a2719","","340","
                <div class=""stimulus-container"">
                    <img src=""images/schematic_sequence/dinner_party_scheme/dinner_party_scheme_5.png"" class=""exp-image"">
                    <div class=""question-area"">
                        <p style=""font-size: 20px; font-weight: bold; margin: 0;"">Is there a person in this image?</p>
                    </div>
                </div>","0","main_experiment_trial","5","dinner_party_scheme","schematic_sequence","chronological","","","","","","","",""
"","","","","","html-keyboard-response","27","320816","0.0-27.0","FD824EFB7F914FB49FE37E05862AC30B","019d6687-fb09-7572-9d51-8f463273c496","019d6630-2071-75cb-8026-6699844a2719","","null","
                <div class=""stimulus-container"">
                    <img src=""images/schematic_sequence/dinner_party_scheme/dinner_party_scheme_6.png"" class=""exp-image"">
                    <div class=""question-area""></div> 
                </div>","null","","","","","","","","","","","","",""
"","","","","","html-button-response","28","321322","0.0-28.0","FD824EFB7F914FB49FE37E05862AC30B","019d6687-fb09-7572-9d51-8f463273c496","019d6630-2071-75cb-8026-6699844a2719","","505","
                <div class=""stimulus-container"">
                    <img src=""images/schematic_sequence/dinner_party_scheme/dinner_party_scheme_6.png"" class=""exp-image"">
                    <div class=""question-area"">
                        <p style=""font-size: 20px; font-weight: bold; margin: 0;"">Is there a person in this image?</p>
                    </div>
                </div>","0","main_experiment_trial","6","dinner_party_scheme","schematic_sequence","chronological","","","","","","","",""
"","","","","","html-keyboard-response","29","326332","0.0-29.0","FD824EFB7F914FB49FE37E05862AC30B","019d6687-fb09-7572-9d51-8f463273c496","019d6630-2071-75cb-8026-6699844a2719","","null","
                <div class=""stimulus-container"">
                    <img src=""images/schematic_sequence/dinner_party_scheme/dinner_party_scheme_7.png"" class=""exp-image"">
                    <div class=""question-area""></div> 
                </div>","null","","","","","","","","","","","","",""
"","","","","","html-button-response","30","326661","0.0-30.0","FD824EFB7F914FB49FE37E05862AC30B","019d6687-fb09-7572-9d51-8f463273c496","019d6630-2071-75cb-8026-6699844a2719","","328","
                <div class=""stimulus-container"">
                    <img src=""images/schematic_sequence/dinner_party_scheme/dinner_party_scheme_7.png"" class=""exp-image"">
                    <div class=""question-area"">
                        <p style=""font-size: 20px; font-weight: bold; margin: 0;"">Is there a person in this image?</p>
                    </div>
                </div>","0","main_experiment_trial","7","dinner_party_scheme","schematic_sequence","chronological","","","","","","","",""
"","","","","","html-keyboard-response","31","331673","0.0-31.0","FD824EFB7F914FB49FE37E05862AC30B","019d6687-fb09-7572-9d51-8f463273c496","019d6630-2071-75cb-8026-6699844a2719","","null","
                <div class=""stimulus-container"">
                    <img src=""images/schematic_sequence/dinner_party_scheme/dinner_party_scheme_8.png"" class=""exp-image"">
                    <div class=""question-area""></div> 
                </div>","null","","","","","","","","","","","","",""
"","","","","","html-button-response","32","332055","0.0-32.0","FD824EFB7F914FB49FE37E05862AC30B","019d6687-fb09-7572-9d51-8f463273c496","019d6630-2071-75cb-8026-6699844a2719","","381","
                <div class=""stimulus-container"">
                    <img src=""images/schematic_sequence/dinner_party_scheme/dinner_party_scheme_8.png"" class=""exp-image"">
                    <div class=""question-area"">
                        <p style=""font-size: 20px; font-weight: bold; margin: 0;"">Is there a person in this image?</p>
                    </div>
                </div>","0","main_experiment_trial","8","dinner_party_scheme","schematic_sequence","chronological","","","","","","","",""
"","","","","","html-keyboard-response","33","337058","0.0-33.0","FD824EFB7F914FB49FE37E05862AC30B","019d6687-fb09-7572-9d51-8f463273c496","019d6630-2071-75cb-8026-6699844a2719","","null","
                <div class=""stimulus-container"">
                    <img src=""images/schematic_sequence/dinner_party_scheme/dinner_party_scheme_9.png"" class=""exp-image"">
                    <div class=""question-area""></div> 
                </div>","null","","","","","","","","","","","","",""
"","","","","","html-button-response","34","337424","0.0-34.0","FD824EFB7F914FB49FE37E05862AC30B","019d6687-fb09-7572-9d51-8f463273c496","019d6630-2071-75cb-8026-6699844a2719","","366","
                <div class=""stimulus-container"">
                    <img src=""images/schematic_sequence/dinner_party_scheme/dinner_party_scheme_9.png"" class=""exp-image"">
                    <div class=""question-area"">
                        <p style=""font-size: 20px; font-weight: bold; margin: 0;"">Is there a person in this image?</p>
                    </div>
                </div>","0","main_experiment_trial","9","dinner_party_scheme","schematic_sequence","chronological","","","","","","","",""
"","","","","","html-keyboard-response","35","342434","0.0-35.0","FD824EFB7F914FB49FE37E05862AC30B","019d6687-fb09-7572-9d51-8f463273c496","019d6630-2071-75cb-8026-6699844a2719","","null","
                <div class=""stimulus-container"">
                    <img src=""images/schematic_sequence/dinner_party_scheme/dinner_party_scheme_ten.png"" class=""exp-image"">
                    <div class=""question-area""></div> 
                </div>","null","","","","","","","","","","","","",""
"","","","","","html-button-response","36","342755","0.0-36.0","FD824EFB7F914FB49FE37E05862AC30B","019d6687-fb09-7572-9d51-8f463273c496","019d6630-2071-75cb-8026-6699844a2719","","320","
                <div class=""stimulus-container"">
                    <img src=""images/schematic_sequence/dinner_party_scheme/dinner_party_scheme_ten.png"" class=""exp-image"">
                    <div class=""question-area"">
                        <p style=""font-size: 20px; font-weight: bold; margin: 0;"">Is there a person in this image?</p>
                    </div>
                </div>","0","main_experiment_trial","ten","dinner_party_scheme","schematic_sequence","chronological","","","","","","","",""
"","","","","","html-keyboard-response","37","347761","0.0-37.0","FD824EFB7F914FB49FE37E05862AC30B","019d6687-fb09-7572-9d51-8f463273c496","019d6630-2071-75cb-8026-6699844a2719","","null","<div style=""background-color: white; width: 100vw; height: 100vh;""></div>","null","","","","","","","","","","","","",""
"","","","","","html-keyboard-response","38","352763","0.0-38.0","FD824EFB7F914FB49FE37E05862AC30B","019d6687-fb09-7572-9d51-8f463273c496","019d6630-2071-75cb-8026-6699844a2719","","null","
                <div class=""stimulus-container"">
                    <img src=""images/semantic_sequence/maintaining_a_car_semantic/maintaining_a_car_semantic_1.png"" class=""exp-image"">
                    <div class=""question-area""></div> 
                </div>","null","","","","","","","","","","","","",""
"","","","","","html-button-response","39","353564","0.0-39.0","FD824EFB7F914FB49FE37E05862AC30B","019d6687-fb09-7572-9d51-8f463273c496","019d6630-2071-75cb-8026-6699844a2719","","800","
                <div class=""stimulus-container"">
                    <img src=""images/semantic_sequence/maintaining_a_car_semantic/maintaining_a_car_semantic_1.png"" class=""exp-image"">
                    <div class=""question-area"">
                        <p style=""font-size: 20px; font-weight: bold; margin: 0;"">Is there a person in this image?</p>
                    </div>
                </div>","0","main_experiment_trial","1","maintaining_a_car_semantic","semantic_sequence","chronological","","","","","","","",""
"","","","","","html-keyboard-response","40","358577","0.0-40.0","FD824EFB7F914FB49FE37E05862AC30B","019d6687-fb09-7572-9d51-8f463273c496","019d6630-2071-75cb-8026-6699844a2719","","null","
                <div class=""stimulus-container"">
                    <img src=""images/semantic_sequence/maintaining_a_car_semantic/maintaining_a_car_semantic_2.png"" class=""exp-image"">
                    <div class=""question-area""></div> 
                </div>","null","","","","","","","","","","","","",""
"","","","","","html-button-response","41","358940","0.0-41.0","FD824EFB7F914FB49FE37E05862AC30B","019d6687-fb09-7572-9d51-8f463273c496","019d6630-2071-75cb-8026-6699844a2719","","362","
                <div class=""stimulus-container"">
                    <img src=""images/semantic_sequence/maintaining_a_car_semantic/maintaining_a_car_semantic_2.png"" class=""exp-image"">
                    <div class=""question-area"">
                        <p style=""font-size: 20px; font-weight: bold; margin: 0;"">Is there a person in this image?</p>
                    </div>
                </div>","0","main_experiment_trial","2","maintaining_a_car_semantic","semantic_sequence","chronological","","","","","","","",""
"","","","","","html-keyboard-response","42","363944","0.0-42.0","FD824EFB7F914FB49FE37E05862AC30B","019d6687-fb09-7572-9d51-8f463273c496","019d6630-2071-75cb-8026-6699844a2719","","null","
                <div class=""stimulus-container"">
                    <img src=""images/semantic_sequence/maintaining_a_car_semantic/maintaining_a_car_semantic_3.png"" class=""exp-image"">
                    <div class=""question-area""></div> 
                </div>","null","","","","","","","","","","","","",""
"","","","","","html-button-response","43","364318","0.0-43.0","FD824EFB7F914FB49FE37E05862AC30B","019d6687-fb09-7572-9d51-8f463273c496","019d6630-2071-75cb-8026-6699844a2719","","373","
                <div class=""stimulus-container"">
                    <img src=""images/semantic_sequence/maintaining_a_car_semantic/maintaining_a_car_semantic_3.png"" class=""exp-image"">
                    <div class=""question-area"">
                        <p style=""font-size: 20px; font-weight: bold; margin: 0;"">Is there a person in this image?</p>
                    </div>
                </div>","0","main_experiment_trial","3","maintaining_a_car_semantic","semantic_sequence","chronological","","","","","","","",""
"","","","","","html-keyboard-response","44","369322","0.0-44.0","FD824EFB7F914FB49FE37E05862AC30B","019d6687-fb09-7572-9d51-8f463273c496","019d6630-2071-75cb-8026-6699844a2719","","null","
                <div class=""stimulus-container"">
                    <img src=""images/semantic_sequence/maintaining_a_car_semantic/maintaining_a_car_semantic_4.png"" class=""exp-image"">
                    <div class=""question-area""></div> 
                </div>","null","","","","","","","","","","","","",""
"","","","","","html-button-response","45","369744","0.0-45.0","FD824EFB7F914FB49FE37E05862AC30B","019d6687-fb09-7572-9d51-8f463273c496","019d6630-2071-75cb-8026-6699844a2719","","422","
                <div class=""stimulus-container"">
                    <img src=""images/semantic_sequence/maintaining_a_car_semantic/maintaining_a_car_semantic_4.png"" class=""exp-image"">
                    <div class=""question-area"">
                        <p style=""font-size: 20px; font-weight: bold; margin: 0;"">Is there a person in this image?</p>
                    </div>
                </div>","0","main_experiment_trial","4","maintaining_a_car_semantic","semantic_sequence","chronological","","","","","","","",""
"","","","","","html-keyboard-response","46","374753","0.0-46.0","FD824EFB7F914FB49FE37E05862AC30B","019d6687-fb09-7572-9d51-8f463273c496","019d6630-2071-75cb-8026-6699844a2719","","null","
                <div class=""stimulus-container"">
                    <img src=""images/semantic_sequence/maintaining_a_car_semantic/maintaining_a_car_semantic_5.png"" class=""exp-image"">
                    <div class=""question-area""></div> 
                </div>","null","","","","","","","","","","","","",""
"","","","","","html-button-response","47","375534","0.0-47.0","FD824EFB7F914FB49FE37E05862AC30B","019d6687-fb09-7572-9d51-8f463273c496","019d6630-2071-75cb-8026-6699844a2719","","781","
                <div class=""stimulus-container"">
                    <img src=""images/semantic_sequence/maintaining_a_car_semantic/maintaining_a_car_semantic_5.png"" class=""exp-image"">
                    <div class=""question-area"">
                        <p style=""font-size: 20px; font-weight: bold; margin: 0;"">Is there a person in this image?</p>
                    </div>
                </div>","0","main_experiment_trial","5","maintaining_a_car_semantic","semantic_sequence","chronological","","","","","","","",""
"","","","","","html-keyboard-response","48","380547","0.0-48.0","FD824EFB7F914FB49FE37E05862AC30B","019d6687-fb09-7572-9d51-8f463273c496","019d6630-2071-75cb-8026-6699844a2719","","null","
                <div class=""stimulus-container"">
                    <img src=""images/semantic_sequence/maintaining_a_car_semantic/maintaining_a_car_semantic_6.png"" class=""exp-image"">
                    <div class=""question-area""></div> 
                </div>","null","","","","","","","","","","","","",""
"","","","","","html-button-response","49","381205","0.0-49.0","FD824EFB7F914FB49FE37E05862AC30B","019d6687-fb09-7572-9d51-8f463273c496","019d6630-2071-75cb-8026-6699844a2719","","656","
                <div class=""stimulus-container"">
                    <img src=""images/semantic_sequence/maintaining_a_car_semantic/maintaining_a_car_semantic_6.png"" class=""exp-image"">
                    <div class=""question-area"">
                        <p style=""font-size: 20px; font-weight: bold; margin: 0;"">Is there a person in this image?</p>
                    </div>
                </div>","0","main_experiment_trial","6","maintaining_a_car_semantic","semantic_sequence","chronological","","","","","","","",""
"","","","","","html-keyboard-response","50","386211","0.0-50.0","FD824EFB7F914FB49FE37E05862AC30B","019d6687-fb09-7572-9d51-8f463273c496","019d6630-2071-75cb-8026-6699844a2719","","null","
                <div class=""stimulus-container"">
                    <img src=""images/semantic_sequence/maintaining_a_car_semantic/maintaining_a_car_semantic_7.png"" class=""exp-image"">
                    <div class=""question-area""></div> 
                </div>","null","","","","","","","","","","","","",""
"","","","","","html-button-response","51","386800","0.0-51.0","FD824EFB7F914FB49FE37E05862AC30B","019d6687-fb09-7572-9d51-8f463273c496","019d6630-2071-75cb-8026-6699844a2719","","588","
                <div class=""stimulus-container"">
                    <img src=""images/semantic_sequence/maintaining_a_car_semantic/maintaining_a_car_semantic_7.png"" class=""exp-image"">
                    <div class=""question-area"">
                        <p style=""font-size: 20px; font-weight: bold; margin: 0;"">Is there a person in this image?</p>
                    </div>
                </div>","0","main_experiment_trial","7","maintaining_a_car_semantic","semantic_sequence","chronological","","","","","","","",""
"","","","","","html-keyboard-response","52","391812","0.0-52.0","FD824EFB7F914FB49FE37E05862AC30B","019d6687-fb09-7572-9d51-8f463273c496","019d6630-2071-75cb-8026-6699844a2719","","null","
                <div class=""stimulus-container"">
                    <img src=""images/semantic_sequence/maintaining_a_car_semantic/maintaining_a_car_semantic_8.png"" class=""exp-image"">
                    <div class=""question-area""></div> 
                </div>","null","","","","","","","","","","","","",""
"","","","","","html-button-response","53","392408","0.0-53.0","FD824EFB7F914FB49FE37E05862AC30B","019d6687-fb09-7572-9d51-8f463273c496","019d6630-2071-75cb-8026-6699844a2719","","595","
                <div class=""stimulus-container"">
                    <img src=""images/semantic_sequence/maintaining_a_car_semantic/maintaining_a_car_semantic_8.png"" class=""exp-image"">
                    <div class=""question-area"">
                        <p style=""font-size: 20px; font-weight: bold; margin: 0;"">Is there a person in this image?</p>
                    </div>
                </div>","0","main_experiment_trial","8","maintaining_a_car_semantic","semantic_sequence","chronological","","","","","","","",""
"","","","","","html-keyboard-response","54","397412","0.0-54.0","FD824EFB7F914FB49FE37E05862AC30B","019d6687-fb09-7572-9d51-8f463273c496","019d6630-2071-75cb-8026-6699844a2719","","null","
                <div class=""stimulus-container"">
                    <img src=""images/semantic_sequence/maintaining_a_car_semantic/maintaining_a_car_semantic_9.png"" class=""exp-image"">
                    <div class=""question-area""></div> 
                </div>","null","","","","","","","","","","","","",""
"","","","","","html-button-response","55","398063","0.0-55.0","FD824EFB7F914FB49FE37E05862AC30B","019d6687-fb09-7572-9d51-8f463273c496","019d6630-2071-75cb-8026-6699844a2719","","649","
                <div class=""stimulus-container"">
                    <img src=""images/semantic_sequence/maintaining_a_car_semantic/maintaining_a_car_semantic_9.png"" class=""exp-image"">
                    <div class=""question-area"">
                        <p style=""font-size: 20px; font-weight: bold; margin: 0;"">Is there a person in this image?</p>
                    </div>
                </div>","0","main_experiment_trial","9","maintaining_a_car_semantic","semantic_sequence","chronological","","","","","","","",""
"","","","","","html-keyboard-response","56","403076","0.0-56.0","FD824EFB7F914FB49FE37E05862AC30B","019d6687-fb09-7572-9d51-8f463273c496","019d6630-2071-75cb-8026-6699844a2719","","null","
                <div class=""stimulus-container"">
                    <img src=""images/semantic_sequence/maintaining_a_car_semantic/maintaining_a_car_semantic_ten.png"" class=""exp-image"">
                    <div class=""question-area""></div> 
                </div>","null","","","","","","","","","","","","",""
"","","","","","html-button-response","57","403525","0.0-57.0","FD824EFB7F914FB49FE37E05862AC30B","019d6687-fb09-7572-9d51-8f463273c496","019d6630-2071-75cb-8026-6699844a2719","","447","
                <div class=""stimulus-container"">
                    <img src=""images/semantic_sequence/maintaining_a_car_semantic/maintaining_a_car_semantic_ten.png"" class=""exp-image"">
                    <div class=""question-area"">
                        <p style=""font-size: 20px; font-weight: bold; margin: 0;"">Is there a person in this image?</p>
                    </div>
                </div>","0","main_experiment_trial","ten","maintaining_a_car_semantic","semantic_sequence","chronological","","","","","","","",""
"","","","","","html-keyboard-response","58","408533","0.0-58.0","FD824EFB7F914FB49FE37E05862AC30B","019d6687-fb09-7572-9d51-8f463273c496","019d6630-2071-75cb-8026-6699844a2719","","null","<div style=""background-color: white; width: 100vw; height: 100vh;""></div>","null","","","","","","","","","","","","",""
"","","","","","html-keyboard-response","59","413544","0.0-59.0","FD824EFB7F914FB49FE37E05862AC30B","019d6687-fb09-7572-9d51-8f463273c496","019d6630-2071-75cb-8026-6699844a2719","","null","
                <div class=""stimulus-container"">
                    <img src=""images/causal_sequence/saving_a_cat_causal/saving_a_cat_causal_1.png"" class=""exp-image"">
                    <div class=""question-area""></div> 
                </div>","null","","","","","","","","","","","","",""
"","","","","","html-button-response","60","414092","0.0-60.0","FD824EFB7F914FB49FE37E05862AC30B","019d6687-fb09-7572-9d51-8f463273c496","019d6630-2071-75cb-8026-6699844a2719","","548","
                <div class=""stimulus-container"">
                    <img src=""images/causal_sequence/saving_a_cat_causal/saving_a_cat_causal_1.png"" class=""exp-image"">
                    <div class=""question-area"">
                        <p style=""font-size: 20px; font-weight: bold; margin: 0;"">Is there a person in this image?</p>
                    </div>
                </div>","0","main_experiment_trial","1","saving_a_cat_causal","causal_sequence","chronological","","","","","","","",""
"","","","","","html-keyboard-response","61","419103","0.0-61.0","FD824EFB7F914FB49FE37E05862AC30B","019d6687-fb09-7572-9d51-8f463273c496","019d6630-2071-75cb-8026-6699844a2719","","null","
                <div class=""stimulus-container"">
                    <img src=""images/causal_sequence/saving_a_cat_causal/saving_a_cat_causal_2.png"" class=""exp-image"">
                    <div class=""question-area""></div> 
                </div>","null","","","","","","","","","","","","",""
"","","","","","html-button-response","62","420113","0.0-62.0","FD824EFB7F914FB49FE37E05862AC30B","019d6687-fb09-7572-9d51-8f463273c496","019d6630-2071-75cb-8026-6699844a2719","","1009","
                <div class=""stimulus-container"">
                    <img src=""images/causal_sequence/saving_a_cat_causal/saving_a_cat_causal_2.png"" class=""exp-image"">
                    <div class=""question-area"">
                        <p style=""font-size: 20px; font-weight: bold; margin: 0;"">Is there a person in this image?</p>
                    </div>
                </div>","1","main_experiment_trial","2","saving_a_cat_causal","causal_sequence","chronological","","","","","","","",""
"","","","","","html-keyboard-response","63","425113","0.0-63.0","FD824EFB7F914FB49FE37E05862AC30B","019d6687-fb09-7572-9d51-8f463273c496","019d6630-2071-75cb-8026-6699844a2719","","null","
                <div class=""stimulus-container"">
                    <img src=""images/causal_sequence/saving_a_cat_causal/saving_a_cat_causal_3.png"" class=""exp-image"">
                    <div class=""question-area""></div> 
                </div>","null","","","","","","","","","","","","",""
"","","","","","html-button-response","64","425672","0.0-64.0","FD824EFB7F914FB49FE37E05862AC30B","019d6687-fb09-7572-9d51-8f463273c496","019d6630-2071-75cb-8026-6699844a2719","","558","
                <div class=""stimulus-container"">
                    <img src=""images/causal_sequence/saving_a_cat_causal/saving_a_cat_causal_3.png"" class=""exp-image"">
                    <div class=""question-area"">
                        <p style=""font-size: 20px; font-weight: bold; margin: 0;"">Is there a person in this image?</p>
                    </div>
                </div>","1","main_experiment_trial","3","saving_a_cat_causal","causal_sequence","chronological","","","","","","","",""
"","","","","","html-keyboard-response","65","430680","0.0-65.0","FD824EFB7F914FB49FE37E05862AC30B","019d6687-fb09-7572-9d51-8f463273c496","019d6630-2071-75cb-8026-6699844a2719","","null","
                <div class=""stimulus-container"">
                    <img src=""images/causal_sequence/saving_a_cat_causal/saving_a_cat_causal_4.png"" class=""exp-image"">
                    <div class=""question-area""></div> 
                </div>","null","","","","","","","","","","","","",""
"","","","","","html-button-response","66","431262","0.0-66.0","FD824EFB7F914FB49FE37E05862AC30B","019d6687-fb09-7572-9d51-8f463273c496","019d6630-2071-75cb-8026-6699844a2719","","581","
                <div class=""stimulus-container"">
                    <img src=""images/causal_sequence/saving_a_cat_causal/saving_a_cat_causal_4.png"" class=""exp-image"">
                    <div class=""question-area"">
                        <p style=""font-size: 20px; font-weight: bold; margin: 0;"">Is there a person in this image?</p>
                    </div>
                </div>","0","main_experiment_trial","4","saving_a_cat_causal","causal_sequence","chronological","","","","","","","",""
"","","","","","html-keyboard-response","67","436270","0.0-67.0","FD824EFB7F914FB49FE37E05862AC30B","019d6687-fb09-7572-9d51-8f463273c496","019d6630-2071-75cb-8026-6699844a2719","","null","
                <div class=""stimulus-container"">
                    <img src=""images/causal_sequence/saving_a_cat_causal/saving_a_cat_causal_5.png"" class=""exp-image"">
                    <div class=""question-area""></div> 
                </div>","null","","","","","","","","","","","","",""
"","","","","","html-button-response","68","436775","0.0-68.0","FD824EFB7F914FB49FE37E05862AC30B","019d6687-fb09-7572-9d51-8f463273c496","019d6630-2071-75cb-8026-6699844a2719","","503","
                <div class=""stimulus-container"">
                    <img src=""images/causal_sequence/saving_a_cat_causal/saving_a_cat_causal_5.png"" class=""exp-image"">
                    <div class=""question-area"">
                        <p style=""font-size: 20px; font-weight: bold; margin: 0;"">Is there a person in this image?</p>
                    </div>
                </div>","0","main_experiment_trial","5","saving_a_cat_causal","causal_sequence","chronological","","","","","","","",""
"","","","","","html-keyboard-response","69","441786","0.0-69.0","FD824EFB7F914FB49FE37E05862AC30B","019d6687-fb09-7572-9d51-8f463273c496","019d6630-2071-75cb-8026-6699844a2719","","null","
                <div class=""stimulus-container"">
                    <img src=""images/causal_sequence/saving_a_cat_causal/saving_a_cat_causal_6.png"" class=""exp-image"">
                    <div class=""question-area""></div> 
                </div>","null","","","","","","","","","","","","",""
"","","","","","html-button-response","70","442193","0.0-70.0","FD824EFB7F914FB49FE37E05862AC30B","019d6687-fb09-7572-9d51-8f463273c496","019d6630-2071-75cb-8026-6699844a2719","","406","
                <div class=""stimulus-container"">
                    <img src=""images/causal_sequence/saving_a_cat_causal/saving_a_cat_causal_6.png"" class=""exp-image"">
                    <div class=""question-area"">
                        <p style=""font-size: 20px; font-weight: bold; margin: 0;"">Is there a person in this image?</p>
                    </div>
                </div>","0","main_experiment_trial","6","saving_a_cat_causal","causal_sequence","chronological","","","","","","","",""
"","","","","","html-keyboard-response","71","447206","0.0-71.0","FD824EFB7F914FB49FE37E05862AC30B","019d6687-fb09-7572-9d51-8f463273c496","019d6630-2071-75cb-8026-6699844a2719","","null","
                <div class=""stimulus-container"">
                    <img src=""images/causal_sequence/saving_a_cat_causal/saving_a_cat_causal_7.png"" class=""exp-image"">
                    <div class=""question-area""></div> 
                </div>","null","","","","","","","","","","","","",""
"","","","","","html-button-response","72","447674","0.0-72.0","FD824EFB7F914FB49FE37E05862AC30B","019d6687-fb09-7572-9d51-8f463273c496","019d6630-2071-75cb-8026-6699844a2719","","467","
                <div class=""stimulus-container"">
                    <img src=""images/causal_sequence/saving_a_cat_causal/saving_a_cat_causal_7.png"" class=""exp-image"">
                    <div class=""question-area"">
                        <p style=""font-size: 20px; font-weight: bold; margin: 0;"">Is there a person in this image?</p>
                    </div>
                </div>","0","main_experiment_trial","7","saving_a_cat_causal","causal_sequence","chronological","","","","","","","",""
"","","","","","html-keyboard-response","73","452677","0.0-73.0","FD824EFB7F914FB49FE37E05862AC30B","019d6687-fb09-7572-9d51-8f463273c496","019d6630-2071-75cb-8026-6699844a2719","","null","
                <div class=""stimulus-container"">
                    <img src=""images/causal_sequence/saving_a_cat_causal/saving_a_cat_causal_8.png"" class=""exp-image"">
                    <div class=""question-area""></div> 
                </div>","null","","","","","","","","","","","","",""
"","","","","","html-button-response","74","453272","0.0-74.0","FD824EFB7F914FB49FE37E05862AC30B","019d6687-fb09-7572-9d51-8f463273c496","019d6630-2071-75cb-8026-6699844a2719","","594","
                <div class=""stimulus-container"">
                    <img src=""images/causal_sequence/saving_a_cat_causal/saving_a_cat_causal_8.png"" class=""exp-image"">
                    <div class=""question-area"">
                        <p style=""font-size: 20px; font-weight: bold; margin: 0;"">Is there a person in this image?</p>
                    </div>
                </div>","0","main_experiment_trial","8","saving_a_cat_causal","causal_sequence","chronological","","","","","","","",""
"","","","","","html-keyboard-response","75","458280","0.0-75.0","FD824EFB7F914FB49FE37E05862AC30B","019d6687-fb09-7572-9d51-8f463273c496","019d6630-2071-75cb-8026-6699844a2719","","null","
                <div class=""stimulus-container"">
                    <img src=""images/causal_sequence/saving_a_cat_causal/saving_a_cat_causal_9.png"" class=""exp-image"">
                    <div class=""question-area""></div> 
                </div>","null","","","","","","","","","","","","",""
"","","","","","html-button-response","76","458642","0.0-76.0","FD824EFB7F914FB49FE37E05862AC30B","019d6687-fb09-7572-9d51-8f463273c496","019d6630-2071-75cb-8026-6699844a2719","","362","
                <div class=""stimulus-container"">
                    <img src=""images/causal_sequence/saving_a_cat_causal/saving_a_cat_causal_9.png"" class=""exp-image"">
                    <div class=""question-area"">
                        <p style=""font-size: 20px; font-weight: bold; margin: 0;"">Is there a person in this image?</p>
                    </div>
                </div>","0","main_experiment_trial","9","saving_a_cat_causal","causal_sequence","chronological","","","","","","","",""
"","","","","","html-keyboard-response","77","463648","0.0-77.0","FD824EFB7F914FB49FE37E05862AC30B","019d6687-fb09-7572-9d51-8f463273c496","019d6630-2071-75cb-8026-6699844a2719","","null","
                <div class=""stimulus-container"">
                    <img src=""images/causal_sequence/saving_a_cat_causal/saving_a_cat_causal_ten.png"" class=""exp-image"">
                    <div class=""question-area""></div> 
                </div>","null","","","","","","","","","","","","",""
"","","","","","html-button-response","78","464033","0.0-78.0","FD824EFB7F914FB49FE37E05862AC30B","019d6687-fb09-7572-9d51-8f463273c496","019d6630-2071-75cb-8026-6699844a2719","","383","
                <div class=""stimulus-container"">
                    <img src=""images/causal_sequence/saving_a_cat_causal/saving_a_cat_causal_ten.png"" class=""exp-image"">
                    <div class=""question-area"">
                        <p style=""font-size: 20px; font-weight: bold; margin: 0;"">Is there a person in this image?</p>
                    </div>
                </div>","0","main_experiment_trial","ten","saving_a_cat_causal","causal_sequence","chronological","","","","","","","",""
"","","","","","html-keyboard-response","79","469042","0.0-79.0","FD824EFB7F914FB49FE37E05862AC30B","019d6687-fb09-7572-9d51-8f463273c496","019d6630-2071-75cb-8026-6699844a2719","","null","<div style=""background-color: white; width: 100vw; height: 100vh;""></div>","null","","","","","","","","","","","","",""
"","","","","","html-keyboard-response","80","474059","0.0-80.0","FD824EFB7F914FB49FE37E05862AC30B","019d6687-fb09-7572-9d51-8f463273c496","019d6630-2071-75cb-8026-6699844a2719","","null","
                <div class=""stimulus-container"">
                    <img src=""images/causal_sequence/package_causal/package_causal_1.png"" class=""exp-image"">
                    <div class=""question-area""></div> 
                </div>","null","","","","","","","","","","","","",""
"","","","","","html-button-response","81","474468","0.0-81.0","FD824EFB7F914FB49FE37E05862AC30B","019d6687-fb09-7572-9d51-8f463273c496","019d6630-2071-75cb-8026-6699844a2719","","407","
                <div class=""stimulus-container"">
                    <img src=""images/causal_sequence/package_causal/package_causal_1.png"" class=""exp-image"">
                    <div class=""question-area"">
                        <p style=""font-size: 20px; font-weight: bold; margin: 0;"">Is there a person in this image?</p>
                    </div>
                </div>","0","main_experiment_trial","1","package_causal","causal_sequence","chronological","","","","","","","",""
"","","","","","html-keyboard-response","82","479472","0.0-82.0","FD824EFB7F914FB49FE37E05862AC30B","019d6687-fb09-7572-9d51-8f463273c496","019d6630-2071-75cb-8026-6699844a2719","","null","
                <div class=""stimulus-container"">
                    <img src=""images/causal_sequence/package_causal/package_causal_2.png"" class=""exp-image"">
                    <div class=""question-area""></div> 
                </div>","null","","","","","","","","","","","","",""
"","","","","","html-button-response","83","479876","0.0-83.0","FD824EFB7F914FB49FE37E05862AC30B","019d6687-fb09-7572-9d51-8f463273c496","019d6630-2071-75cb-8026-6699844a2719","","404","
                <div class=""stimulus-container"">
                    <img src=""images/causal_sequence/package_causal/package_causal_2.png"" class=""exp-image"">
                    <div class=""question-area"">
                        <p style=""font-size: 20px; font-weight: bold; margin: 0;"">Is there a person in this image?</p>
                    </div>
                </div>","0","main_experiment_trial","2","package_causal","causal_sequence","chronological","","","","","","","",""
"","","","","","html-keyboard-response","84","484884","0.0-84.0","FD824EFB7F914FB49FE37E05862AC30B","019d6687-fb09-7572-9d51-8f463273c496","019d6630-2071-75cb-8026-6699844a2719","","null","
                <div class=""stimulus-container"">
                    <img src=""images/causal_sequence/package_causal/package_causal_3.png"" class=""exp-image"">
                    <div class=""question-area""></div> 
                </div>","null","","","","","","","","","","","","",""
"","","","","","html-button-response","85","486410","0.0-85.0","FD824EFB7F914FB49FE37E05862AC30B","019d6687-fb09-7572-9d51-8f463273c496","019d6630-2071-75cb-8026-6699844a2719","","1525","
                <div class=""stimulus-container"">
                    <img src=""images/causal_sequence/package_causal/package_causal_3.png"" class=""exp-image"">
                    <div class=""question-area"">
                        <p style=""font-size: 20px; font-weight: bold; margin: 0;"">Is there a person in this image?</p>
                    </div>
                </div>","0","main_experiment_trial","3","package_causal","causal_sequence","chronological","","","","","","","",""
"","","","","","html-keyboard-response","86","491413","0.0-86.0","FD824EFB7F914FB49FE37E05862AC30B","019d6687-fb09-7572-9d51-8f463273c496","019d6630-2071-75cb-8026-6699844a2719","","null","
                <div class=""stimulus-container"">
                    <img src=""images/causal_sequence/package_causal/package_causal_4.png"" class=""exp-image"">
                    <div class=""question-area""></div> 
                </div>","null","","","","","","","","","","","","",""
"","","","","","html-button-response","87","491818","0.0-87.0","FD824EFB7F914FB49FE37E05862AC30B","019d6687-fb09-7572-9d51-8f463273c496","019d6630-2071-75cb-8026-6699844a2719","","403","
                <div class=""stimulus-container"">
                    <img src=""images/causal_sequence/package_causal/package_causal_4.png"" class=""exp-image"">
                    <div class=""question-area"">
                        <p style=""font-size: 20px; font-weight: bold; margin: 0;"">Is there a person in this image?</p>
                    </div>
                </div>","1","main_experiment_trial","4","package_causal","causal_sequence","chronological","","","","","","","",""
"","","","","","html-keyboard-response","88","496829","0.0-88.0","FD824EFB7F914FB49FE37E05862AC30B","019d6687-fb09-7572-9d51-8f463273c496","019d6630-2071-75cb-8026-6699844a2719","","null","
                <div class=""stimulus-container"">
                    <img src=""images/causal_sequence/package_causal/package_causal_5.png"" class=""exp-image"">
                    <div class=""question-area""></div> 
                </div>","null","","","","","","","","","","","","",""
"","","","","","html-button-response","89","497552","0.0-89.0","FD824EFB7F914FB49FE37E05862AC30B","019d6687-fb09-7572-9d51-8f463273c496","019d6630-2071-75cb-8026-6699844a2719","","722","
                <div class=""stimulus-container"">
                    <img src=""images/causal_sequence/package_causal/package_causal_5.png"" class=""exp-image"">
                    <div class=""question-area"">
                        <p style=""font-size: 20px; font-weight: bold; margin: 0;"">Is there a person in this image?</p>
                    </div>
                </div>","0","main_experiment_trial","5","package_causal","causal_sequence","chronological","","","","","","","",""
"","","","","","html-keyboard-response","90","502562","0.0-90.0","FD824EFB7F914FB49FE37E05862AC30B","019d6687-fb09-7572-9d51-8f463273c496","019d6630-2071-75cb-8026-6699844a2719","","null","
                <div class=""stimulus-container"">
                    <img src=""images/causal_sequence/package_causal/package_causal_6.png"" class=""exp-image"">
                    <div class=""question-area""></div> 
                </div>","null","","","","","","","","","","","","",""
"","","","","","html-button-response","91","503078","0.0-91.0","FD824EFB7F914FB49FE37E05862AC30B","019d6687-fb09-7572-9d51-8f463273c496","019d6630-2071-75cb-8026-6699844a2719","","516","
                <div class=""stimulus-container"">
                    <img src=""images/causal_sequence/package_causal/package_causal_6.png"" class=""exp-image"">
                    <div class=""question-area"">
                        <p style=""font-size: 20px; font-weight: bold; margin: 0;"">Is there a person in this image?</p>
                    </div>
                </div>","0","main_experiment_trial","6","package_causal","causal_sequence","chronological","","","","","","","",""
"","","","","","html-keyboard-response","92","508081","0.0-92.0","FD824EFB7F914FB49FE37E05862AC30B","019d6687-fb09-7572-9d51-8f463273c496","019d6630-2071-75cb-8026-6699844a2719","","null","
                <div class=""stimulus-container"">
                    <img src=""images/causal_sequence/package_causal/package_causal_7.png"" class=""exp-image"">
                    <div class=""question-area""></div> 
                </div>","null","","","","","","","","","","","","",""
"","","","","","html-button-response","93","508520","0.0-93.0","FD824EFB7F914FB49FE37E05862AC30B","019d6687-fb09-7572-9d51-8f463273c496","019d6630-2071-75cb-8026-6699844a2719","","438","
                <div class=""stimulus-container"">
                    <img src=""images/causal_sequence/package_causal/package_causal_7.png"" class=""exp-image"">
                    <div class=""question-area"">
                        <p style=""font-size: 20px; font-weight: bold; margin: 0;"">Is there a person in this image?</p>
                    </div>
                </div>","0","main_experiment_trial","7","package_causal","causal_sequence","chronological","","","","","","","",""
"","","","","","html-keyboard-response","94","513533","0.0-94.0","FD824EFB7F914FB49FE37E05862AC30B","019d6687-fb09-7572-9d51-8f463273c496","019d6630-2071-75cb-8026-6699844a2719","","null","
                <div class=""stimulus-container"">
                    <img src=""images/causal_sequence/package_causal/package_causal_8.png"" class=""exp-image"">
                    <div class=""question-area""></div> 
                </div>","null","","","","","","","","","","","","",""
"","","","","","html-button-response","95","514282","0.0-95.0","FD824EFB7F914FB49FE37E05862AC30B","019d6687-fb09-7572-9d51-8f463273c496","019d6630-2071-75cb-8026-6699844a2719","","748","
                <div class=""stimulus-container"">
                    <img src=""images/causal_sequence/package_causal/package_causal_8.png"" class=""exp-image"">
                    <div class=""question-area"">
                        <p style=""font-size: 20px; font-weight: bold; margin: 0;"">Is there a person in this image?</p>
                    </div>
                </div>","0","main_experiment_trial","8","package_causal","causal_sequence","chronological","","","","","","","",""
"","","","","","html-keyboard-response","96","519296","0.0-96.0","FD824EFB7F914FB49FE37E05862AC30B","019d6687-fb09-7572-9d51-8f463273c496","019d6630-2071-75cb-8026-6699844a2719","","null","
                <div class=""stimulus-container"">
                    <img src=""images/causal_sequence/package_causal/package_causal_9.png"" class=""exp-image"">
                    <div class=""question-area""></div> 
                </div>","null","","","","","","","","","","","","",""
"","","","","","html-button-response","97","519852","0.0-97.0","FD824EFB7F914FB49FE37E05862AC30B","019d6687-fb09-7572-9d51-8f463273c496","019d6630-2071-75cb-8026-6699844a2719","","556","
                <div class=""stimulus-container"">
                    <img src=""images/causal_sequence/package_causal/package_causal_9.png"" class=""exp-image"">
                    <div class=""question-area"">
                        <p style=""font-size: 20px; font-weight: bold; margin: 0;"">Is there a person in this image?</p>
                    </div>
                </div>","0","main_experiment_trial","9","package_causal","causal_sequence","chronological","","","","","","","",""
"","","","","","html-keyboard-response","98","524858","0.0-98.0","FD824EFB7F914FB49FE37E05862AC30B","019d6687-fb09-7572-9d51-8f463273c496","019d6630-2071-75cb-8026-6699844a2719","","null","
                <div class=""stimulus-container"">
                    <img src=""images/causal_sequence/package_causal/package_causal_ten.png"" class=""exp-image"">
                    <div class=""question-area""></div> 
                </div>","null","","","","","","","","","","","","",""
"","","","","","html-button-response","99","525759","0.0-99.0","FD824EFB7F914FB49FE37E05862AC30B","019d6687-fb09-7572-9d51-8f463273c496","019d6630-2071-75cb-8026-6699844a2719","","900","
                <div class=""stimulus-container"">
                    <img src=""images/causal_sequence/package_causal/package_causal_ten.png"" class=""exp-image"">
                    <div class=""question-area"">
                        <p style=""font-size: 20px; font-weight: bold; margin: 0;"">Is there a person in this image?</p>
                    </div>
                </div>","0","main_experiment_trial","ten","package_causal","causal_sequence","chronological","","","","","","","",""
"","","","","","html-keyboard-response","100","530763","0.0-100.0","FD824EFB7F914FB49FE37E05862AC30B","019d6687-fb09-7572-9d51-8f463273c496","019d6630-2071-75cb-8026-6699844a2719","","null","<div style=""background-color: white; width: 100vw; height: 100vh;""></div>","null","","","","","","","","","","","","",""
"","","","","","html-keyboard-response","101","535778","0.0-101.0","FD824EFB7F914FB49FE37E05862AC30B","019d6687-fb09-7572-9d51-8f463273c496","019d6630-2071-75cb-8026-6699844a2719","","null","
                <div class=""stimulus-container"">
                    <img src=""images/causal_sequence/coin_causal/coin_causal_1.png"" class=""exp-image"">
                    <div class=""question-area""></div> 
                </div>","null","","","","","","","","","","","","",""
"","","","","","html-button-response","102","536976","0.0-102.0","FD824EFB7F914FB49FE37E05862AC30B","019d6687-fb09-7572-9d51-8f463273c496","019d6630-2071-75cb-8026-6699844a2719","","1197","
                <div class=""stimulus-container"">
                    <img src=""images/causal_sequence/coin_causal/coin_causal_1.png"" class=""exp-image"">
                    <div class=""question-area"">
                        <p style=""font-size: 20px; font-weight: bold; margin: 0;"">Is there a person in this image?</p>
                    </div>
                </div>","0","main_experiment_trial","1","coin_causal","causal_sequence","chronological","","","","","","","",""
"","","","","","html-keyboard-response","103","541978","0.0-103.0","FD824EFB7F914FB49FE37E05862AC30B","019d6687-fb09-7572-9d51-8f463273c496","019d6630-2071-75cb-8026-6699844a2719","","null","
                <div class=""stimulus-container"">
                    <img src=""images/causal_sequence/coin_causal/coin_causal_2.png"" class=""exp-image"">
                    <div class=""question-area""></div> 
                </div>","null","","","","","","","","","","","","",""
"","","","","","html-button-response","104","542428","0.0-104.0","FD824EFB7F914FB49FE37E05862AC30B","019d6687-fb09-7572-9d51-8f463273c496","019d6630-2071-75cb-8026-6699844a2719","","449","
                <div class=""stimulus-container"">
                    <img src=""images/causal_sequence/coin_causal/coin_causal_2.png"" class=""exp-image"">
                    <div class=""question-area"">
                        <p style=""font-size: 20px; font-weight: bold; margin: 0;"">Is there a person in this image?</p>
                    </div>
                </div>","0","main_experiment_trial","2","coin_causal","causal_sequence","chronological","","","","","","","",""
"","","","","","html-keyboard-response","105","547443","0.0-105.0","FD824EFB7F914FB49FE37E05862AC30B","019d6687-fb09-7572-9d51-8f463273c496","019d6630-2071-75cb-8026-6699844a2719","","null","
                <div class=""stimulus-container"">
                    <img src=""images/causal_sequence/coin_causal/coin_causal_3.png"" class=""exp-image"">
                    <div class=""question-area""></div> 
                </div>","null","","","","","","","","","","","","",""
"","","","","","html-button-response","106","548056","0.0-106.0","FD824EFB7F914FB49FE37E05862AC30B","019d6687-fb09-7572-9d51-8f463273c496","019d6630-2071-75cb-8026-6699844a2719","","613","
                <div class=""stimulus-container"">
                    <img src=""images/causal_sequence/coin_causal/coin_causal_3.png"" class=""exp-image"">
                    <div class=""question-area"">
                        <p style=""font-size: 20px; font-weight: bold; margin: 0;"">Is there a person in this image?</p>
                    </div>
                </div>","0","main_experiment_trial","3","coin_causal","causal_sequence","chronological","","","","","","","",""
"","","","","","html-keyboard-response","107","553063","0.0-107.0","FD824EFB7F914FB49FE37E05862AC30B","019d6687-fb09-7572-9d51-8f463273c496","019d6630-2071-75cb-8026-6699844a2719","","null","
                <div class=""stimulus-container"">
                    <img src=""images/causal_sequence/coin_causal/coin_causal_4.png"" class=""exp-image"">
                    <div class=""question-area""></div> 
                </div>","null","","","","","","","","","","","","",""
"","","","","","html-button-response","108","553600","0.0-108.0","FD824EFB7F914FB49FE37E05862AC30B","019d6687-fb09-7572-9d51-8f463273c496","019d6630-2071-75cb-8026-6699844a2719","","536","
                <div class=""stimulus-container"">
                    <img src=""images/causal_sequence/coin_causal/coin_causal_4.png"" class=""exp-image"">
                    <div class=""question-area"">
                        <p style=""font-size: 20px; font-weight: bold; margin: 0;"">Is there a person in this image?</p>
                    </div>
                </div>","0","main_experiment_trial","4","coin_causal","causal_sequence","chronological","","","","","","","",""
"","","","","","html-keyboard-response","109","558606","0.0-109.0","FD824EFB7F914FB49FE37E05862AC30B","019d6687-fb09-7572-9d51-8f463273c496","019d6630-2071-75cb-8026-6699844a2719","","null","
                <div class=""stimulus-container"">
                    <img src=""images/causal_sequence/coin_causal/coin_causal_5.png"" class=""exp-image"">
                    <div class=""question-area""></div> 
                </div>","null","","","","","","","","","","","","",""
"","","","","","html-button-response","110","558923","0.0-110.0","FD824EFB7F914FB49FE37E05862AC30B","019d6687-fb09-7572-9d51-8f463273c496","019d6630-2071-75cb-8026-6699844a2719","","316","
                <div class=""stimulus-container"">
                    <img src=""images/causal_sequence/coin_causal/coin_causal_5.png"" class=""exp-image"">
                    <div class=""question-area"">
                        <p style=""font-size: 20px; font-weight: bold; margin: 0;"">Is there a person in this image?</p>
                    </div>
                </div>","0","main_experiment_trial","5","coin_causal","causal_sequence","chronological","","","","","","","",""
"","","","","","html-keyboard-response","111","563933","0.0-111.0","FD824EFB7F914FB49FE37E05862AC30B","019d6687-fb09-7572-9d51-8f463273c496","019d6630-2071-75cb-8026-6699844a2719","","null","
                <div class=""stimulus-container"">
                    <img src=""images/causal_sequence/coin_causal/coin_causal_6.png"" class=""exp-image"">
                    <div class=""question-area""></div> 
                </div>","null","","","","","","","","","","","","",""
"","","","","","html-button-response","112","564268","0.0-112.0","FD824EFB7F914FB49FE37E05862AC30B","019d6687-fb09-7572-9d51-8f463273c496","019d6630-2071-75cb-8026-6699844a2719","","334","
                <div class=""stimulus-container"">
                    <img src=""images/causal_sequence/coin_causal/coin_causal_6.png"" class=""exp-image"">
                    <div class=""question-area"">
                        <p style=""font-size: 20px; font-weight: bold; margin: 0;"">Is there a person in this image?</p>
                    </div>
                </div>","0","main_experiment_trial","6","coin_causal","causal_sequence","chronological","","","","","","","",""
"","","","","","html-keyboard-response","113","569282","0.0-113.0","FD824EFB7F914FB49FE37E05862AC30B","019d6687-fb09-7572-9d51-8f463273c496","019d6630-2071-75cb-8026-6699844a2719","","null","
                <div class=""stimulus-container"">
                    <img src=""images/causal_sequence/coin_causal/coin_causal_7.png"" class=""exp-image"">
                    <div class=""question-area""></div> 
                </div>","null","","","","","","","","","","","","",""
"","","","","","html-button-response","114","572294","0.0-114.0","FD824EFB7F914FB49FE37E05862AC30B","019d6687-fb09-7572-9d51-8f463273c496","019d6630-2071-75cb-8026-6699844a2719","","null","
                <div class=""stimulus-container"">
                    <img src=""images/causal_sequence/coin_causal/coin_causal_7.png"" class=""exp-image"">
                    <div class=""question-area"">
                        <p style=""font-size: 20px; font-weight: bold; margin: 0;"">Is there a person in this image?</p>
                    </div>
                </div>","null","main_experiment_trial","7","coin_causal","causal_sequence","chronological","","","","","","","",""
"","","","","","html-keyboard-response","115","577304","0.0-115.0","FD824EFB7F914FB49FE37E05862AC30B","019d6687-fb09-7572-9d51-8f463273c496","019d6630-2071-75cb-8026-6699844a2719","","null","
                <div class=""stimulus-container"">
                    <img src=""images/causal_sequence/coin_causal/coin_causal_8.png"" class=""exp-image"">
                    <div class=""question-area""></div> 
                </div>","null","","","","","","","","","","","","",""
"","","","","","html-button-response","116","578062","0.0-116.0","FD824EFB7F914FB49FE37E05862AC30B","019d6687-fb09-7572-9d51-8f463273c496","019d6630-2071-75cb-8026-6699844a2719","","758","
                <div class=""stimulus-container"">
                    <img src=""images/causal_sequence/coin_causal/coin_causal_8.png"" class=""exp-image"">
                    <div class=""question-area"">
                        <p style=""font-size: 20px; font-weight: bold; margin: 0;"">Is there a person in this image?</p>
                    </div>
                </div>","0","main_experiment_trial","8","coin_causal","causal_sequence","chronological","","","","","","","",""
"","","","","","html-keyboard-response","117","583066","0.0-117.0","FD824EFB7F914FB49FE37E05862AC30B","019d6687-fb09-7572-9d51-8f463273c496","019d6630-2071-75cb-8026-6699844a2719","","null","
                <div class=""stimulus-container"">
                    <img src=""images/causal_sequence/coin_causal/coin_causal_9.png"" class=""exp-image"">
                    <div class=""question-area""></div> 
                </div>","null","","","","","","","","","","","","",""
"","","","","","html-button-response","118","583796","0.0-118.0","FD824EFB7F914FB49FE37E05862AC30B","019d6687-fb09-7572-9d51-8f463273c496","019d6630-2071-75cb-8026-6699844a2719","","728","
                <div class=""stimulus-container"">
                    <img src=""images/causal_sequence/coin_causal/coin_causal_9.png"" class=""exp-image"">
                    <div class=""question-area"">
                        <p style=""font-size: 20px; font-weight: bold; margin: 0;"">Is there a person in this image?</p>
                    </div>
                </div>","0","main_experiment_trial","9","coin_causal","causal_sequence","chronological","","","","","","","",""
"","","","","","html-keyboard-response","119","588812","0.0-119.0","FD824EFB7F914FB49FE37E05862AC30B","019d6687-fb09-7572-9d51-8f463273c496","019d6630-2071-75cb-8026-6699844a2719","","null","
                <div class=""stimulus-container"">
                    <img src=""images/causal_sequence/coin_causal/coin_causal_ten.png"" class=""exp-image"">
                    <div class=""question-area""></div> 
                </div>","null","","","","","","","","","","","","",""
"","","","","","html-button-response","120","589212","0.0-120.0","FD824EFB7F914FB49FE37E05862AC30B","019d6687-fb09-7572-9d51-8f463273c496","019d6630-2071-75cb-8026-6699844a2719","","399","
                <div class=""stimulus-container"">
                    <img src=""images/causal_sequence/coin_causal/coin_causal_ten.png"" class=""exp-image"">
                    <div class=""question-area"">
                        <p style=""font-size: 20px; font-weight: bold; margin: 0;"">Is there a person in this image?</p>
                    </div>
                </div>","0","main_experiment_trial","ten","coin_causal","causal_sequence","chronological","","","","","","","",""
"","","","","","html-keyboard-response","121","594225","0.0-121.0","FD824EFB7F914FB49FE37E05862AC30B","019d6687-fb09-7572-9d51-8f463273c496","019d6630-2071-75cb-8026-6699844a2719","","null","<div style=""background-color: white; width: 100vw; height: 100vh;""></div>","null","","","","","","","","","","","","",""
"","","","","","html-keyboard-response","122","599242","0.0-122.0","FD824EFB7F914FB49FE37E05862AC30B","019d6687-fb09-7572-9d51-8f463273c496","019d6630-2071-75cb-8026-6699844a2719","","null","
                <div class=""stimulus-container"">
                    <img src=""images/schematic_sequence/restaurant_scheme/restaurant_scheme_1.png"" class=""exp-image"">
                    <div class=""question-area""></div> 
                </div>","null","","","","","","","","","","","","",""
"","","","","","html-button-response","123","600186","0.0-123.0","FD824EFB7F914FB49FE37E05862AC30B","019d6687-fb09-7572-9d51-8f463273c496","019d6630-2071-75cb-8026-6699844a2719","","943","
                <div class=""stimulus-container"">
                    <img src=""images/schematic_sequence/restaurant_scheme/restaurant_scheme_1.png"" class=""exp-image"">
                    <div class=""question-area"">
                        <p style=""font-size: 20px; font-weight: bold; margin: 0;"">Is there a person in this image?</p>
                    </div>
                </div>","0","main_experiment_trial","1","restaurant_scheme","schematic_sequence","chronological","","","","","","","",""
"","","","","","html-keyboard-response","124","605188","0.0-124.0","FD824EFB7F914FB49FE37E05862AC30B","019d6687-fb09-7572-9d51-8f463273c496","019d6630-2071-75cb-8026-6699844a2719","","null","
                <div class=""stimulus-container"">
                    <img src=""images/schematic_sequence/restaurant_scheme/restaurant_scheme_2.png"" class=""exp-image"">
                    <div class=""question-area""></div> 
                </div>","null","","","","","","","","","","","","",""
"","","","","","html-button-response","125","605718","0.0-125.0","FD824EFB7F914FB49FE37E05862AC30B","019d6687-fb09-7572-9d51-8f463273c496","019d6630-2071-75cb-8026-6699844a2719","","529","
                <div class=""stimulus-container"">
                    <img src=""images/schematic_sequence/restaurant_scheme/restaurant_scheme_2.png"" class=""exp-image"">
                    <div class=""question-area"">
                        <p style=""font-size: 20px; font-weight: bold; margin: 0;"">Is there a person in this image?</p>
                    </div>
                </div>","1","main_experiment_trial","2","restaurant_scheme","schematic_sequence","chronological","","","","","","","",""
"","","","","","html-keyboard-response","126","610722","0.0-126.0","FD824EFB7F914FB49FE37E05862AC30B","019d6687-fb09-7572-9d51-8f463273c496","019d6630-2071-75cb-8026-6699844a2719","","null","
                <div class=""stimulus-container"">
                    <img src=""images/schematic_sequence/restaurant_scheme/restaurant_scheme_3.png"" class=""exp-image"">
                    <div class=""question-area""></div> 
                </div>","null","","","","","","","","","","","","",""
"","","","","","html-button-response","127","611190","0.0-127.0","FD824EFB7F914FB49FE37E05862AC30B","019d6687-fb09-7572-9d51-8f463273c496","019d6630-2071-75cb-8026-6699844a2719","","467","
                <div class=""stimulus-container"">
                    <img src=""images/schematic_sequence/restaurant_scheme/restaurant_scheme_3.png"" class=""exp-image"">
                    <div class=""question-area"">
                        <p style=""font-size: 20px; font-weight: bold; margin: 0;"">Is there a person in this image?</p>
                    </div>
                </div>","1","main_experiment_trial","3","restaurant_scheme","schematic_sequence","chronological","","","","","","","",""
"","","","","","html-keyboard-response","128","616193","0.0-128.0","FD824EFB7F914FB49FE37E05862AC30B","019d6687-fb09-7572-9d51-8f463273c496","019d6630-2071-75cb-8026-6699844a2719","","null","
                <div class=""stimulus-container"">
                    <img src=""images/schematic_sequence/restaurant_scheme/restaurant_scheme_4.png"" class=""exp-image"">
                    <div class=""question-area""></div> 
                </div>","null","","","","","","","","","","","","",""
"","","","","","html-button-response","129","616562","0.0-129.0","FD824EFB7F914FB49FE37E05862AC30B","019d6687-fb09-7572-9d51-8f463273c496","019d6630-2071-75cb-8026-6699844a2719","","368","
                <div class=""stimulus-container"">
                    <img src=""images/schematic_sequence/restaurant_scheme/restaurant_scheme_4.png"" class=""exp-image"">
                    <div class=""question-area"">
                        <p style=""font-size: 20px; font-weight: bold; margin: 0;"">Is there a person in this image?</p>
                    </div>
                </div>","0","main_experiment_trial","4","restaurant_scheme","schematic_sequence","chronological","","","","","","","",""
"","","","","","html-keyboard-response","130","621575","0.0-130.0","FD824EFB7F914FB49FE37E05862AC30B","019d6687-fb09-7572-9d51-8f463273c496","019d6630-2071-75cb-8026-6699844a2719","","null","
                <div class=""stimulus-container"">
                    <img src=""images/schematic_sequence/restaurant_scheme/restaurant_scheme_5.png"" class=""exp-image"">
                    <div class=""question-area""></div> 
                </div>","null","","","","","","","","","","","","",""
"","","","","","html-button-response","131","621956","0.0-131.0","FD824EFB7F914FB49FE37E05862AC30B","019d6687-fb09-7572-9d51-8f463273c496","019d6630-2071-75cb-8026-6699844a2719","","380","
                <div class=""stimulus-container"">
                    <img src=""images/schematic_sequence/restaurant_scheme/restaurant_scheme_5.png"" class=""exp-image"">
                    <div class=""question-area"">
                        <p style=""font-size: 20px; font-weight: bold; margin: 0;"">Is there a person in this image?</p>
                    </div>
                </div>","0","main_experiment_trial","5","restaurant_scheme","schematic_sequence","chronological","","","","","","","",""
"","","","","","html-keyboard-response","132","626960","0.0-132.0","FD824EFB7F914FB49FE37E05862AC30B","019d6687-fb09-7572-9d51-8f463273c496","019d6630-2071-75cb-8026-6699844a2719","","null","
                <div class=""stimulus-container"">
                    <img src=""images/schematic_sequence/restaurant_scheme/restaurant_scheme_6.png"" class=""exp-image"">
                    <div class=""question-area""></div> 
                </div>","null","","","","","","","","","","","","",""
"","","","","","html-button-response","133","627360","0.0-133.0","FD824EFB7F914FB49FE37E05862AC30B","019d6687-fb09-7572-9d51-8f463273c496","019d6630-2071-75cb-8026-6699844a2719","","399","
                <div class=""stimulus-container"">
                    <img src=""images/schematic_sequence/restaurant_scheme/restaurant_scheme_6.png"" class=""exp-image"">
                    <div class=""question-area"">
                        <p style=""font-size: 20px; font-weight: bold; margin: 0;"">Is there a person in this image?</p>
                    </div>
                </div>","1","main_experiment_trial","6","restaurant_scheme","schematic_sequence","chronological","","","","","","","",""
"","","","","","html-keyboard-response","134","632371","0.0-134.0","FD824EFB7F914FB49FE37E05862AC30B","019d6687-fb09-7572-9d51-8f463273c496","019d6630-2071-75cb-8026-6699844a2719","","null","
                <div class=""stimulus-container"">
                    <img src=""images/schematic_sequence/restaurant_scheme/restaurant_scheme_7.png"" class=""exp-image"">
                    <div class=""question-area""></div> 
                </div>","null","","","","","","","","","","","","",""
"","","","","","html-button-response","135","632824","0.0-135.0","FD824EFB7F914FB49FE37E05862AC30B","019d6687-fb09-7572-9d51-8f463273c496","019d6630-2071-75cb-8026-6699844a2719","","452","
                <div class=""stimulus-container"">
                    <img src=""images/schematic_sequence/restaurant_scheme/restaurant_scheme_7.png"" class=""exp-image"">
                    <div class=""question-area"">
                        <p style=""font-size: 20px; font-weight: bold; margin: 0;"">Is there a person in this image?</p>
                    </div>
                </div>","1","main_experiment_trial","7","restaurant_scheme","schematic_sequence","chronological","","","","","","","",""
"","","","","","html-keyboard-response","136","637833","0.0-136.0","FD824EFB7F914FB49FE37E05862AC30B","019d6687-fb09-7572-9d51-8f463273c496","019d6630-2071-75cb-8026-6699844a2719","","null","
                <div class=""stimulus-container"">
                    <img src=""images/schematic_sequence/restaurant_scheme/restaurant_scheme_8.png"" class=""exp-image"">
                    <div class=""question-area""></div> 
                </div>","null","","","","","","","","","","","","",""
"","","","","","html-button-response","137","638211","0.0-137.0","FD824EFB7F914FB49FE37E05862AC30B","019d6687-fb09-7572-9d51-8f463273c496","019d6630-2071-75cb-8026-6699844a2719","","377","
                <div class=""stimulus-container"">
                    <img src=""images/schematic_sequence/restaurant_scheme/restaurant_scheme_8.png"" class=""exp-image"">
                    <div class=""question-area"">
                        <p style=""font-size: 20px; font-weight: bold; margin: 0;"">Is there a person in this image?</p>
                    </div>
                </div>","0","main_experiment_trial","8","restaurant_scheme","schematic_sequence","chronological","","","","","","","",""
"","","","","","html-keyboard-response","138","643223","0.0-138.0","FD824EFB7F914FB49FE37E05862AC30B","019d6687-fb09-7572-9d51-8f463273c496","019d6630-2071-75cb-8026-6699844a2719","","null","
                <div class=""stimulus-container"">
                    <img src=""images/schematic_sequence/restaurant_scheme/restaurant_scheme_9.png"" class=""exp-image"">
                    <div class=""question-area""></div> 
                </div>","null","","","","","","","","","","","","",""
"","","","","","html-button-response","139","643732","0.0-139.0","FD824EFB7F914FB49FE37E05862AC30B","019d6687-fb09-7572-9d51-8f463273c496","019d6630-2071-75cb-8026-6699844a2719","","508","
                <div class=""stimulus-container"">
                    <img src=""images/schematic_sequence/restaurant_scheme/restaurant_scheme_9.png"" class=""exp-image"">
                    <div class=""question-area"">
                        <p style=""font-size: 20px; font-weight: bold; margin: 0;"">Is there a person in this image?</p>
                    </div>
                </div>","0","main_experiment_trial","9","restaurant_scheme","schematic_sequence","chronological","","","","","","","",""
"","","","","","html-keyboard-response","140","648738","0.0-140.0","FD824EFB7F914FB49FE37E05862AC30B","019d6687-fb09-7572-9d51-8f463273c496","019d6630-2071-75cb-8026-6699844a2719","","null","
                <div class=""stimulus-container"">
                    <img src=""images/schematic_sequence/restaurant_scheme/restaurant_scheme_ten.png"" class=""exp-image"">
                    <div class=""question-area""></div> 
                </div>","null","","","","","","","","","","","","",""
"","","","","","html-button-response","141","649150","0.0-141.0","FD824EFB7F914FB49FE37E05862AC30B","019d6687-fb09-7572-9d51-8f463273c496","019d6630-2071-75cb-8026-6699844a2719","","411","
                <div class=""stimulus-container"">
                    <img src=""images/schematic_sequence/restaurant_scheme/restaurant_scheme_ten.png"" class=""exp-image"">
                    <div class=""question-area"">
                        <p style=""font-size: 20px; font-weight: bold; margin: 0;"">Is there a person in this image?</p>
                    </div>
                </div>","0","main_experiment_trial","ten","restaurant_scheme","schematic_sequence","chronological","","","","","","","",""
"","","","","","html-keyboard-response","142","654157","0.0-142.0","FD824EFB7F914FB49FE37E05862AC30B","019d6687-fb09-7572-9d51-8f463273c496","019d6630-2071-75cb-8026-6699844a2719","","null","<div style=""background-color: white; width: 100vw; height: 100vh;""></div>","null","","","","","","","","","","","","",""
"","","","","","html-keyboard-response","143","659169","0.0-143.0","FD824EFB7F914FB49FE37E05862AC30B","019d6687-fb09-7572-9d51-8f463273c496","019d6630-2071-75cb-8026-6699844a2719","","null","
                <div class=""stimulus-container"">
                    <img src=""images/schematic_sequence/hotel_scheme/hotel_scheme_1.png"" class=""exp-image"">
                    <div class=""question-area""></div> 
                </div>","null","","","","","","","","","","","","",""
"","","","","","html-button-response","144","659842","0.0-144.0","FD824EFB7F914FB49FE37E05862AC30B","019d6687-fb09-7572-9d51-8f463273c496","019d6630-2071-75cb-8026-6699844a2719","","672","
                <div class=""stimulus-container"">
                    <img src=""images/schematic_sequence/hotel_scheme/hotel_scheme_1.png"" class=""exp-image"">
                    <div class=""question-area"">
                        <p style=""font-size: 20px; font-weight: bold; margin: 0;"">Is there a person in this image?</p>
                    </div>
                </div>","1","main_experiment_trial","1","hotel_scheme","schematic_sequence","chronological","","","","","","","",""
"","","","","","html-keyboard-response","145","664858","0.0-145.0","FD824EFB7F914FB49FE37E05862AC30B","019d6687-fb09-7572-9d51-8f463273c496","019d6630-2071-75cb-8026-6699844a2719","","null","
                <div class=""stimulus-container"">
                    <img src=""images/schematic_sequence/hotel_scheme/hotel_scheme_2.png"" class=""exp-image"">
                    <div class=""question-area""></div> 
                </div>","null","","","","","","","","","","","","",""
"","","","","","html-button-response","146","665360","0.0-146.0","FD824EFB7F914FB49FE37E05862AC30B","019d6687-fb09-7572-9d51-8f463273c496","019d6630-2071-75cb-8026-6699844a2719","","501","
                <div class=""stimulus-container"">
                    <img src=""images/schematic_sequence/hotel_scheme/hotel_scheme_2.png"" class=""exp-image"">
                    <div class=""question-area"">
                        <p style=""font-size: 20px; font-weight: bold; margin: 0;"">Is there a person in this image?</p>
                    </div>
                </div>","0","main_experiment_trial","2","hotel_scheme","schematic_sequence","chronological","","","","","","","",""
"","","","","","html-keyboard-response","147","670375","0.0-147.0","FD824EFB7F914FB49FE37E05862AC30B","019d6687-fb09-7572-9d51-8f463273c496","019d6630-2071-75cb-8026-6699844a2719","","null","
                <div class=""stimulus-container"">
                    <img src=""images/schematic_sequence/hotel_scheme/hotel_scheme_3.png"" class=""exp-image"">
                    <div class=""question-area""></div> 
                </div>","null","","","","","","","","","","","","",""
"","","","","","html-button-response","148","670754","0.0-148.0","FD824EFB7F914FB49FE37E05862AC30B","019d6687-fb09-7572-9d51-8f463273c496","019d6630-2071-75cb-8026-6699844a2719","","378","
                <div class=""stimulus-container"">
                    <img src=""images/schematic_sequence/hotel_scheme/hotel_scheme_3.png"" class=""exp-image"">
                    <div class=""question-area"">
                        <p style=""font-size: 20px; font-weight: bold; margin: 0;"">Is there a person in this image?</p>
                    </div>
                </div>","0","main_experiment_trial","3","hotel_scheme","schematic_sequence","chronological","","","","","","","",""
"","","","","","html-keyboard-response","149","675760","0.0-149.0","FD824EFB7F914FB49FE37E05862AC30B","019d6687-fb09-7572-9d51-8f463273c496","019d6630-2071-75cb-8026-6699844a2719","","null","
                <div class=""stimulus-container"">
                    <img src=""images/schematic_sequence/hotel_scheme/hotel_scheme_4.png"" class=""exp-image"">
                    <div class=""question-area""></div> 
                </div>","null","","","","","","","","","","","","",""
"","","","","","html-button-response","150","676542","0.0-150.0","FD824EFB7F914FB49FE37E05862AC30B","019d6687-fb09-7572-9d51-8f463273c496","019d6630-2071-75cb-8026-6699844a2719","","781","
                <div class=""stimulus-container"">
                    <img src=""images/schematic_sequence/hotel_scheme/hotel_scheme_4.png"" class=""exp-image"">
                    <div class=""question-area"">
                        <p style=""font-size: 20px; font-weight: bold; margin: 0;"">Is there a person in this image?</p>
                    </div>
                </div>","1","main_experiment_trial","4","hotel_scheme","schematic_sequence","chronological","","","","","","","",""
"","","","","","html-keyboard-response","151","681555","0.0-151.0","FD824EFB7F914FB49FE37E05862AC30B","019d6687-fb09-7572-9d51-8f463273c496","019d6630-2071-75cb-8026-6699844a2719","","null","
                <div class=""stimulus-container"">
                    <img src=""images/schematic_sequence/hotel_scheme/hotel_scheme_5.png"" class=""exp-image"">
                    <div class=""question-area""></div> 
                </div>","null","","","","","","","","","","","","",""
"","","","","","html-button-response","152","682118","0.0-152.0","FD824EFB7F914FB49FE37E05862AC30B","019d6687-fb09-7572-9d51-8f463273c496","019d6630-2071-75cb-8026-6699844a2719","","562","
                <div class=""stimulus-container"">
                    <img src=""images/schematic_sequence/hotel_scheme/hotel_scheme_5.png"" class=""exp-image"">
                    <div class=""question-area"">
                        <p style=""font-size: 20px; font-weight: bold; margin: 0;"">Is there a person in this image?</p>
                    </div>
                </div>","0","main_experiment_trial","5","hotel_scheme","schematic_sequence","chronological","","","","","","","",""
"","","","","","html-keyboard-response","153","687128","0.0-153.0","FD824EFB7F914FB49FE37E05862AC30B","019d6687-fb09-7572-9d51-8f463273c496","019d6630-2071-75cb-8026-6699844a2719","","null","
                <div class=""stimulus-container"">
                    <img src=""images/schematic_sequence/hotel_scheme/hotel_scheme_6.png"" class=""exp-image"">
                    <div class=""question-area""></div> 
                </div>","null","","","","","","","","","","","","",""
"","","","","","html-button-response","154","687574","0.0-154.0","FD824EFB7F914FB49FE37E05862AC30B","019d6687-fb09-7572-9d51-8f463273c496","019d6630-2071-75cb-8026-6699844a2719","","445","
                <div class=""stimulus-container"">
                    <img src=""images/schematic_sequence/hotel_scheme/hotel_scheme_6.png"" class=""exp-image"">
                    <div class=""question-area"">
                        <p style=""font-size: 20px; font-weight: bold; margin: 0;"">Is there a person in this image?</p>
                    </div>
                </div>","0","main_experiment_trial","6","hotel_scheme","schematic_sequence","chronological","","","","","","","",""
"","","","","","html-keyboard-response","155","692588","0.0-155.0","FD824EFB7F914FB49FE37E05862AC30B","019d6687-fb09-7572-9d51-8f463273c496","019d6630-2071-75cb-8026-6699844a2719","","null","
                <div class=""stimulus-container"">
                    <img src=""images/schematic_sequence/hotel_scheme/hotel_scheme_7.png"" class=""exp-image"">
                    <div class=""question-area""></div> 
                </div>","null","","","","","","","","","","","","",""
"","","","","","html-button-response","156","692928","0.0-156.0","FD824EFB7F914FB49FE37E05862AC30B","019d6687-fb09-7572-9d51-8f463273c496","019d6630-2071-75cb-8026-6699844a2719","","339","
                <div class=""stimulus-container"">
                    <img src=""images/schematic_sequence/hotel_scheme/hotel_scheme_7.png"" class=""exp-image"">
                    <div class=""question-area"">
                        <p style=""font-size: 20px; font-weight: bold; margin: 0;"">Is there a person in this image?</p>
                    </div>
                </div>","0","main_experiment_trial","7","hotel_scheme","schematic_sequence","chronological","","","","","","","",""
"","","","","","html-keyboard-response","157","697934","0.0-157.0","FD824EFB7F914FB49FE37E05862AC30B","019d6687-fb09-7572-9d51-8f463273c496","019d6630-2071-75cb-8026-6699844a2719","","null","
                <div class=""stimulus-container"">
                    <img src=""images/schematic_sequence/hotel_scheme/hotel_scheme_8.png"" class=""exp-image"">
                    <div class=""question-area""></div> 
                </div>","null","","","","","","","","","","","","",""
"","","","","","html-button-response","158","698464","0.0-158.0","FD824EFB7F914FB49FE37E05862AC30B","019d6687-fb09-7572-9d51-8f463273c496","019d6630-2071-75cb-8026-6699844a2719","","529","
                <div class=""stimulus-container"">
                    <img src=""images/schematic_sequence/hotel_scheme/hotel_scheme_8.png"" class=""exp-image"">
                    <div class=""question-area"">
                        <p style=""font-size: 20px; font-weight: bold; margin: 0;"">Is there a person in this image?</p>
                    </div>
                </div>","0","main_experiment_trial","8","hotel_scheme","schematic_sequence","chronological","","","","","","","",""
"","","","","","html-keyboard-response","159","703465","0.0-159.0","FD824EFB7F914FB49FE37E05862AC30B","019d6687-fb09-7572-9d51-8f463273c496","019d6630-2071-75cb-8026-6699844a2719","","null","
                <div class=""stimulus-container"">
                    <img src=""images/schematic_sequence/hotel_scheme/hotel_scheme_9.png"" class=""exp-image"">
                    <div class=""question-area""></div> 
                </div>","null","","","","","","","","","","","","",""
"","","","","","html-button-response","160","703770","0.0-160.0","FD824EFB7F914FB49FE37E05862AC30B","019d6687-fb09-7572-9d51-8f463273c496","019d6630-2071-75cb-8026-6699844a2719","","304","
                <div class=""stimulus-container"">
                    <img src=""images/schematic_sequence/hotel_scheme/hotel_scheme_9.png"" class=""exp-image"">
                    <div class=""question-area"">
                        <p style=""font-size: 20px; font-weight: bold; margin: 0;"">Is there a person in this image?</p>
                    </div>
                </div>","0","main_experiment_trial","9","hotel_scheme","schematic_sequence","chronological","","","","","","","",""
"","","","","","html-keyboard-response","161","708776","0.0-161.0","FD824EFB7F914FB49FE37E05862AC30B","019d6687-fb09-7572-9d51-8f463273c496","019d6630-2071-75cb-8026-6699844a2719","","null","
                <div class=""stimulus-container"">
                    <img src=""images/schematic_sequence/hotel_scheme/hotel_scheme_ten.png"" class=""exp-image"">
                    <div class=""question-area""></div> 
                </div>","null","","","","","","","","","","","","",""
"","","","","","html-button-response","162","709146","0.0-162.0","FD824EFB7F914FB49FE37E05862AC30B","019d6687-fb09-7572-9d51-8f463273c496","019d6630-2071-75cb-8026-6699844a2719","","369","
                <div class=""stimulus-container"">
                    <img src=""images/schematic_sequence/hotel_scheme/hotel_scheme_ten.png"" class=""exp-image"">
                    <div class=""question-area"">
                        <p style=""font-size: 20px; font-weight: bold; margin: 0;"">Is there a person in this image?</p>
                    </div>
                </div>","0","main_experiment_trial","ten","hotel_scheme","schematic_sequence","chronological","","","","","","","",""
"","","","","","html-keyboard-response","163","714162","0.0-163.0","FD824EFB7F914FB49FE37E05862AC30B","019d6687-fb09-7572-9d51-8f463273c496","019d6630-2071-75cb-8026-6699844a2719","","null","<div style=""background-color: white; width: 100vw; height: 100vh;""></div>","null","","","","","","","","","","","","",""
"","","","","","html-keyboard-response","164","719166","0.0-164.0","FD824EFB7F914FB49FE37E05862AC30B","019d6687-fb09-7572-9d51-8f463273c496","019d6630-2071-75cb-8026-6699844a2719","","null","
                <div class=""stimulus-container"">
                    <img src=""images/causal_sequence/museum_causal/museum_causal_1.png"" class=""exp-image"">
                    <div class=""question-area""></div> 
                </div>","null","","","","","","","","","","","","",""
"","","","","","html-button-response","165","719664","0.0-165.0","FD824EFB7F914FB49FE37E05862AC30B","019d6687-fb09-7572-9d51-8f463273c496","019d6630-2071-75cb-8026-6699844a2719","","497","
                <div class=""stimulus-container"">
                    <img src=""images/causal_sequence/museum_causal/museum_causal_1.png"" class=""exp-image"">
                    <div class=""question-area"">
                        <p style=""font-size: 20px; font-weight: bold; margin: 0;"">Is there a person in this image?</p>
                    </div>
                </div>","0","main_experiment_trial","1","museum_causal","causal_sequence","chronological","","","","","","","",""
"","","","","","html-keyboard-response","166","724672","0.0-166.0","FD824EFB7F914FB49FE37E05862AC30B","019d6687-fb09-7572-9d51-8f463273c496","019d6630-2071-75cb-8026-6699844a2719","","null","
                <div class=""stimulus-container"">
                    <img src=""images/causal_sequence/museum_causal/museum_causal_2.png"" class=""exp-image"">
                    <div class=""question-area""></div> 
                </div>","null","","","","","","","","","","","","",""
"","","","","","html-button-response","167","725185","0.0-167.0","FD824EFB7F914FB49FE37E05862AC30B","019d6687-fb09-7572-9d51-8f463273c496","019d6630-2071-75cb-8026-6699844a2719","","511","
                <div class=""stimulus-container"">
                    <img src=""images/causal_sequence/museum_causal/museum_causal_2.png"" class=""exp-image"">
                    <div class=""question-area"">
                        <p style=""font-size: 20px; font-weight: bold; margin: 0;"">Is there a person in this image?</p>
                    </div>
                </div>","0","main_experiment_trial","2","museum_causal","causal_sequence","chronological","","","","","","","",""
"","","","","","html-keyboard-response","168","730188","0.0-168.0","FD824EFB7F914FB49FE37E05862AC30B","019d6687-fb09-7572-9d51-8f463273c496","019d6630-2071-75cb-8026-6699844a2719","","null","
                <div class=""stimulus-container"">
                    <img src=""images/causal_sequence/museum_causal/museum_causal_3.png"" class=""exp-image"">
                    <div class=""question-area""></div> 
                </div>","null","","","","","","","","","","","","",""
"","","","","","html-button-response","169","730828","0.0-169.0","FD824EFB7F914FB49FE37E05862AC30B","019d6687-fb09-7572-9d51-8f463273c496","019d6630-2071-75cb-8026-6699844a2719","","639","
                <div class=""stimulus-container"">
                    <img src=""images/causal_sequence/museum_causal/museum_causal_3.png"" class=""exp-image"">
                    <div class=""question-area"">
                        <p style=""font-size: 20px; font-weight: bold; margin: 0;"">Is there a person in this image?</p>
                    </div>
                </div>","0","main_experiment_trial","3","museum_causal","causal_sequence","chronological","","","","","","","",""
"","","","","","html-keyboard-response","170","735835","0.0-170.0","FD824EFB7F914FB49FE37E05862AC30B","019d6687-fb09-7572-9d51-8f463273c496","019d6630-2071-75cb-8026-6699844a2719","","null","
                <div class=""stimulus-container"">
                    <img src=""images/causal_sequence/museum_causal/museum_causal_4.png"" class=""exp-image"">
                    <div class=""question-area""></div> 
                </div>","null","","","","","","","","","","","","",""
"","","","","","html-button-response","171","736434","0.0-171.0","FD824EFB7F914FB49FE37E05862AC30B","019d6687-fb09-7572-9d51-8f463273c496","019d6630-2071-75cb-8026-6699844a2719","","598","
                <div class=""stimulus-container"">
                    <img src=""images/causal_sequence/museum_causal/museum_causal_4.png"" class=""exp-image"">
                    <div class=""question-area"">
                        <p style=""font-size: 20px; font-weight: bold; margin: 0;"">Is there a person in this image?</p>
                    </div>
                </div>","1","main_experiment_trial","4","museum_causal","causal_sequence","chronological","","","","","","","",""
"","","","","","html-keyboard-response","172","741446","0.0-172.0","FD824EFB7F914FB49FE37E05862AC30B","019d6687-fb09-7572-9d51-8f463273c496","019d6630-2071-75cb-8026-6699844a2719","","null","
                <div class=""stimulus-container"">
                    <img src=""images/causal_sequence/museum_causal/museum_causal_5.png"" class=""exp-image"">
                    <div class=""question-area""></div> 
                </div>","null","","","","","","","","","","","","",""
"","","","","","html-button-response","173","742032","0.0-173.0","FD824EFB7F914FB49FE37E05862AC30B","019d6687-fb09-7572-9d51-8f463273c496","019d6630-2071-75cb-8026-6699844a2719","","585","
                <div class=""stimulus-container"">
                    <img src=""images/causal_sequence/museum_causal/museum_causal_5.png"" class=""exp-image"">
                    <div class=""question-area"">
                        <p style=""font-size: 20px; font-weight: bold; margin: 0;"">Is there a person in this image?</p>
                    </div>
                </div>","0","main_experiment_trial","5","museum_causal","causal_sequence","chronological","","","","","","","",""
"","","","","","html-keyboard-response","174","747041","0.0-174.0","FD824EFB7F914FB49FE37E05862AC30B","019d6687-fb09-7572-9d51-8f463273c496","019d6630-2071-75cb-8026-6699844a2719","","null","
                <div class=""stimulus-container"">
                    <img src=""images/causal_sequence/museum_causal/museum_causal_6.png"" class=""exp-image"">
                    <div class=""question-area""></div> 
                </div>","null","","","","","","","","","","","","",""
"","","","","","html-button-response","175","747424","0.0-175.0","FD824EFB7F914FB49FE37E05862AC30B","019d6687-fb09-7572-9d51-8f463273c496","019d6630-2071-75cb-8026-6699844a2719","","382","
                <div class=""stimulus-container"">
                    <img src=""images/causal_sequence/museum_causal/museum_causal_6.png"" class=""exp-image"">
                    <div class=""question-area"">
                        <p style=""font-size: 20px; font-weight: bold; margin: 0;"">Is there a person in this image?</p>
                    </div>
                </div>","0","main_experiment_trial","6","museum_causal","causal_sequence","chronological","","","","","","","",""
"","","","","","html-keyboard-response","176","752428","0.0-176.0","FD824EFB7F914FB49FE37E05862AC30B","019d6687-fb09-7572-9d51-8f463273c496","019d6630-2071-75cb-8026-6699844a2719","","null","
                <div class=""stimulus-container"">
                    <img src=""images/causal_sequence/museum_causal/museum_causal_7.png"" class=""exp-image"">
                    <div class=""question-area""></div> 
                </div>","null","","","","","","","","","","","","",""
"","","","","","html-button-response","177","752892","0.0-177.0","FD824EFB7F914FB49FE37E05862AC30B","019d6687-fb09-7572-9d51-8f463273c496","019d6630-2071-75cb-8026-6699844a2719","","463","
                <div class=""stimulus-container"">
                    <img src=""images/causal_sequence/museum_causal/museum_causal_7.png"" class=""exp-image"">
                    <div class=""question-area"">
