"success","timeout","failed_images","failed_audio","failed_video","trial_type","trial_index","time_elapsed","internal_node_id","subject_id","study_id","session_id","view_history","rt","stimulus","response","task","image_index","folder","sequence_type","valuable_image_index","reward_type","chosen_image_index","correct_choice"
"true","false","[]","[]","[]","preload","0","7508","0.0-0.0","DD5B9369356C48D69B3DDAEDCF9379A6","019cef95-5cf0-7dcf-b96f-1ab1cca20979","019cef87-c56d-7b55-9135-c5814367ec25","","","","","","","","","","","",""
"","","","","","instructions","1","785320","0.0-1.0","DD5B9369356C48D69B3DDAEDCF9379A6","019cef95-5cf0-7dcf-b96f-1ab1cca20979","019cef87-c56d-7b55-9135-c5814367ec25","[{""page_index"":0,""viewing_time"":777812}]","777812","","","","","","","","","",""
"","","","","","instructions","2","787015","0.0-2.0","DD5B9369356C48D69B3DDAEDCF9379A6","019cef95-5cf0-7dcf-b96f-1ab1cca20979","019cef87-c56d-7b55-9135-c5814367ec25","[{""page_index"":0,""viewing_time"":1694}]","1694","","","","","","","","","",""
"true","","","","","fullscreen","3","791545","0.0-3.0","DD5B9369356C48D69B3DDAEDCF9379A6","019cef95-5cf0-7dcf-b96f-1ab1cca20979","019cef87-c56d-7b55-9135-c5814367ec25","","3522","","","","","","","","","",""
"","","","","","instructions","4","797927","0.0-4.0","DD5B9369356C48D69B3DDAEDCF9379A6","019cef95-5cf0-7dcf-b96f-1ab1cca20979","019cef87-c56d-7b55-9135-c5814367ec25","[{""page_index"":0,""viewing_time"":6382}]","6382","","","","","","","","","",""
"","","","","","instructions","5","802416","0.0-5.0","DD5B9369356C48D69B3DDAEDCF9379A6","019cef95-5cf0-7dcf-b96f-1ab1cca20979","019cef87-c56d-7b55-9135-c5814367ec25","[{""page_index"":0,""viewing_time"":4489}]","4489","","","","","","","","","",""
"","","","","","html-keyboard-response","6","806431","0.0-6.0","DD5B9369356C48D69B3DDAEDCF9379A6","019cef95-5cf0-7dcf-b96f-1ab1cca20979","019cef87-c56d-7b55-9135-c5814367ec25","","null","
                <div class=""stimulus-container"">
                    <img src=""images/instructions/movie_1.png"" class=""exp-image"">
                    <div class=""question-area""></div> 
                </div>","null","","","","","","","",""
"","","","","","html-button-response","7","807916","0.0-7.0","DD5B9369356C48D69B3DDAEDCF9379A6","019cef95-5cf0-7dcf-b96f-1ab1cca20979","019cef87-c56d-7b55-9135-c5814367ec25","","1484","
                <div class=""stimulus-container"">
                    <img src=""images/instructions/movie_1.png"" class=""exp-image"">
                    <div class=""question-area"">
                        <p style=""font-size: 20px; font-weight: bold; margin: 0;"">Was there a person in this image?</p>
                    </div>
                </div>","0","example_question","1","","","","","",""
"","","","","","html-keyboard-response","8","811930","0.0-8.0","DD5B9369356C48D69B3DDAEDCF9379A6","019cef95-5cf0-7dcf-b96f-1ab1cca20979","019cef87-c56d-7b55-9135-c5814367ec25","","null","
                <div class=""stimulus-container"">
                    <img src=""images/instructions/movie_2.png"" class=""exp-image"">
                    <div class=""question-area""></div> 
                </div>","null","","","","","","","",""
"","","","","","html-button-response","9","812721","0.0-9.0","DD5B9369356C48D69B3DDAEDCF9379A6","019cef95-5cf0-7dcf-b96f-1ab1cca20979","019cef87-c56d-7b55-9135-c5814367ec25","","790","
                <div class=""stimulus-container"">
                    <img src=""images/instructions/movie_2.png"" class=""exp-image"">
                    <div class=""question-area"">
                        <p style=""font-size: 20px; font-weight: bold; margin: 0;"">Was there a person in this image?</p>
                    </div>
                </div>","0","example_question","2","","","","","",""
"","","","","","html-keyboard-response","10","816726","0.0-10.0","DD5B9369356C48D69B3DDAEDCF9379A6","019cef95-5cf0-7dcf-b96f-1ab1cca20979","019cef87-c56d-7b55-9135-c5814367ec25","","null","
                <div class=""stimulus-container"">
                    <img src=""images/instructions/movie_3.png"" class=""exp-image"">
                    <div class=""question-area""></div> 
                </div>","null","","","","","","","",""
"","","","","","html-button-response","11","817134","0.0-11.0","DD5B9369356C48D69B3DDAEDCF9379A6","019cef95-5cf0-7dcf-b96f-1ab1cca20979","019cef87-c56d-7b55-9135-c5814367ec25","","407","
                <div class=""stimulus-container"">
                    <img src=""images/instructions/movie_3.png"" class=""exp-image"">
                    <div class=""question-area"">
                        <p style=""font-size: 20px; font-weight: bold; margin: 0;"">Was there a person in this image?</p>
                    </div>
                </div>","0","example_question","3","","","","","",""
"","","","","","html-keyboard-response","12","821148","0.0-12.0","DD5B9369356C48D69B3DDAEDCF9379A6","019cef95-5cf0-7dcf-b96f-1ab1cca20979","019cef87-c56d-7b55-9135-c5814367ec25","","null","
                <div class=""stimulus-container"">
                    <img src=""images/instructions/movie_4.png"" class=""exp-image"">
                    <div class=""question-area""></div> 
                </div>","null","","","","","","","",""
"","","","","","html-button-response","13","821509","0.0-13.0","DD5B9369356C48D69B3DDAEDCF9379A6","019cef95-5cf0-7dcf-b96f-1ab1cca20979","019cef87-c56d-7b55-9135-c5814367ec25","","361","
                <div class=""stimulus-container"">
                    <img src=""images/instructions/movie_4.png"" class=""exp-image"">
                    <div class=""question-area"">
                        <p style=""font-size: 20px; font-weight: bold; margin: 0;"">Was there a person in this image?</p>
                    </div>
                </div>","0","example_question","4","","","","","",""
"","","","","","instructions","14","822608","0.0-14.0","DD5B9369356C48D69B3DDAEDCF9379A6","019cef95-5cf0-7dcf-b96f-1ab1cca20979","019cef87-c56d-7b55-9135-c5814367ec25","[{""page_index"":0,""viewing_time"":1099}]","1099","","","","","","","","","",""
"","","","","","instructions","15","826564","0.0-15.0","DD5B9369356C48D69B3DDAEDCF9379A6","019cef95-5cf0-7dcf-b96f-1ab1cca20979","019cef87-c56d-7b55-9135-c5814367ec25","[{""page_index"":0,""viewing_time"":3955}]","3956","","","","","","","","","",""
"","","","","","html-keyboard-response","16","827571","0.0-16.0","DD5B9369356C48D69B3DDAEDCF9379A6","019cef95-5cf0-7dcf-b96f-1ab1cca20979","019cef87-c56d-7b55-9135-c5814367ec25","","null","<div style=""background-color: white; width: 100vw; height: 100vh;""></div>","null","","","","","","","",""
"","","","","","html-keyboard-response","17","832572","0.0-17.0","DD5B9369356C48D69B3DDAEDCF9379A6","019cef95-5cf0-7dcf-b96f-1ab1cca20979","019cef87-c56d-7b55-9135-c5814367ec25","","null","
                <div class=""stimulus-container"">
                    <img src=""images/schematic_sequence/interview_scheme/interview_scheme_1.png"" class=""exp-image"">
                    <div class=""question-area""></div> 
                </div>","null","","","","","","","",""
"","","","","","html-button-response","18","833048","0.0-18.0","DD5B9369356C48D69B3DDAEDCF9379A6","019cef95-5cf0-7dcf-b96f-1ab1cca20979","019cef87-c56d-7b55-9135-c5814367ec25","","475","
                <div class=""stimulus-container"">
                    <img src=""images/schematic_sequence/interview_scheme/interview_scheme_1.png"" class=""exp-image"">
                    <div class=""question-area"">
                        <p style=""font-size: 20px; font-weight: bold; margin: 0;"">Is there a person in this image?</p>
                    </div>
                </div>","1","main_experiment_trial","1","interview_scheme","schematic_sequence","","","",""
"","","","","","html-keyboard-response","19","838049","0.0-19.0","DD5B9369356C48D69B3DDAEDCF9379A6","019cef95-5cf0-7dcf-b96f-1ab1cca20979","019cef87-c56d-7b55-9135-c5814367ec25","","null","
                <div class=""stimulus-container"">
                    <img src=""images/schematic_sequence/interview_scheme/interview_scheme_2.png"" class=""exp-image"">
                    <div class=""question-area""></div> 
                </div>","null","","","","","","","",""
"","","","","","html-button-response","20","838430","0.0-20.0","DD5B9369356C48D69B3DDAEDCF9379A6","019cef95-5cf0-7dcf-b96f-1ab1cca20979","019cef87-c56d-7b55-9135-c5814367ec25","","380","
                <div class=""stimulus-container"">
                    <img src=""images/schematic_sequence/interview_scheme/interview_scheme_2.png"" class=""exp-image"">
                    <div class=""question-area"">
                        <p style=""font-size: 20px; font-weight: bold; margin: 0;"">Is there a person in this image?</p>
                    </div>
                </div>","1","main_experiment_trial","2","interview_scheme","schematic_sequence","","","",""
"","","","","","html-keyboard-response","21","843431","0.0-21.0","DD5B9369356C48D69B3DDAEDCF9379A6","019cef95-5cf0-7dcf-b96f-1ab1cca20979","019cef87-c56d-7b55-9135-c5814367ec25","","null","
                <div class=""stimulus-container"">
                    <img src=""images/schematic_sequence/interview_scheme/interview_scheme_3.png"" class=""exp-image"">
                    <div class=""question-area""></div> 
                </div>","null","","","","","","","",""
"","","","","","html-button-response","22","843914","0.0-22.0","DD5B9369356C48D69B3DDAEDCF9379A6","019cef95-5cf0-7dcf-b96f-1ab1cca20979","019cef87-c56d-7b55-9135-c5814367ec25","","483","
                <div class=""stimulus-container"">
                    <img src=""images/schematic_sequence/interview_scheme/interview_scheme_3.png"" class=""exp-image"">
                    <div class=""question-area"">
                        <p style=""font-size: 20px; font-weight: bold; margin: 0;"">Is there a person in this image?</p>
                    </div>
                </div>","1","main_experiment_trial","3","interview_scheme","schematic_sequence","","","",""
"","","","","","html-keyboard-response","23","848915","0.0-23.0","DD5B9369356C48D69B3DDAEDCF9379A6","019cef95-5cf0-7dcf-b96f-1ab1cca20979","019cef87-c56d-7b55-9135-c5814367ec25","","null","
                <div class=""stimulus-container"">
                    <img src=""images/schematic_sequence/interview_scheme/interview_scheme_4.png"" class=""exp-image"">
                    <div class=""question-area""></div> 
                </div>","null","","","","","","","",""
"","","","","","html-button-response","24","849466","0.0-24.0","DD5B9369356C48D69B3DDAEDCF9379A6","019cef95-5cf0-7dcf-b96f-1ab1cca20979","019cef87-c56d-7b55-9135-c5814367ec25","","550","
                <div class=""stimulus-container"">
                    <img src=""images/schematic_sequence/interview_scheme/interview_scheme_4.png"" class=""exp-image"">
                    <div class=""question-area"">
                        <p style=""font-size: 20px; font-weight: bold; margin: 0;"">Is there a person in this image?</p>
                    </div>
                </div>","1","main_experiment_trial","4","interview_scheme","schematic_sequence","","","",""
"","","","","","html-keyboard-response","25","854477","0.0-25.0","DD5B9369356C48D69B3DDAEDCF9379A6","019cef95-5cf0-7dcf-b96f-1ab1cca20979","019cef87-c56d-7b55-9135-c5814367ec25","","null","
                <div class=""stimulus-container"">
                    <img src=""images/schematic_sequence/interview_scheme/interview_scheme_5.png"" class=""exp-image"">
                    <div class=""question-area""></div> 
                </div>","null","","","","","","","",""
"","","","","","html-button-response","26","854973","0.0-26.0","DD5B9369356C48D69B3DDAEDCF9379A6","019cef95-5cf0-7dcf-b96f-1ab1cca20979","019cef87-c56d-7b55-9135-c5814367ec25","","495","
                <div class=""stimulus-container"">
                    <img src=""images/schematic_sequence/interview_scheme/interview_scheme_5.png"" class=""exp-image"">
                    <div class=""question-area"">
                        <p style=""font-size: 20px; font-weight: bold; margin: 0;"">Is there a person in this image?</p>
                    </div>
                </div>","0","main_experiment_trial","5","interview_scheme","schematic_sequence","","","",""
"","","","","","html-keyboard-response","27","859981","0.0-27.0","DD5B9369356C48D69B3DDAEDCF9379A6","019cef95-5cf0-7dcf-b96f-1ab1cca20979","019cef87-c56d-7b55-9135-c5814367ec25","","null","
                <div class=""stimulus-container"">
                    <img src=""images/schematic_sequence/interview_scheme/interview_scheme_6.png"" class=""exp-image"">
                    <div class=""question-area""></div> 
                </div>","null","","","","","","","",""
"","","","","","html-button-response","28","860496","0.0-28.0","DD5B9369356C48D69B3DDAEDCF9379A6","019cef95-5cf0-7dcf-b96f-1ab1cca20979","019cef87-c56d-7b55-9135-c5814367ec25","","514","
                <div class=""stimulus-container"">
                    <img src=""images/schematic_sequence/interview_scheme/interview_scheme_6.png"" class=""exp-image"">
                    <div class=""question-area"">
                        <p style=""font-size: 20px; font-weight: bold; margin: 0;"">Is there a person in this image?</p>
                    </div>
                </div>","0","main_experiment_trial","6","interview_scheme","schematic_sequence","","","",""
"","","","","","html-keyboard-response","29","865506","0.0-29.0","DD5B9369356C48D69B3DDAEDCF9379A6","019cef95-5cf0-7dcf-b96f-1ab1cca20979","019cef87-c56d-7b55-9135-c5814367ec25","","null","
                <div class=""stimulus-container"">
                    <img src=""images/schematic_sequence/interview_scheme/interview_scheme_7.png"" class=""exp-image"">
                    <div class=""question-area""></div> 
                </div>","null","","","","","","","",""
"","","","","","html-button-response","30","865916","0.0-30.0","DD5B9369356C48D69B3DDAEDCF9379A6","019cef95-5cf0-7dcf-b96f-1ab1cca20979","019cef87-c56d-7b55-9135-c5814367ec25","","410","
                <div class=""stimulus-container"">
                    <img src=""images/schematic_sequence/interview_scheme/interview_scheme_7.png"" class=""exp-image"">
                    <div class=""question-area"">
                        <p style=""font-size: 20px; font-weight: bold; margin: 0;"">Is there a person in this image?</p>
                    </div>
                </div>","0","main_experiment_trial","7","interview_scheme","schematic_sequence","","","",""
"","","","","","html-keyboard-response","31","870924","0.0-31.0","DD5B9369356C48D69B3DDAEDCF9379A6","019cef95-5cf0-7dcf-b96f-1ab1cca20979","019cef87-c56d-7b55-9135-c5814367ec25","","null","
                <div class=""stimulus-container"">
                    <img src=""images/schematic_sequence/interview_scheme/interview_scheme_8.png"" class=""exp-image"">
                    <div class=""question-area""></div> 
                </div>","null","","","","","","","",""
"","","","","","html-button-response","32","871679","0.0-32.0","DD5B9369356C48D69B3DDAEDCF9379A6","019cef95-5cf0-7dcf-b96f-1ab1cca20979","019cef87-c56d-7b55-9135-c5814367ec25","","755","
                <div class=""stimulus-container"">
                    <img src=""images/schematic_sequence/interview_scheme/interview_scheme_8.png"" class=""exp-image"">
                    <div class=""question-area"">
                        <p style=""font-size: 20px; font-weight: bold; margin: 0;"">Is there a person in this image?</p>
                    </div>
                </div>","0","main_experiment_trial","8","interview_scheme","schematic_sequence","","","",""
"","","","","","html-keyboard-response","33","876696","0.0-33.0","DD5B9369356C48D69B3DDAEDCF9379A6","019cef95-5cf0-7dcf-b96f-1ab1cca20979","019cef87-c56d-7b55-9135-c5814367ec25","","null","
                <div class=""stimulus-container"">
                    <img src=""images/schematic_sequence/interview_scheme/interview_scheme_9.png"" class=""exp-image"">
                    <div class=""question-area""></div> 
                </div>","null","","","","","","","",""
"","","","","","html-button-response","34","877056","0.0-34.0","DD5B9369356C48D69B3DDAEDCF9379A6","019cef95-5cf0-7dcf-b96f-1ab1cca20979","019cef87-c56d-7b55-9135-c5814367ec25","","359","
                <div class=""stimulus-container"">
                    <img src=""images/schematic_sequence/interview_scheme/interview_scheme_9.png"" class=""exp-image"">
                    <div class=""question-area"">
                        <p style=""font-size: 20px; font-weight: bold; margin: 0;"">Is there a person in this image?</p>
                    </div>
                </div>","0","main_experiment_trial","9","interview_scheme","schematic_sequence","","","",""
"","","","","","html-keyboard-response","35","882065","0.0-35.0","DD5B9369356C48D69B3DDAEDCF9379A6","019cef95-5cf0-7dcf-b96f-1ab1cca20979","019cef87-c56d-7b55-9135-c5814367ec25","","null","
                <div class=""stimulus-container"">
                    <img src=""images/schematic_sequence/interview_scheme/interview_scheme_ten.png"" class=""exp-image"">
                    <div class=""question-area""></div> 
                </div>","null","","","","","","","",""
"","","","","","html-button-response","36","882479","0.0-36.0","DD5B9369356C48D69B3DDAEDCF9379A6","019cef95-5cf0-7dcf-b96f-1ab1cca20979","019cef87-c56d-7b55-9135-c5814367ec25","","413","
                <div class=""stimulus-container"">
                    <img src=""images/schematic_sequence/interview_scheme/interview_scheme_ten.png"" class=""exp-image"">
                    <div class=""question-area"">
                        <p style=""font-size: 20px; font-weight: bold; margin: 0;"">Is there a person in this image?</p>
                    </div>
                </div>","0","main_experiment_trial","ten","interview_scheme","schematic_sequence","","","",""
"","","","","","html-keyboard-response","37","883489","0.0-37.0","DD5B9369356C48D69B3DDAEDCF9379A6","019cef95-5cf0-7dcf-b96f-1ab1cca20979","019cef87-c56d-7b55-9135-c5814367ec25","","null","<div style=""background-color: white; width: 100vw; height: 100vh;""></div>","null","","","","","","","",""
"","","","","","html-keyboard-response","38","888491","0.0-38.0","DD5B9369356C48D69B3DDAEDCF9379A6","019cef95-5cf0-7dcf-b96f-1ab1cca20979","019cef87-c56d-7b55-9135-c5814367ec25","","null","
                <div class=""stimulus-container"">
                    <img src=""images/causal_sequence/museum_causal/museum_causal_1.png"" class=""exp-image"">
                    <div class=""question-area""></div> 
                </div>","null","","","","","","","",""
"","","","","","html-button-response","39","888964","0.0-39.0","DD5B9369356C48D69B3DDAEDCF9379A6","019cef95-5cf0-7dcf-b96f-1ab1cca20979","019cef87-c56d-7b55-9135-c5814367ec25","","472","
                <div class=""stimulus-container"">
                    <img src=""images/causal_sequence/museum_causal/museum_causal_1.png"" class=""exp-image"">
                    <div class=""question-area"">
                        <p style=""font-size: 20px; font-weight: bold; margin: 0;"">Is there a person in this image?</p>
                    </div>
                </div>","0","main_experiment_trial","1","museum_causal","causal_sequence","","","",""
"","","","","","html-keyboard-response","40","893968","0.0-40.0","DD5B9369356C48D69B3DDAEDCF9379A6","019cef95-5cf0-7dcf-b96f-1ab1cca20979","019cef87-c56d-7b55-9135-c5814367ec25","","null","
                <div class=""stimulus-container"">
                    <img src=""images/causal_sequence/museum_causal/museum_causal_2.png"" class=""exp-image"">
                    <div class=""question-area""></div> 
                </div>","null","","","","","","","",""
"","","","","","html-button-response","41","894785","0.0-41.0","DD5B9369356C48D69B3DDAEDCF9379A6","019cef95-5cf0-7dcf-b96f-1ab1cca20979","019cef87-c56d-7b55-9135-c5814367ec25","","816","
                <div class=""stimulus-container"">
                    <img src=""images/causal_sequence/museum_causal/museum_causal_2.png"" class=""exp-image"">
                    <div class=""question-area"">
                        <p style=""font-size: 20px; font-weight: bold; margin: 0;"">Is there a person in this image?</p>
                    </div>
                </div>","1","main_experiment_trial","2","museum_causal","causal_sequence","","","",""
"","","","","","html-keyboard-response","42","899798","0.0-42.0","DD5B9369356C48D69B3DDAEDCF9379A6","019cef95-5cf0-7dcf-b96f-1ab1cca20979","019cef87-c56d-7b55-9135-c5814367ec25","","null","
                <div class=""stimulus-container"">
                    <img src=""images/causal_sequence/museum_causal/museum_causal_3.png"" class=""exp-image"">
                    <div class=""question-area""></div> 
                </div>","null","","","","","","","",""
"","","","","","html-button-response","43","900705","0.0-43.0","DD5B9369356C48D69B3DDAEDCF9379A6","019cef95-5cf0-7dcf-b96f-1ab1cca20979","019cef87-c56d-7b55-9135-c5814367ec25","","907","
                <div class=""stimulus-container"">
                    <img src=""images/causal_sequence/museum_causal/museum_causal_3.png"" class=""exp-image"">
                    <div class=""question-area"">
                        <p style=""font-size: 20px; font-weight: bold; margin: 0;"">Is there a person in this image?</p>
                    </div>
                </div>","0","main_experiment_trial","3","museum_causal","causal_sequence","","","",""
"","","","","","html-keyboard-response","44","905707","0.0-44.0","DD5B9369356C48D69B3DDAEDCF9379A6","019cef95-5cf0-7dcf-b96f-1ab1cca20979","019cef87-c56d-7b55-9135-c5814367ec25","","null","
                <div class=""stimulus-container"">
                    <img src=""images/causal_sequence/museum_causal/museum_causal_4.png"" class=""exp-image"">
                    <div class=""question-area""></div> 
                </div>","null","","","","","","","",""
"","","","","","html-button-response","45","906207","0.0-45.0","DD5B9369356C48D69B3DDAEDCF9379A6","019cef95-5cf0-7dcf-b96f-1ab1cca20979","019cef87-c56d-7b55-9135-c5814367ec25","","500","
                <div class=""stimulus-container"">
                    <img src=""images/causal_sequence/museum_causal/museum_causal_4.png"" class=""exp-image"">
                    <div class=""question-area"">
                        <p style=""font-size: 20px; font-weight: bold; margin: 0;"">Is there a person in this image?</p>
                    </div>
                </div>","1","main_experiment_trial","4","museum_causal","causal_sequence","","","",""
"","","","","","html-keyboard-response","46","911213","0.0-46.0","DD5B9369356C48D69B3DDAEDCF9379A6","019cef95-5cf0-7dcf-b96f-1ab1cca20979","019cef87-c56d-7b55-9135-c5814367ec25","","null","
                <div class=""stimulus-container"">
                    <img src=""images/causal_sequence/museum_causal/museum_causal_5.png"" class=""exp-image"">
                    <div class=""question-area""></div> 
                </div>","null","","","","","","","",""
"","","","","","html-button-response","47","911594","0.0-47.0","DD5B9369356C48D69B3DDAEDCF9379A6","019cef95-5cf0-7dcf-b96f-1ab1cca20979","019cef87-c56d-7b55-9135-c5814367ec25","","381","
                <div class=""stimulus-container"">
                    <img src=""images/causal_sequence/museum_causal/museum_causal_5.png"" class=""exp-image"">
                    <div class=""question-area"">
                        <p style=""font-size: 20px; font-weight: bold; margin: 0;"">Is there a person in this image?</p>
                    </div>
                </div>","0","main_experiment_trial","5","museum_causal","causal_sequence","","","",""
"","","","","","html-keyboard-response","48","916597","0.0-48.0","DD5B9369356C48D69B3DDAEDCF9379A6","019cef95-5cf0-7dcf-b96f-1ab1cca20979","019cef87-c56d-7b55-9135-c5814367ec25","","null","
                <div class=""stimulus-container"">
                    <img src=""images/causal_sequence/museum_causal/museum_causal_6.png"" class=""exp-image"">
                    <div class=""question-area""></div> 
                </div>","null","","","","","","","",""
"","","","","","html-button-response","49","917345","0.0-49.0","DD5B9369356C48D69B3DDAEDCF9379A6","019cef95-5cf0-7dcf-b96f-1ab1cca20979","019cef87-c56d-7b55-9135-c5814367ec25","","748","
                <div class=""stimulus-container"">
                    <img src=""images/causal_sequence/museum_causal/museum_causal_6.png"" class=""exp-image"">
                    <div class=""question-area"">
                        <p style=""font-size: 20px; font-weight: bold; margin: 0;"">Is there a person in this image?</p>
                    </div>
                </div>","0","main_experiment_trial","6","museum_causal","causal_sequence","","","",""
"","","","","","html-keyboard-response","50","922348","0.0-50.0","DD5B9369356C48D69B3DDAEDCF9379A6","019cef95-5cf0-7dcf-b96f-1ab1cca20979","019cef87-c56d-7b55-9135-c5814367ec25","","null","
                <div class=""stimulus-container"">
                    <img src=""images/causal_sequence/museum_causal/museum_causal_7.png"" class=""exp-image"">
                    <div class=""question-area""></div> 
                </div>","null","","","","","","","",""
"","","","","","html-button-response","51","922799","0.0-51.0","DD5B9369356C48D69B3DDAEDCF9379A6","019cef95-5cf0-7dcf-b96f-1ab1cca20979","019cef87-c56d-7b55-9135-c5814367ec25","","451","
                <div class=""stimulus-container"">
                    <img src=""images/causal_sequence/museum_causal/museum_causal_7.png"" class=""exp-image"">
                    <div class=""question-area"">
                        <p style=""font-size: 20px; font-weight: bold; margin: 0;"">Is there a person in this image?</p>
                    </div>
                </div>","1","main_experiment_trial","7","museum_causal","causal_sequence","","","",""
"","","","","","html-keyboard-response","52","927800","0.0-52.0","DD5B9369356C48D69B3DDAEDCF9379A6","019cef95-5cf0-7dcf-b96f-1ab1cca20979","019cef87-c56d-7b55-9135-c5814367ec25","","null","
                <div class=""stimulus-container"">
                    <img src=""images/causal_sequence/museum_causal/museum_causal_8.png"" class=""exp-image"">
                    <div class=""question-area""></div> 
                </div>","null","","","","","","","",""
"","","","","","html-button-response","53","928300","0.0-53.0","DD5B9369356C48D69B3DDAEDCF9379A6","019cef95-5cf0-7dcf-b96f-1ab1cca20979","019cef87-c56d-7b55-9135-c5814367ec25","","500","
                <div class=""stimulus-container"">
                    <img src=""images/causal_sequence/museum_causal/museum_causal_8.png"" class=""exp-image"">
                    <div class=""question-area"">
                        <p style=""font-size: 20px; font-weight: bold; margin: 0;"">Is there a person in this image?</p>
                    </div>
                </div>","0","main_experiment_trial","8","museum_causal","causal_sequence","","","",""
"","","","","","html-keyboard-response","54","933306","0.0-54.0","DD5B9369356C48D69B3DDAEDCF9379A6","019cef95-5cf0-7dcf-b96f-1ab1cca20979","019cef87-c56d-7b55-9135-c5814367ec25","","null","
                <div class=""stimulus-container"">
                    <img src=""images/causal_sequence/museum_causal/museum_causal_9.png"" class=""exp-image"">
                    <div class=""question-area""></div> 
                </div>","null","","","","","","","",""
"","","","","","html-button-response","55","934088","0.0-55.0","DD5B9369356C48D69B3DDAEDCF9379A6","019cef95-5cf0-7dcf-b96f-1ab1cca20979","019cef87-c56d-7b55-9135-c5814367ec25","","781","
                <div class=""stimulus-container"">
                    <img src=""images/causal_sequence/museum_causal/museum_causal_9.png"" class=""exp-image"">
                    <div class=""question-area"">
                        <p style=""font-size: 20px; font-weight: bold; margin: 0;"">Is there a person in this image?</p>
                    </div>
                </div>","1","main_experiment_trial","9","museum_causal","causal_sequence","","","",""
"","","","","","html-keyboard-response","56","939096","0.0-56.0","DD5B9369356C48D69B3DDAEDCF9379A6","019cef95-5cf0-7dcf-b96f-1ab1cca20979","019cef87-c56d-7b55-9135-c5814367ec25","","null","
                <div class=""stimulus-container"">
                    <img src=""images/causal_sequence/museum_causal/museum_causal_ten.png"" class=""exp-image"">
                    <div class=""question-area""></div> 
                </div>","null","","","","","","","",""
"","","","","","html-button-response","57","940048","0.0-57.0","DD5B9369356C48D69B3DDAEDCF9379A6","019cef95-5cf0-7dcf-b96f-1ab1cca20979","019cef87-c56d-7b55-9135-c5814367ec25","","952","
                <div class=""stimulus-container"">
                    <img src=""images/causal_sequence/museum_causal/museum_causal_ten.png"" class=""exp-image"">
                    <div class=""question-area"">
                        <p style=""font-size: 20px; font-weight: bold; margin: 0;"">Is there a person in this image?</p>
                    </div>
                </div>","0","main_experiment_trial","ten","museum_causal","causal_sequence","","","",""
"","","","","","html-keyboard-response","58","941051","0.0-58.0","DD5B9369356C48D69B3DDAEDCF9379A6","019cef95-5cf0-7dcf-b96f-1ab1cca20979","019cef87-c56d-7b55-9135-c5814367ec25","","null","<div style=""background-color: white; width: 100vw; height: 100vh;""></div>","null","","","","","","","",""
"","","","","","html-keyboard-response","59","946051","0.0-59.0","DD5B9369356C48D69B3DDAEDCF9379A6","019cef95-5cf0-7dcf-b96f-1ab1cca20979","019cef87-c56d-7b55-9135-c5814367ec25","","null","
                <div class=""stimulus-container"">
                    <img src=""images/causal_sequence/saving_a_cat_causal/saving_a_cat_causal_1.png"" class=""exp-image"">
                    <div class=""question-area""></div> 
                </div>","null","","","","","","","",""
"","","","","","html-button-response","60","946670","0.0-60.0","DD5B9369356C48D69B3DDAEDCF9379A6","019cef95-5cf0-7dcf-b96f-1ab1cca20979","019cef87-c56d-7b55-9135-c5814367ec25","","618","
                <div class=""stimulus-container"">
                    <img src=""images/causal_sequence/saving_a_cat_causal/saving_a_cat_causal_1.png"" class=""exp-image"">
                    <div class=""question-area"">
                        <p style=""font-size: 20px; font-weight: bold; margin: 0;"">Is there a person in this image?</p>
                    </div>
                </div>","0","main_experiment_trial","1","saving_a_cat_causal","causal_sequence","","","",""
"","","","","","html-keyboard-response","61","951672","0.0-61.0","DD5B9369356C48D69B3DDAEDCF9379A6","019cef95-5cf0-7dcf-b96f-1ab1cca20979","019cef87-c56d-7b55-9135-c5814367ec25","","null","
                <div class=""stimulus-container"">
                    <img src=""images/causal_sequence/saving_a_cat_causal/saving_a_cat_causal_2.png"" class=""exp-image"">
                    <div class=""question-area""></div> 
                </div>","null","","","","","","","",""
"","","","","","html-button-response","62","952455","0.0-62.0","DD5B9369356C48D69B3DDAEDCF9379A6","019cef95-5cf0-7dcf-b96f-1ab1cca20979","019cef87-c56d-7b55-9135-c5814367ec25","","783","
                <div class=""stimulus-container"">
                    <img src=""images/causal_sequence/saving_a_cat_causal/saving_a_cat_causal_2.png"" class=""exp-image"">
                    <div class=""question-area"">
                        <p style=""font-size: 20px; font-weight: bold; margin: 0;"">Is there a person in this image?</p>
                    </div>
                </div>","1","main_experiment_trial","2","saving_a_cat_causal","causal_sequence","","","",""
"","","","","","html-keyboard-response","63","957459","0.0-63.0","DD5B9369356C48D69B3DDAEDCF9379A6","019cef95-5cf0-7dcf-b96f-1ab1cca20979","019cef87-c56d-7b55-9135-c5814367ec25","","null","
                <div class=""stimulus-container"">
                    <img src=""images/causal_sequence/saving_a_cat_causal/saving_a_cat_causal_3.png"" class=""exp-image"">
                    <div class=""question-area""></div> 
                </div>","null","","","","","","","",""
"","","","","","html-button-response","64","958195","0.0-64.0","DD5B9369356C48D69B3DDAEDCF9379A6","019cef95-5cf0-7dcf-b96f-1ab1cca20979","019cef87-c56d-7b55-9135-c5814367ec25","","735","
                <div class=""stimulus-container"">
                    <img src=""images/causal_sequence/saving_a_cat_causal/saving_a_cat_causal_3.png"" class=""exp-image"">
                    <div class=""question-area"">
                        <p style=""font-size: 20px; font-weight: bold; margin: 0;"">Is there a person in this image?</p>
                    </div>
                </div>","1","main_experiment_trial","3","saving_a_cat_causal","causal_sequence","","","",""
"","","","","","html-keyboard-response","65","963199","0.0-65.0","DD5B9369356C48D69B3DDAEDCF9379A6","019cef95-5cf0-7dcf-b96f-1ab1cca20979","019cef87-c56d-7b55-9135-c5814367ec25","","null","
                <div class=""stimulus-container"">
                    <img src=""images/causal_sequence/saving_a_cat_causal/saving_a_cat_causal_4.png"" class=""exp-image"">
                    <div class=""question-area""></div> 
                </div>","null","","","","","","","",""
"","","","","","html-button-response","66","964103","0.0-66.0","DD5B9369356C48D69B3DDAEDCF9379A6","019cef95-5cf0-7dcf-b96f-1ab1cca20979","019cef87-c56d-7b55-9135-c5814367ec25","","904","
                <div class=""stimulus-container"">
                    <img src=""images/causal_sequence/saving_a_cat_causal/saving_a_cat_causal_4.png"" class=""exp-image"">
                    <div class=""question-area"">
                        <p style=""font-size: 20px; font-weight: bold; margin: 0;"">Is there a person in this image?</p>
                    </div>
                </div>","0","main_experiment_trial","4","saving_a_cat_causal","causal_sequence","","","",""
"","","","","","html-keyboard-response","67","969110","0.0-67.0","DD5B9369356C48D69B3DDAEDCF9379A6","019cef95-5cf0-7dcf-b96f-1ab1cca20979","019cef87-c56d-7b55-9135-c5814367ec25","","null","
                <div class=""stimulus-container"">
                    <img src=""images/causal_sequence/saving_a_cat_causal/saving_a_cat_causal_5.png"" class=""exp-image"">
                    <div class=""question-area""></div> 
                </div>","null","","","","","","","",""
"","","","","","html-button-response","68","969825","0.0-68.0","DD5B9369356C48D69B3DDAEDCF9379A6","019cef95-5cf0-7dcf-b96f-1ab1cca20979","019cef87-c56d-7b55-9135-c5814367ec25","","715","
                <div class=""stimulus-container"">
                    <img src=""images/causal_sequence/saving_a_cat_causal/saving_a_cat_causal_5.png"" class=""exp-image"">
                    <div class=""question-area"">
                        <p style=""font-size: 20px; font-weight: bold; margin: 0;"">Is there a person in this image?</p>
                    </div>
                </div>","0","main_experiment_trial","5","saving_a_cat_causal","causal_sequence","","","",""
"","","","","","html-keyboard-response","69","974828","0.0-69.0","DD5B9369356C48D69B3DDAEDCF9379A6","019cef95-5cf0-7dcf-b96f-1ab1cca20979","019cef87-c56d-7b55-9135-c5814367ec25","","null","
                <div class=""stimulus-container"">
                    <img src=""images/causal_sequence/saving_a_cat_causal/saving_a_cat_causal_6.png"" class=""exp-image"">
                    <div class=""question-area""></div> 
                </div>","null","","","","","","","",""
"","","","","","html-button-response","70","976079","0.0-70.0","DD5B9369356C48D69B3DDAEDCF9379A6","019cef95-5cf0-7dcf-b96f-1ab1cca20979","019cef87-c56d-7b55-9135-c5814367ec25","","1251","
                <div class=""stimulus-container"">
                    <img src=""images/causal_sequence/saving_a_cat_causal/saving_a_cat_causal_6.png"" class=""exp-image"">
                    <div class=""question-area"">
                        <p style=""font-size: 20px; font-weight: bold; margin: 0;"">Is there a person in this image?</p>
                    </div>
                </div>","0","main_experiment_trial","6","saving_a_cat_causal","causal_sequence","","","",""
"","","","","","html-keyboard-response","71","981091","0.0-71.0","DD5B9369356C48D69B3DDAEDCF9379A6","019cef95-5cf0-7dcf-b96f-1ab1cca20979","019cef87-c56d-7b55-9135-c5814367ec25","","null","
                <div class=""stimulus-container"">
                    <img src=""images/causal_sequence/saving_a_cat_causal/saving_a_cat_causal_7.png"" class=""exp-image"">
                    <div class=""question-area""></div> 
                </div>","null","","","","","","","",""
"","","","","","html-button-response","72","981875","0.0-72.0","DD5B9369356C48D69B3DDAEDCF9379A6","019cef95-5cf0-7dcf-b96f-1ab1cca20979","019cef87-c56d-7b55-9135-c5814367ec25","","783","
                <div class=""stimulus-container"">
                    <img src=""images/causal_sequence/saving_a_cat_causal/saving_a_cat_causal_7.png"" class=""exp-image"">
                    <div class=""question-area"">
                        <p style=""font-size: 20px; font-weight: bold; margin: 0;"">Is there a person in this image?</p>
                    </div>
                </div>","0","main_experiment_trial","7","saving_a_cat_causal","causal_sequence","","","",""
"","","","","","html-keyboard-response","73","986877","0.0-73.0","DD5B9369356C48D69B3DDAEDCF9379A6","019cef95-5cf0-7dcf-b96f-1ab1cca20979","019cef87-c56d-7b55-9135-c5814367ec25","","null","
                <div class=""stimulus-container"">
                    <img src=""images/causal_sequence/saving_a_cat_causal/saving_a_cat_causal_8.png"" class=""exp-image"">
                    <div class=""question-area""></div> 
                </div>","null","","","","","","","",""
"","","","","","html-button-response","74","987344","0.0-74.0","DD5B9369356C48D69B3DDAEDCF9379A6","019cef95-5cf0-7dcf-b96f-1ab1cca20979","019cef87-c56d-7b55-9135-c5814367ec25","","466","
                <div class=""stimulus-container"">
                    <img src=""images/causal_sequence/saving_a_cat_causal/saving_a_cat_causal_8.png"" class=""exp-image"">
                    <div class=""question-area"">
                        <p style=""font-size: 20px; font-weight: bold; margin: 0;"">Is there a person in this image?</p>
                    </div>
                </div>","0","main_experiment_trial","8","saving_a_cat_causal","causal_sequence","","","",""
"","","","","","html-keyboard-response","75","992345","0.0-75.0","DD5B9369356C48D69B3DDAEDCF9379A6","019cef95-5cf0-7dcf-b96f-1ab1cca20979","019cef87-c56d-7b55-9135-c5814367ec25","","null","
                <div class=""stimulus-container"">
                    <img src=""images/causal_sequence/saving_a_cat_causal/saving_a_cat_causal_9.png"" class=""exp-image"">
                    <div class=""question-area""></div> 
                </div>","null","","","","","","","",""
"","","","","","html-button-response","76","992725","0.0-76.0","DD5B9369356C48D69B3DDAEDCF9379A6","019cef95-5cf0-7dcf-b96f-1ab1cca20979","019cef87-c56d-7b55-9135-c5814367ec25","","379","
                <div class=""stimulus-container"">
                    <img src=""images/causal_sequence/saving_a_cat_causal/saving_a_cat_causal_9.png"" class=""exp-image"">
                    <div class=""question-area"">
                        <p style=""font-size: 20px; font-weight: bold; margin: 0;"">Is there a person in this image?</p>
                    </div>
                </div>","0","main_experiment_trial","9","saving_a_cat_causal","causal_sequence","","","",""
"","","","","","html-keyboard-response","77","997737","0.0-77.0","DD5B9369356C48D69B3DDAEDCF9379A6","019cef95-5cf0-7dcf-b96f-1ab1cca20979","019cef87-c56d-7b55-9135-c5814367ec25","","null","
                <div class=""stimulus-container"">
                    <img src=""images/causal_sequence/saving_a_cat_causal/saving_a_cat_causal_ten.png"" class=""exp-image"">
                    <div class=""question-area""></div> 
                </div>","null","","","","","","","",""
"","","","","","html-button-response","78","998250","0.0-78.0","DD5B9369356C48D69B3DDAEDCF9379A6","019cef95-5cf0-7dcf-b96f-1ab1cca20979","019cef87-c56d-7b55-9135-c5814367ec25","","512","
                <div class=""stimulus-container"">
                    <img src=""images/causal_sequence/saving_a_cat_causal/saving_a_cat_causal_ten.png"" class=""exp-image"">
                    <div class=""question-area"">
                        <p style=""font-size: 20px; font-weight: bold; margin: 0;"">Is there a person in this image?</p>
                    </div>
                </div>","0","main_experiment_trial","ten","saving_a_cat_causal","causal_sequence","","","",""
"","","","","","html-keyboard-response","79","999253","0.0-79.0","DD5B9369356C48D69B3DDAEDCF9379A6","019cef95-5cf0-7dcf-b96f-1ab1cca20979","019cef87-c56d-7b55-9135-c5814367ec25","","null","<div style=""background-color: white; width: 100vw; height: 100vh;""></div>","null","","","","","","","",""
"","","","","","html-keyboard-response","80","1004261","0.0-80.0","DD5B9369356C48D69B3DDAEDCF9379A6","019cef95-5cf0-7dcf-b96f-1ab1cca20979","019cef87-c56d-7b55-9135-c5814367ec25","","null","
                <div class=""stimulus-container"">
                    <img src=""images/causal_sequence/dog_causal/dog_causal_1.png"" class=""exp-image"">
                    <div class=""question-area""></div> 
                </div>","null","","","","","","","",""
"","","","","","html-button-response","81","1004728","0.0-81.0","DD5B9369356C48D69B3DDAEDCF9379A6","019cef95-5cf0-7dcf-b96f-1ab1cca20979","019cef87-c56d-7b55-9135-c5814367ec25","","466","
                <div class=""stimulus-container"">
                    <img src=""images/causal_sequence/dog_causal/dog_causal_1.png"" class=""exp-image"">
                    <div class=""question-area"">
                        <p style=""font-size: 20px; font-weight: bold; margin: 0;"">Is there a person in this image?</p>
                    </div>
                </div>","0","main_experiment_trial","1","dog_causal","causal_sequence","","","",""
"","","","","","html-keyboard-response","82","1009730","0.0-82.0","DD5B9369356C48D69B3DDAEDCF9379A6","019cef95-5cf0-7dcf-b96f-1ab1cca20979","019cef87-c56d-7b55-9135-c5814367ec25","","null","
                <div class=""stimulus-container"">
                    <img src=""images/causal_sequence/dog_causal/dog_causal_2.png"" class=""exp-image"">
                    <div class=""question-area""></div> 
                </div>","null","","","","","","","",""
"","","","","","html-button-response","83","1010152","0.0-83.0","DD5B9369356C48D69B3DDAEDCF9379A6","019cef95-5cf0-7dcf-b96f-1ab1cca20979","019cef87-c56d-7b55-9135-c5814367ec25","","421","
                <div class=""stimulus-container"">
                    <img src=""images/causal_sequence/dog_causal/dog_causal_2.png"" class=""exp-image"">
                    <div class=""question-area"">
                        <p style=""font-size: 20px; font-weight: bold; margin: 0;"">Is there a person in this image?</p>
                    </div>
                </div>","0","main_experiment_trial","2","dog_causal","causal_sequence","","","",""
"","","","","","html-keyboard-response","84","1015156","0.0-84.0","DD5B9369356C48D69B3DDAEDCF9379A6","019cef95-5cf0-7dcf-b96f-1ab1cca20979","019cef87-c56d-7b55-9135-c5814367ec25","","null","
                <div class=""stimulus-container"">
                    <img src=""images/causal_sequence/dog_causal/dog_causal_3.png"" class=""exp-image"">
                    <div class=""question-area""></div> 
                </div>","null","","","","","","","",""
"","","","","","html-button-response","85","1015667","0.0-85.0","DD5B9369356C48D69B3DDAEDCF9379A6","019cef95-5cf0-7dcf-b96f-1ab1cca20979","019cef87-c56d-7b55-9135-c5814367ec25","","511","
                <div class=""stimulus-container"">
                    <img src=""images/causal_sequence/dog_causal/dog_causal_3.png"" class=""exp-image"">
                    <div class=""question-area"">
                        <p style=""font-size: 20px; font-weight: bold; margin: 0;"">Is there a person in this image?</p>
                    </div>
                </div>","0","main_experiment_trial","3","dog_causal","causal_sequence","","","",""
"","","","","","html-keyboard-response","86","1020682","0.0-86.0","DD5B9369356C48D69B3DDAEDCF9379A6","019cef95-5cf0-7dcf-b96f-1ab1cca20979","019cef87-c56d-7b55-9135-c5814367ec25","","null","
                <div class=""stimulus-container"">
                    <img src=""images/causal_sequence/dog_causal/dog_causal_4.png"" class=""exp-image"">
                    <div class=""question-area""></div> 
                </div>","null","","","","","","","",""
"","","","","","html-button-response","87","1021238","0.0-87.0","DD5B9369356C48D69B3DDAEDCF9379A6","019cef95-5cf0-7dcf-b96f-1ab1cca20979","019cef87-c56d-7b55-9135-c5814367ec25","","555","
                <div class=""stimulus-container"">
                    <img src=""images/causal_sequence/dog_causal/dog_causal_4.png"" class=""exp-image"">
                    <div class=""question-area"">
                        <p style=""font-size: 20px; font-weight: bold; margin: 0;"">Is there a person in this image?</p>
                    </div>
                </div>","0","main_experiment_trial","4","dog_causal","causal_sequence","","","",""
"","","","","","html-keyboard-response","88","1026241","0.0-88.0","DD5B9369356C48D69B3DDAEDCF9379A6","019cef95-5cf0-7dcf-b96f-1ab1cca20979","019cef87-c56d-7b55-9135-c5814367ec25","","null","
                <div class=""stimulus-container"">
                    <img src=""images/causal_sequence/dog_causal/dog_causal_5.png"" class=""exp-image"">
                    <div class=""question-area""></div> 
                </div>","null","","","","","","","",""
"","","","","","html-button-response","89","1028159","0.0-89.0","DD5B9369356C48D69B3DDAEDCF9379A6","019cef95-5cf0-7dcf-b96f-1ab1cca20979","019cef87-c56d-7b55-9135-c5814367ec25","","1917","
                <div class=""stimulus-container"">
                    <img src=""images/causal_sequence/dog_causal/dog_causal_5.png"" class=""exp-image"">
                    <div class=""question-area"">
                        <p style=""font-size: 20px; font-weight: bold; margin: 0;"">Is there a person in this image?</p>
                    </div>
                </div>","0","main_experiment_trial","5","dog_causal","causal_sequence","","","",""
"","","","","","html-keyboard-response","90","1033160","0.0-90.0","DD5B9369356C48D69B3DDAEDCF9379A6","019cef95-5cf0-7dcf-b96f-1ab1cca20979","019cef87-c56d-7b55-9135-c5814367ec25","","null","
                <div class=""stimulus-container"">
                    <img src=""images/causal_sequence/dog_causal/dog_causal_6.png"" class=""exp-image"">
                    <div class=""question-area""></div> 
                </div>","null","","","","","","","",""
"","","","","","html-button-response","91","1033524","0.0-91.0","DD5B9369356C48D69B3DDAEDCF9379A6","019cef95-5cf0-7dcf-b96f-1ab1cca20979","019cef87-c56d-7b55-9135-c5814367ec25","","363","
                <div class=""stimulus-container"">
                    <img src=""images/causal_sequence/dog_causal/dog_causal_6.png"" class=""exp-image"">
                    <div class=""question-area"">
                        <p style=""font-size: 20px; font-weight: bold; margin: 0;"">Is there a person in this image?</p>
                    </div>
                </div>","0","main_experiment_trial","6","dog_causal","causal_sequence","","","",""
"","","","","","html-keyboard-response","92","1038528","0.0-92.0","DD5B9369356C48D69B3DDAEDCF9379A6","019cef95-5cf0-7dcf-b96f-1ab1cca20979","019cef87-c56d-7b55-9135-c5814367ec25","","null","
                <div class=""stimulus-container"">
                    <img src=""images/causal_sequence/dog_causal/dog_causal_7.png"" class=""exp-image"">
                    <div class=""question-area""></div> 
                </div>","null","","","","","","","",""
"","","","","","html-button-response","93","1038917","0.0-93.0","DD5B9369356C48D69B3DDAEDCF9379A6","019cef95-5cf0-7dcf-b96f-1ab1cca20979","019cef87-c56d-7b55-9135-c5814367ec25","","389","
                <div class=""stimulus-container"">
                    <img src=""images/causal_sequence/dog_causal/dog_causal_7.png"" class=""exp-image"">
                    <div class=""question-area"">
                        <p style=""font-size: 20px; font-weight: bold; margin: 0;"">Is there a person in this image?</p>
                    </div>
                </div>","0","main_experiment_trial","7","dog_causal","causal_sequence","","","",""
"","","","","","html-keyboard-response","94","1043925","0.0-94.0","DD5B9369356C48D69B3DDAEDCF9379A6","019cef95-5cf0-7dcf-b96f-1ab1cca20979","019cef87-c56d-7b55-9135-c5814367ec25","","null","
                <div class=""stimulus-container"">
                    <img src=""images/causal_sequence/dog_causal/dog_causal_8.png"" class=""exp-image"">
                    <div class=""question-area""></div> 
                </div>","null","","","","","","","",""
"","","","","","html-button-response","95","1044316","0.0-95.0","DD5B9369356C48D69B3DDAEDCF9379A6","019cef95-5cf0-7dcf-b96f-1ab1cca20979","019cef87-c56d-7b55-9135-c5814367ec25","","391","
                <div class=""stimulus-container"">
                    <img src=""images/causal_sequence/dog_causal/dog_causal_8.png"" class=""exp-image"">
                    <div class=""question-area"">
                        <p style=""font-size: 20px; font-weight: bold; margin: 0;"">Is there a person in this image?</p>
                    </div>
                </div>","0","main_experiment_trial","8","dog_causal","causal_sequence","","","",""
"","","","","","html-keyboard-response","96","1049329","0.0-96.0","DD5B9369356C48D69B3DDAEDCF9379A6","019cef95-5cf0-7dcf-b96f-1ab1cca20979","019cef87-c56d-7b55-9135-c5814367ec25","","null","
                <div class=""stimulus-container"">
                    <img src=""images/causal_sequence/dog_causal/dog_causal_9.png"" class=""exp-image"">
                    <div class=""question-area""></div> 
                </div>","null","","","","","","","",""
"","","","","","html-button-response","97","1050026","0.0-97.0","DD5B9369356C48D69B3DDAEDCF9379A6","019cef95-5cf0-7dcf-b96f-1ab1cca20979","019cef87-c56d-7b55-9135-c5814367ec25","","696","
                <div class=""stimulus-container"">
                    <img src=""images/causal_sequence/dog_causal/dog_causal_9.png"" class=""exp-image"">
                    <div class=""question-area"">
                        <p style=""font-size: 20px; font-weight: bold; margin: 0;"">Is there a person in this image?</p>
                    </div>
                </div>","0","main_experiment_trial","9","dog_causal","causal_sequence","","","",""
"","","","","","html-keyboard-response","98","1055038","0.0-98.0","DD5B9369356C48D69B3DDAEDCF9379A6","019cef95-5cf0-7dcf-b96f-1ab1cca20979","019cef87-c56d-7b55-9135-c5814367ec25","","null","
                <div class=""stimulus-container"">
                    <img src=""images/causal_sequence/dog_causal/dog_causal_ten.png"" class=""exp-image"">
                    <div class=""question-area""></div> 
                </div>","null","","","","","","","",""
"","","","","","html-button-response","99","1055395","0.0-99.0","DD5B9369356C48D69B3DDAEDCF9379A6","019cef95-5cf0-7dcf-b96f-1ab1cca20979","019cef87-c56d-7b55-9135-c5814367ec25","","357","
                <div class=""stimulus-container"">
                    <img src=""images/causal_sequence/dog_causal/dog_causal_ten.png"" class=""exp-image"">
                    <div class=""question-area"">
                        <p style=""font-size: 20px; font-weight: bold; margin: 0;"">Is there a person in this image?</p>
                    </div>
                </div>","0","main_experiment_trial","ten","dog_causal","causal_sequence","","","",""
"","","","","","html-keyboard-response","100","1056400","0.0-100.0","DD5B9369356C48D69B3DDAEDCF9379A6","019cef95-5cf0-7dcf-b96f-1ab1cca20979","019cef87-c56d-7b55-9135-c5814367ec25","","null","<div style=""background-color: white; width: 100vw; height: 100vh;""></div>","null","","","","","","","",""
"","","","","","html-keyboard-response","101","1061413","0.0-101.0","DD5B9369356C48D69B3DDAEDCF9379A6","019cef95-5cf0-7dcf-b96f-1ab1cca20979","019cef87-c56d-7b55-9135-c5814367ec25","","null","
                <div class=""stimulus-container"">
                    <img src=""images/schematic_sequence/dinner_party_scheme/dinner_party_scheme_1.png"" class=""exp-image"">
                    <div class=""question-area""></div> 
                </div>","null","","","","","","","",""
"","","","","","html-button-response","102","1061938","0.0-102.0","DD5B9369356C48D69B3DDAEDCF9379A6","019cef95-5cf0-7dcf-b96f-1ab1cca20979","019cef87-c56d-7b55-9135-c5814367ec25","","524","
                <div class=""stimulus-container"">
                    <img src=""images/schematic_sequence/dinner_party_scheme/dinner_party_scheme_1.png"" class=""exp-image"">
                    <div class=""question-area"">
                        <p style=""font-size: 20px; font-weight: bold; margin: 0;"">Is there a person in this image?</p>
                    </div>
                </div>","0","main_experiment_trial","1","dinner_party_scheme","schematic_sequence","","","",""
"","","","","","html-keyboard-response","103","1066940","0.0-103.0","DD5B9369356C48D69B3DDAEDCF9379A6","019cef95-5cf0-7dcf-b96f-1ab1cca20979","019cef87-c56d-7b55-9135-c5814367ec25","","null","
                <div class=""stimulus-container"">
                    <img src=""images/schematic_sequence/dinner_party_scheme/dinner_party_scheme_2.png"" class=""exp-image"">
                    <div class=""question-area""></div> 
                </div>","null","","","","","","","",""
"","","","","","html-button-response","104","1067439","0.0-104.0","DD5B9369356C48D69B3DDAEDCF9379A6","019cef95-5cf0-7dcf-b96f-1ab1cca20979","019cef87-c56d-7b55-9135-c5814367ec25","","498","
                <div class=""stimulus-container"">
                    <img src=""images/schematic_sequence/dinner_party_scheme/dinner_party_scheme_2.png"" class=""exp-image"">
                    <div class=""question-area"">
                        <p style=""font-size: 20px; font-weight: bold; margin: 0;"">Is there a person in this image?</p>
                    </div>
                </div>","0","main_experiment_trial","2","dinner_party_scheme","schematic_sequence","","","",""
"","","","","","html-keyboard-response","105","1072454","0.0-105.0","DD5B9369356C48D69B3DDAEDCF9379A6","019cef95-5cf0-7dcf-b96f-1ab1cca20979","019cef87-c56d-7b55-9135-c5814367ec25","","null","
                <div class=""stimulus-container"">
                    <img src=""images/schematic_sequence/dinner_party_scheme/dinner_party_scheme_3.png"" class=""exp-image"">
                    <div class=""question-area""></div> 
                </div>","null","","","","","","","",""
"","","","","","html-button-response","106","1072862","0.0-106.0","DD5B9369356C48D69B3DDAEDCF9379A6","019cef95-5cf0-7dcf-b96f-1ab1cca20979","019cef87-c56d-7b55-9135-c5814367ec25","","407","
                <div class=""stimulus-container"">
                    <img src=""images/schematic_sequence/dinner_party_scheme/dinner_party_scheme_3.png"" class=""exp-image"">
                    <div class=""question-area"">
                        <p style=""font-size: 20px; font-weight: bold; margin: 0;"">Is there a person in this image?</p>
                    </div>
                </div>","0","main_experiment_trial","3","dinner_party_scheme","schematic_sequence","","","",""
"","","","","","html-keyboard-response","107","1077871","0.0-107.0","DD5B9369356C48D69B3DDAEDCF9379A6","019cef95-5cf0-7dcf-b96f-1ab1cca20979","019cef87-c56d-7b55-9135-c5814367ec25","","null","
                <div class=""stimulus-container"">
                    <img src=""images/schematic_sequence/dinner_party_scheme/dinner_party_scheme_4.png"" class=""exp-image"">
                    <div class=""question-area""></div> 
                </div>","null","","","","","","","",""
"","","","","","html-button-response","108","1078481","0.0-108.0","DD5B9369356C48D69B3DDAEDCF9379A6","019cef95-5cf0-7dcf-b96f-1ab1cca20979","019cef87-c56d-7b55-9135-c5814367ec25","","610","
                <div class=""stimulus-container"">
                    <img src=""images/schematic_sequence/dinner_party_scheme/dinner_party_scheme_4.png"" class=""exp-image"">
                    <div class=""question-area"">
                        <p style=""font-size: 20px; font-weight: bold; margin: 0;"">Is there a person in this image?</p>
                    </div>
                </div>","0","main_experiment_trial","4","dinner_party_scheme","schematic_sequence","","","",""
"","","","","","html-keyboard-response","109","1083489","0.0-109.0","DD5B9369356C48D69B3DDAEDCF9379A6","019cef95-5cf0-7dcf-b96f-1ab1cca20979","019cef87-c56d-7b55-9135-c5814367ec25","","null","
                <div class=""stimulus-container"">
                    <img src=""images/schematic_sequence/dinner_party_scheme/dinner_party_scheme_5.png"" class=""exp-image"">
                    <div class=""question-area""></div> 
                </div>","null","","","","","","","",""
"","","","","","html-button-response","110","1083860","0.0-110.0","DD5B9369356C48D69B3DDAEDCF9379A6","019cef95-5cf0-7dcf-b96f-1ab1cca20979","019cef87-c56d-7b55-9135-c5814367ec25","","370","
                <div class=""stimulus-container"">
                    <img src=""images/schematic_sequence/dinner_party_scheme/dinner_party_scheme_5.png"" class=""exp-image"">
                    <div class=""question-area"">
                        <p style=""font-size: 20px; font-weight: bold; margin: 0;"">Is there a person in this image?</p>
                    </div>
                </div>","0","main_experiment_trial","5","dinner_party_scheme","schematic_sequence","","","",""
"","","","","","html-keyboard-response","111","1088874","0.0-111.0","DD5B9369356C48D69B3DDAEDCF9379A6","019cef95-5cf0-7dcf-b96f-1ab1cca20979","019cef87-c56d-7b55-9135-c5814367ec25","","null","
                <div class=""stimulus-container"">
                    <img src=""images/schematic_sequence/dinner_party_scheme/dinner_party_scheme_6.png"" class=""exp-image"">
                    <div class=""question-area""></div> 
                </div>","null","","","","","","","",""
"","","","","","html-button-response","112","1089497","0.0-112.0","DD5B9369356C48D69B3DDAEDCF9379A6","019cef95-5cf0-7dcf-b96f-1ab1cca20979","019cef87-c56d-7b55-9135-c5814367ec25","","623","
                <div class=""stimulus-container"">
                    <img src=""images/schematic_sequence/dinner_party_scheme/dinner_party_scheme_6.png"" class=""exp-image"">
                    <div class=""question-area"">
                        <p style=""font-size: 20px; font-weight: bold; margin: 0;"">Is there a person in this image?</p>
                    </div>
                </div>","0","main_experiment_trial","6","dinner_party_scheme","schematic_sequence","","","",""
"","","","","","html-keyboard-response","113","1094505","0.0-113.0","DD5B9369356C48D69B3DDAEDCF9379A6","019cef95-5cf0-7dcf-b96f-1ab1cca20979","019cef87-c56d-7b55-9135-c5814367ec25","","null","
                <div class=""stimulus-container"">
                    <img src=""images/schematic_sequence/dinner_party_scheme/dinner_party_scheme_7.png"" class=""exp-image"">
                    <div class=""question-area""></div> 
                </div>","null","","","","","","","",""
"","","","","","html-button-response","114","1095062","0.0-114.0","DD5B9369356C48D69B3DDAEDCF9379A6","019cef95-5cf0-7dcf-b96f-1ab1cca20979","019cef87-c56d-7b55-9135-c5814367ec25","","556","
                <div class=""stimulus-container"">
                    <img src=""images/schematic_sequence/dinner_party_scheme/dinner_party_scheme_7.png"" class=""exp-image"">
                    <div class=""question-area"">
                        <p style=""font-size: 20px; font-weight: bold; margin: 0;"">Is there a person in this image?</p>
                    </div>
                </div>","0","main_experiment_trial","7","dinner_party_scheme","schematic_sequence","","","",""
"","","","","","html-keyboard-response","115","1100074","0.0-115.0","DD5B9369356C48D69B3DDAEDCF9379A6","019cef95-5cf0-7dcf-b96f-1ab1cca20979","019cef87-c56d-7b55-9135-c5814367ec25","","null","
                <div class=""stimulus-container"">
                    <img src=""images/schematic_sequence/dinner_party_scheme/dinner_party_scheme_8.png"" class=""exp-image"">
                    <div class=""question-area""></div> 
                </div>","null","","","","","","","",""
"","","","","","html-button-response","116","1100461","0.0-116.0","DD5B9369356C48D69B3DDAEDCF9379A6","019cef95-5cf0-7dcf-b96f-1ab1cca20979","019cef87-c56d-7b55-9135-c5814367ec25","","387","
                <div class=""stimulus-container"">
                    <img src=""images/schematic_sequence/dinner_party_scheme/dinner_party_scheme_8.png"" class=""exp-image"">
                    <div class=""question-area"">
                        <p style=""font-size: 20px; font-weight: bold; margin: 0;"">Is there a person in this image?</p>
                    </div>
                </div>","0","main_experiment_trial","8","dinner_party_scheme","schematic_sequence","","","",""
"","","","","","html-keyboard-response","117","1105475","0.0-117.0","DD5B9369356C48D69B3DDAEDCF9379A6","019cef95-5cf0-7dcf-b96f-1ab1cca20979","019cef87-c56d-7b55-9135-c5814367ec25","","null","
                <div class=""stimulus-container"">
                    <img src=""images/schematic_sequence/dinner_party_scheme/dinner_party_scheme_9.png"" class=""exp-image"">
                    <div class=""question-area""></div> 
                </div>","null","","","","","","","",""
"","","","","","html-button-response","118","1106050","0.0-118.0","DD5B9369356C48D69B3DDAEDCF9379A6","019cef95-5cf0-7dcf-b96f-1ab1cca20979","019cef87-c56d-7b55-9135-c5814367ec25","","574","
                <div class=""stimulus-container"">
                    <img src=""images/schematic_sequence/dinner_party_scheme/dinner_party_scheme_9.png"" class=""exp-image"">
                    <div class=""question-area"">
                        <p style=""font-size: 20px; font-weight: bold; margin: 0;"">Is there a person in this image?</p>
                    </div>
                </div>","0","main_experiment_trial","9","dinner_party_scheme","schematic_sequence","","","",""
"","","","","","html-keyboard-response","119","1111066","0.0-119.0","DD5B9369356C48D69B3DDAEDCF9379A6","019cef95-5cf0-7dcf-b96f-1ab1cca20979","019cef87-c56d-7b55-9135-c5814367ec25","","null","
                <div class=""stimulus-container"">
                    <img src=""images/schematic_sequence/dinner_party_scheme/dinner_party_scheme_ten.png"" class=""exp-image"">
                    <div class=""question-area""></div> 
                </div>","null","","","","","","","",""
"","","","","","html-button-response","120","1111541","0.0-120.0","DD5B9369356C48D69B3DDAEDCF9379A6","019cef95-5cf0-7dcf-b96f-1ab1cca20979","019cef87-c56d-7b55-9135-c5814367ec25","","474","
                <div class=""stimulus-container"">
                    <img src=""images/schematic_sequence/dinner_party_scheme/dinner_party_scheme_ten.png"" class=""exp-image"">
                    <div class=""question-area"">
                        <p style=""font-size: 20px; font-weight: bold; margin: 0;"">Is there a person in this image?</p>
                    </div>
                </div>","0","main_experiment_trial","ten","dinner_party_scheme","schematic_sequence","","","",""
"","","","","","html-keyboard-response","121","1112552","0.0-121.0","DD5B9369356C48D69B3DDAEDCF9379A6","019cef95-5cf0-7dcf-b96f-1ab1cca20979","019cef87-c56d-7b55-9135-c5814367ec25","","null","<div style=""background-color: white; width: 100vw; height: 100vh;""></div>","null","","","","","","","",""
"","","","","","html-keyboard-response","122","1117553","0.0-122.0","DD5B9369356C48D69B3DDAEDCF9379A6","019cef95-5cf0-7dcf-b96f-1ab1cca20979","019cef87-c56d-7b55-9135-c5814367ec25","","null","
                <div class=""stimulus-container"">
                    <img src=""images/schematic_sequence/hotel_scheme/hotel_scheme_1.png"" class=""exp-image"">
                    <div class=""question-area""></div> 
                </div>","null","","","","","","","",""
"","","","","","html-button-response","123","1120538","0.0-123.0","DD5B9369356C48D69B3DDAEDCF9379A6","019cef95-5cf0-7dcf-b96f-1ab1cca20979","019cef87-c56d-7b55-9135-c5814367ec25","","2984","
                <div class=""stimulus-container"">
                    <img src=""images/schematic_sequence/hotel_scheme/hotel_scheme_1.png"" class=""exp-image"">
                    <div class=""question-area"">
                        <p style=""font-size: 20px; font-weight: bold; margin: 0;"">Is there a person in this image?</p>
                    </div>
                </div>","1","main_experiment_trial","1","hotel_scheme","schematic_sequence","","","",""
"","","","","","html-keyboard-response","124","1125544","0.0-124.0","DD5B9369356C48D69B3DDAEDCF9379A6","019cef95-5cf0-7dcf-b96f-1ab1cca20979","019cef87-c56d-7b55-9135-c5814367ec25","","null","
                <div class=""stimulus-container"">
                    <img src=""images/schematic_sequence/hotel_scheme/hotel_scheme_2.png"" class=""exp-image"">
                    <div class=""question-area""></div> 
                </div>","null","","","","","","","",""
"","","","","","html-button-response","125","1125943","0.0-125.0","DD5B9369356C48D69B3DDAEDCF9379A6","019cef95-5cf0-7dcf-b96f-1ab1cca20979","019cef87-c56d-7b55-9135-c5814367ec25","","399","
                <div class=""stimulus-container"">
                    <img src=""images/schematic_sequence/hotel_scheme/hotel_scheme_2.png"" class=""exp-image"">
                    <div class=""question-area"">
                        <p style=""font-size: 20px; font-weight: bold; margin: 0;"">Is there a person in this image?</p>
                    </div>
                </div>","0","main_experiment_trial","2","hotel_scheme","schematic_sequence","","","",""
"","","","","","html-keyboard-response","126","1130944","0.0-126.0","DD5B9369356C48D69B3DDAEDCF9379A6","019cef95-5cf0-7dcf-b96f-1ab1cca20979","019cef87-c56d-7b55-9135-c5814367ec25","","null","
                <div class=""stimulus-container"">
                    <img src=""images/schematic_sequence/hotel_scheme/hotel_scheme_3.png"" class=""exp-image"">
                    <div class=""question-area""></div> 
                </div>","null","","","","","","","",""
"","","","","","html-button-response","127","1131961","0.0-127.0","DD5B9369356C48D69B3DDAEDCF9379A6","019cef95-5cf0-7dcf-b96f-1ab1cca20979","019cef87-c56d-7b55-9135-c5814367ec25","","1016","
                <div class=""stimulus-container"">
                    <img src=""images/schematic_sequence/hotel_scheme/hotel_scheme_3.png"" class=""exp-image"">
                    <div class=""question-area"">
                        <p style=""font-size: 20px; font-weight: bold; margin: 0;"">Is there a person in this image?</p>
                    </div>
                </div>","0","main_experiment_trial","3","hotel_scheme","schematic_sequence","","","",""
"","","","","","html-keyboard-response","128","1136972","0.0-128.0","DD5B9369356C48D69B3DDAEDCF9379A6","019cef95-5cf0-7dcf-b96f-1ab1cca20979","019cef87-c56d-7b55-9135-c5814367ec25","","null","
                <div class=""stimulus-container"">
                    <img src=""images/schematic_sequence/hotel_scheme/hotel_scheme_4.png"" class=""exp-image"">
                    <div class=""question-area""></div> 
                </div>","null","","","","","","","",""
"","","","","","html-button-response","129","1137541","0.0-129.0","DD5B9369356C48D69B3DDAEDCF9379A6","019cef95-5cf0-7dcf-b96f-1ab1cca20979","019cef87-c56d-7b55-9135-c5814367ec25","","568","
                <div class=""stimulus-container"">
                    <img src=""images/schematic_sequence/hotel_scheme/hotel_scheme_4.png"" class=""exp-image"">
                    <div class=""question-area"">
                        <p style=""font-size: 20px; font-weight: bold; margin: 0;"">Is there a person in this image?</p>
                    </div>
                </div>","1","main_experiment_trial","4","hotel_scheme","schematic_sequence","","","",""
"","","","","","html-keyboard-response","130","1142544","0.0-130.0","DD5B9369356C48D69B3DDAEDCF9379A6","019cef95-5cf0-7dcf-b96f-1ab1cca20979","019cef87-c56d-7b55-9135-c5814367ec25","","null","
                <div class=""stimulus-container"">
                    <img src=""images/schematic_sequence/hotel_scheme/hotel_scheme_5.png"" class=""exp-image"">
                    <div class=""question-area""></div> 
                </div>","null","","","","","","","",""
"","","","","","html-button-response","131","1143147","0.0-131.0","DD5B9369356C48D69B3DDAEDCF9379A6","019cef95-5cf0-7dcf-b96f-1ab1cca20979","019cef87-c56d-7b55-9135-c5814367ec25","","603","
                <div class=""stimulus-container"">
                    <img src=""images/schematic_sequence/hotel_scheme/hotel_scheme_5.png"" class=""exp-image"">
                    <div class=""question-area"">
                        <p style=""font-size: 20px; font-weight: bold; margin: 0;"">Is there a person in this image?</p>
                    </div>
                </div>","0","main_experiment_trial","5","hotel_scheme","schematic_sequence","","","",""
"","","","","","html-keyboard-response","132","1148159","0.0-132.0","DD5B9369356C48D69B3DDAEDCF9379A6","019cef95-5cf0-7dcf-b96f-1ab1cca20979","019cef87-c56d-7b55-9135-c5814367ec25","","null","
                <div class=""stimulus-container"">
                    <img src=""images/schematic_sequence/hotel_scheme/hotel_scheme_6.png"" class=""exp-image"">
                    <div class=""question-area""></div> 
                </div>","null","","","","","","","",""
"","","","","","html-button-response","133","1148564","0.0-133.0","DD5B9369356C48D69B3DDAEDCF9379A6","019cef95-5cf0-7dcf-b96f-1ab1cca20979","019cef87-c56d-7b55-9135-c5814367ec25","","405","
                <div class=""stimulus-container"">
                    <img src=""images/schematic_sequence/hotel_scheme/hotel_scheme_6.png"" class=""exp-image"">
                    <div class=""question-area"">
                        <p style=""font-size: 20px; font-weight: bold; margin: 0;"">Is there a person in this image?</p>
                    </div>
                </div>","0","main_experiment_trial","6","hotel_scheme","schematic_sequence","","","",""
"","","","","","html-keyboard-response","134","1153568","0.0-134.0","DD5B9369356C48D69B3DDAEDCF9379A6","019cef95-5cf0-7dcf-b96f-1ab1cca20979","019cef87-c56d-7b55-9135-c5814367ec25","","null","
                <div class=""stimulus-container"">
                    <img src=""images/schematic_sequence/hotel_scheme/hotel_scheme_7.png"" class=""exp-image"">
                    <div class=""question-area""></div> 
                </div>","null","","","","","","","",""
"","","","","","html-button-response","135","1154020","0.0-135.0","DD5B9369356C48D69B3DDAEDCF9379A6","019cef95-5cf0-7dcf-b96f-1ab1cca20979","019cef87-c56d-7b55-9135-c5814367ec25","","452","
                <div class=""stimulus-container"">
                    <img src=""images/schematic_sequence/hotel_scheme/hotel_scheme_7.png"" class=""exp-image"">
                    <div class=""question-area"">
                        <p style=""font-size: 20px; font-weight: bold; margin: 0;"">Is there a person in this image?</p>
                    </div>
                </div>","0","main_experiment_trial","7","hotel_scheme","schematic_sequence","","","",""
"","","","","","html-keyboard-response","136","1159023","0.0-136.0","DD5B9369356C48D69B3DDAEDCF9379A6","019cef95-5cf0-7dcf-b96f-1ab1cca20979","019cef87-c56d-7b55-9135-c5814367ec25","","null","
                <div class=""stimulus-container"">
                    <img src=""images/schematic_sequence/hotel_scheme/hotel_scheme_8.png"" class=""exp-image"">
                    <div class=""question-area""></div> 
                </div>","null","","","","","","","",""
"","","","","","html-button-response","137","1160177","0.0-137.0","DD5B9369356C48D69B3DDAEDCF9379A6","019cef95-5cf0-7dcf-b96f-1ab1cca20979","019cef87-c56d-7b55-9135-c5814367ec25","","1153","
                <div class=""stimulus-container"">
                    <img src=""images/schematic_sequence/hotel_scheme/hotel_scheme_8.png"" class=""exp-image"">
                    <div class=""question-area"">
                        <p style=""font-size: 20px; font-weight: bold; margin: 0;"">Is there a person in this image?</p>
                    </div>
                </div>","0","main_experiment_trial","8","hotel_scheme","schematic_sequence","","","",""
"","","","","","html-keyboard-response","138","1165190","0.0-138.0","DD5B9369356C48D69B3DDAEDCF9379A6","019cef95-5cf0-7dcf-b96f-1ab1cca20979","019cef87-c56d-7b55-9135-c5814367ec25","","null","
                <div class=""stimulus-container"">
                    <img src=""images/schematic_sequence/hotel_scheme/hotel_scheme_9.png"" class=""exp-image"">
                    <div class=""question-area""></div> 
                </div>","null","","","","","","","",""
"","","","","","html-button-response","139","1165701","0.0-139.0","DD5B9369356C48D69B3DDAEDCF9379A6","019cef95-5cf0-7dcf-b96f-1ab1cca20979","019cef87-c56d-7b55-9135-c5814367ec25","","510","
                <div class=""stimulus-container"">
                    <img src=""images/schematic_sequence/hotel_scheme/hotel_scheme_9.png"" class=""exp-image"">
                    <div class=""question-area"">
                        <p style=""font-size: 20px; font-weight: bold; margin: 0;"">Is there a person in this image?</p>
                    </div>
                </div>","0","main_experiment_trial","9","hotel_scheme","schematic_sequence","","","",""
"","","","","","html-keyboard-response","140","1170713","0.0-140.0","DD5B9369356C48D69B3DDAEDCF9379A6","019cef95-5cf0-7dcf-b96f-1ab1cca20979","019cef87-c56d-7b55-9135-c5814367ec25","","null","
                <div class=""stimulus-container"">
                    <img src=""images/schematic_sequence/hotel_scheme/hotel_scheme_ten.png"" class=""exp-image"">
                    <div class=""question-area""></div> 
                </div>","null","","","","","","","",""
"","","","","","html-button-response","141","1171106","0.0-141.0","DD5B9369356C48D69B3DDAEDCF9379A6","019cef95-5cf0-7dcf-b96f-1ab1cca20979","019cef87-c56d-7b55-9135-c5814367ec25","","392","
                <div class=""stimulus-container"">
                    <img src=""images/schematic_sequence/hotel_scheme/hotel_scheme_ten.png"" class=""exp-image"">
                    <div class=""question-area"">
                        <p style=""font-size: 20px; font-weight: bold; margin: 0;"">Is there a person in this image?</p>
                    </div>
                </div>","0","main_experiment_trial","ten","hotel_scheme","schematic_sequence","","","",""
"","","","","","html-keyboard-response","142","1172109","0.0-142.0","DD5B9369356C48D69B3DDAEDCF9379A6","019cef95-5cf0-7dcf-b96f-1ab1cca20979","019cef87-c56d-7b55-9135-c5814367ec25","","null","<div style=""background-color: white; width: 100vw; height: 100vh;""></div>","null","","","","","","","",""
"","","","","","html-keyboard-response","143","1177120","0.0-143.0","DD5B9369356C48D69B3DDAEDCF9379A6","019cef95-5cf0-7dcf-b96f-1ab1cca20979","019cef87-c56d-7b55-9135-c5814367ec25","","null","
                <div class=""stimulus-container"">
                    <img src=""images/schematic_sequence/restaurant_scheme/restaurant_scheme_1.png"" class=""exp-image"">
                    <div class=""question-area""></div> 
                </div>","null","","","","","","","",""
"","","","","","html-button-response","144","1177691","0.0-144.0","DD5B9369356C48D69B3DDAEDCF9379A6","019cef95-5cf0-7dcf-b96f-1ab1cca20979","019cef87-c56d-7b55-9135-c5814367ec25","","570","
                <div class=""stimulus-container"">
                    <img src=""images/schematic_sequence/restaurant_scheme/restaurant_scheme_1.png"" class=""exp-image"">
                    <div class=""question-area"">
                        <p style=""font-size: 20px; font-weight: bold; margin: 0;"">Is there a person in this image?</p>
                    </div>
                </div>","0","main_experiment_trial","1","restaurant_scheme","schematic_sequence","","","",""
"","","","","","html-keyboard-response","145","1182693","0.0-145.0","DD5B9369356C48D69B3DDAEDCF9379A6","019cef95-5cf0-7dcf-b96f-1ab1cca20979","019cef87-c56d-7b55-9135-c5814367ec25","","null","
                <div class=""stimulus-container"">
                    <img src=""images/schematic_sequence/restaurant_scheme/restaurant_scheme_2.png"" class=""exp-image"">
                    <div class=""question-area""></div> 
                </div>","null","","","","","","","",""
"","","","","","html-button-response","146","1183184","0.0-146.0","DD5B9369356C48D69B3DDAEDCF9379A6","019cef95-5cf0-7dcf-b96f-1ab1cca20979","019cef87-c56d-7b55-9135-c5814367ec25","","491","
                <div class=""stimulus-container"">
                    <img src=""images/schematic_sequence/restaurant_scheme/restaurant_scheme_2.png"" class=""exp-image"">
                    <div class=""question-area"">
                        <p style=""font-size: 20px; font-weight: bold; margin: 0;"">Is there a person in this image?</p>
                    </div>
                </div>","1","main_experiment_trial","2","restaurant_scheme","schematic_sequence","","","",""
"","","","","","html-keyboard-response","147","1188199","0.0-147.0","DD5B9369356C48D69B3DDAEDCF9379A6","019cef95-5cf0-7dcf-b96f-1ab1cca20979","019cef87-c56d-7b55-9135-c5814367ec25","","null","
                <div class=""stimulus-container"">
                    <img src=""images/schematic_sequence/restaurant_scheme/restaurant_scheme_3.png"" class=""exp-image"">
                    <div class=""question-area""></div> 
                </div>","null","","","","","","","",""
"","","","","","html-button-response","148","1188782","0.0-148.0","DD5B9369356C48D69B3DDAEDCF9379A6","019cef95-5cf0-7dcf-b96f-1ab1cca20979","019cef87-c56d-7b55-9135-c5814367ec25","","582","
                <div class=""stimulus-container"">
                    <img src=""images/schematic_sequence/restaurant_scheme/restaurant_scheme_3.png"" class=""exp-image"">
                    <div class=""question-area"">
                        <p style=""font-size: 20px; font-weight: bold; margin: 0;"">Is there a person in this image?</p>
                    </div>
                </div>","1","main_experiment_trial","3","restaurant_scheme","schematic_sequence","","","",""
"","","","","","html-keyboard-response","149","1193783","0.0-149.0","DD5B9369356C48D69B3DDAEDCF9379A6","019cef95-5cf0-7dcf-b96f-1ab1cca20979","019cef87-c56d-7b55-9135-c5814367ec25","","null","
                <div class=""stimulus-container"">
                    <img src=""images/schematic_sequence/restaurant_scheme/restaurant_scheme_4.png"" class=""exp-image"">
                    <div class=""question-area""></div> 
                </div>","null","","","","","","","",""
"","","","","","html-button-response","150","1194648","0.0-150.0","DD5B9369356C48D69B3DDAEDCF9379A6","019cef95-5cf0-7dcf-b96f-1ab1cca20979","019cef87-c56d-7b55-9135-c5814367ec25","","864","
                <div class=""stimulus-container"">
                    <img src=""images/schematic_sequence/restaurant_scheme/restaurant_scheme_4.png"" class=""exp-image"">
                    <div class=""question-area"">
                        <p style=""font-size: 20px; font-weight: bold; margin: 0;"">Is there a person in this image?</p>
                    </div>
                </div>","0","main_experiment_trial","4","restaurant_scheme","schematic_sequence","","","",""
"","","","","","html-keyboard-response","151","1199649","0.0-151.0","DD5B9369356C48D69B3DDAEDCF9379A6","019cef95-5cf0-7dcf-b96f-1ab1cca20979","019cef87-c56d-7b55-9135-c5814367ec25","","null","
                <div class=""stimulus-container"">
                    <img src=""images/schematic_sequence/restaurant_scheme/restaurant_scheme_5.png"" class=""exp-image"">
                    <div class=""question-area""></div> 
                </div>","null","","","","","","","",""
"","","","","","html-button-response","152","1200152","0.0-152.0","DD5B9369356C48D69B3DDAEDCF9379A6","019cef95-5cf0-7dcf-b96f-1ab1cca20979","019cef87-c56d-7b55-9135-c5814367ec25","","503","
                <div class=""stimulus-container"">
                    <img src=""images/schematic_sequence/restaurant_scheme/restaurant_scheme_5.png"" class=""exp-image"">
                    <div class=""question-area"">
                        <p style=""font-size: 20px; font-weight: bold; margin: 0;"">Is there a person in this image?</p>
                    </div>
                </div>","0","main_experiment_trial","5","restaurant_scheme","schematic_sequence","","","",""
"","","","","","html-keyboard-response","153","1205154","0.0-153.0","DD5B9369356C48D69B3DDAEDCF9379A6","019cef95-5cf0-7dcf-b96f-1ab1cca20979","019cef87-c56d-7b55-9135-c5814367ec25","","null","
                <div class=""stimulus-container"">
                    <img src=""images/schematic_sequence/restaurant_scheme/restaurant_scheme_6.png"" class=""exp-image"">
                    <div class=""question-area""></div> 
                </div>","null","","","","","","","",""
"","","","","","html-button-response","154","1206449","0.0-154.0","DD5B9369356C48D69B3DDAEDCF9379A6","019cef95-5cf0-7dcf-b96f-1ab1cca20979","019cef87-c56d-7b55-9135-c5814367ec25","","1295","
                <div class=""stimulus-container"">
                    <img src=""images/schematic_sequence/restaurant_scheme/restaurant_scheme_6.png"" class=""exp-image"">
                    <div class=""question-area"">
                        <p style=""font-size: 20px; font-weight: bold; margin: 0;"">Is there a person in this image?</p>
                    </div>
                </div>","1","main_experiment_trial","6","restaurant_scheme","schematic_sequence","","","",""
"","","","","","html-keyboard-response","155","1211461","0.0-155.0","DD5B9369356C48D69B3DDAEDCF9379A6","019cef95-5cf0-7dcf-b96f-1ab1cca20979","019cef87-c56d-7b55-9135-c5814367ec25","","null","
                <div class=""stimulus-container"">
                    <img src=""images/schematic_sequence/restaurant_scheme/restaurant_scheme_7.png"" class=""exp-image"">
                    <div class=""question-area""></div> 
                </div>","null","","","","","","","",""
"","","","","","html-button-response","156","1212721","0.0-156.0","DD5B9369356C48D69B3DDAEDCF9379A6","019cef95-5cf0-7dcf-b96f-1ab1cca20979","019cef87-c56d-7b55-9135-c5814367ec25","","1259","
                <div class=""stimulus-container"">
                    <img src=""images/schematic_sequence/restaurant_scheme/restaurant_scheme_7.png"" class=""exp-image"">
                    <div class=""question-area"">
                        <p style=""font-size: 20px; font-weight: bold; margin: 0;"">Is there a person in this image?</p>
                    </div>
                </div>","1","main_experiment_trial","7","restaurant_scheme","schematic_sequence","","","",""
"","","","","","html-keyboard-response","157","1217733","0.0-157.0","DD5B9369356C48D69B3DDAEDCF9379A6","019cef95-5cf0-7dcf-b96f-1ab1cca20979","019cef87-c56d-7b55-9135-c5814367ec25","","null","
                <div class=""stimulus-container"">
                    <img src=""images/schematic_sequence/restaurant_scheme/restaurant_scheme_8.png"" class=""exp-image"">
                    <div class=""question-area""></div> 
                </div>","null","","","","","","","",""
"","","","","","html-button-response","158","1219911","0.0-158.0","DD5B9369356C48D69B3DDAEDCF9379A6","019cef95-5cf0-7dcf-b96f-1ab1cca20979","019cef87-c56d-7b55-9135-c5814367ec25","","2177","
                <div class=""stimulus-container"">
                    <img src=""images/schematic_sequence/restaurant_scheme/restaurant_scheme_8.png"" class=""exp-image"">
                    <div class=""question-area"">
                        <p style=""font-size: 20px; font-weight: bold; margin: 0;"">Is there a person in this image?</p>
                    </div>
                </div>","1","main_experiment_trial","8","restaurant_scheme","schematic_sequence","","","",""
"","","","","","html-keyboard-response","159","1224919","0.0-159.0","DD5B9369356C48D69B3DDAEDCF9379A6","019cef95-5cf0-7dcf-b96f-1ab1cca20979","019cef87-c56d-7b55-9135-c5814367ec25","","null","
                <div class=""stimulus-container"">
                    <img src=""images/schematic_sequence/restaurant_scheme/restaurant_scheme_9.png"" class=""exp-image"">
                    <div class=""question-area""></div> 
                </div>","null","","","","","","","",""
"","","","","","html-button-response","160","1226262","0.0-160.0","DD5B9369356C48D69B3DDAEDCF9379A6","019cef95-5cf0-7dcf-b96f-1ab1cca20979","019cef87-c56d-7b55-9135-c5814367ec25","","1343","
                <div class=""stimulus-container"">
                    <img src=""images/schematic_sequence/restaurant_scheme/restaurant_scheme_9.png"" class=""exp-image"">
                    <div class=""question-area"">
                        <p style=""font-size: 20px; font-weight: bold; margin: 0;"">Is there a person in this image?</p>
                    </div>
                </div>","0","main_experiment_trial","9","restaurant_scheme","schematic_sequence","","","",""
"","","","","","html-keyboard-response","161","1231267","0.0-161.0","DD5B9369356C48D69B3DDAEDCF9379A6","019cef95-5cf0-7dcf-b96f-1ab1cca20979","019cef87-c56d-7b55-9135-c5814367ec25","","null","
                <div class=""stimulus-container"">
                    <img src=""images/schematic_sequence/restaurant_scheme/restaurant_scheme_ten.png"" class=""exp-image"">
                    <div class=""question-area""></div> 
                </div>","null","","","","","","","",""
"","","","","","html-button-response","162","1232458","0.0-162.0","DD5B9369356C48D69B3DDAEDCF9379A6","019cef95-5cf0-7dcf-b96f-1ab1cca20979","019cef87-c56d-7b55-9135-c5814367ec25","","1191","
                <div class=""stimulus-container"">
                    <img src=""images/schematic_sequence/restaurant_scheme/restaurant_scheme_ten.png"" class=""exp-image"">
                    <div class=""question-area"">
                        <p style=""font-size: 20px; font-weight: bold; margin: 0;"">Is there a person in this image?</p>
                    </div>
                </div>","0","main_experiment_trial","ten","restaurant_scheme","schematic_sequence","","","",""
"","","","","","html-keyboard-response","163","1233464","0.0-163.0","DD5B9369356C48D69B3DDAEDCF9379A6","019cef95-5cf0-7dcf-b96f-1ab1cca20979","019cef87-c56d-7b55-9135-c5814367ec25","","null","<div style=""background-color: white; width: 100vw; height: 100vh;""></div>","null","","","","","","","",""
"","","","","","html-keyboard-response","164","1238468","0.0-164.0","DD5B9369356C48D69B3DDAEDCF9379A6","019cef95-5cf0-7dcf-b96f-1ab1cca20979","019cef87-c56d-7b55-9135-c5814367ec25","","null","
                <div class=""stimulus-container"">
                    <img src=""images/causal_sequence/the_performance_causal/the_performance_causal_1.png"" class=""exp-image"">
                    <div class=""question-area""></div> 
                </div>","null","","","","","","","",""
"","","","","","html-button-response","165","1241038","0.0-165.0","DD5B9369356C48D69B3DDAEDCF9379A6","019cef95-5cf0-7dcf-b96f-1ab1cca20979","019cef87-c56d-7b55-9135-c5814367ec25","","2570","
                <div class=""stimulus-container"">
                    <img src=""images/causal_sequence/the_performance_causal/the_performance_causal_1.png"" class=""exp-image"">
                    <div class=""question-area"">
                        <p style=""font-size: 20px; font-weight: bold; margin: 0;"">Is there a person in this image?</p>
                    </div>
                </div>","0","main_experiment_trial","1","the_performance_causal","causal_sequence","","","",""
"","","","","","html-keyboard-response","166","1246049","0.0-166.0","DD5B9369356C48D69B3DDAEDCF9379A6","019cef95-5cf0-7dcf-b96f-1ab1cca20979","019cef87-c56d-7b55-9135-c5814367ec25","","null","
                <div class=""stimulus-container"">
                    <img src=""images/causal_sequence/the_performance_causal/the_performance_causal_2.png"" class=""exp-image"">
                    <div class=""question-area""></div> 
                </div>","null","","","","","","","",""
"","","","","","html-button-response","167","1247892","0.0-167.0","DD5B9369356C48D69B3DDAEDCF9379A6","019cef95-5cf0-7dcf-b96f-1ab1cca20979","019cef87-c56d-7b55-9135-c5814367ec25","","1843","
                <div class=""stimulus-container"">
                    <img src=""images/causal_sequence/the_performance_causal/the_performance_causal_2.png"" class=""exp-image"">
                    <div class=""question-area"">
                        <p style=""font-size: 20px; font-weight: bold; margin: 0;"">Is there a person in this image?</p>
                    </div>
                </div>","0","main_experiment_trial","2","the_performance_causal","causal_sequence","","","",""
"","","","","","html-keyboard-response","168","1252896","0.0-168.0","DD5B9369356C48D69B3DDAEDCF9379A6","019cef95-5cf0-7dcf-b96f-1ab1cca20979","019cef87-c56d-7b55-9135-c5814367ec25","","null","
                <div class=""stimulus-container"">
                    <img src=""images/causal_sequence/the_performance_causal/the_performance_causal_3.png"" class=""exp-image"">
                    <div class=""question-area""></div> 
                </div>","null","","","","","","","",""
"","","","","","html-button-response","169","1255557","0.0-169.0","DD5B9369356C48D69B3DDAEDCF9379A6","019cef95-5cf0-7dcf-b96f-1ab1cca20979","019cef87-c56d-7b55-9135-c5814367ec25","","2660","
                <div class=""stimulus-container"">
                    <img src=""images/causal_sequence/the_performance_causal/the_performance_causal_3.png"" class=""exp-image"">
                    <div class=""question-area"">
                        <p style=""font-size: 20px; font-weight: bold; margin: 0;"">Is there a person in this image?</p>
                    </div>
                </div>","0","main_experiment_trial","3","the_performance_causal","causal_sequence","","","",""
"","","","","","html-keyboard-response","170","1260560","0.0-170.0","DD5B9369356C48D69B3DDAEDCF9379A6","019cef95-5cf0-7dcf-b96f-1ab1cca20979","019cef87-c56d-7b55-9135-c5814367ec25","","null","
                <div class=""stimulus-container"">
                    <img src=""images/causal_sequence/the_performance_causal/the_performance_causal_4.png"" class=""exp-image"">
                    <div class=""question-area""></div> 
                </div>","null","","","","","","","",""
"","","","","","html-button-response","171","1261027","0.0-171.0","DD5B9369356C48D69B3DDAEDCF9379A6","019cef95-5cf0-7dcf-b96f-1ab1cca20979","019cef87-c56d-7b55-9135-c5814367ec25","","467","
                <div class=""stimulus-container"">
                    <img src=""images/causal_sequence/the_performance_causal/the_performance_causal_4.png"" class=""exp-image"">
                    <div class=""question-area"">
                        <p style=""font-size: 20px; font-weight: bold; margin: 0;"">Is there a person in this image?</p>
                    </div>
                </div>","0","main_experiment_trial","4","the_performance_causal","causal_sequence","","","",""
"","","","","","html-keyboard-response","172","1266038","0.0-172.0","DD5B9369356C48D69B3DDAEDCF9379A6","019cef95-5cf0-7dcf-b96f-1ab1cca20979","019cef87-c56d-7b55-9135-c5814367ec25","","null","
                <div class=""stimulus-container"">
                    <img src=""images/causal_sequence/the_performance_causal/the_performance_causal_5.png"" class=""exp-image"">
                    <div class=""question-area""></div> 
                </div>","null","","","","","","","",""
"","","","","","html-button-response","173","1266817","0.0-173.0","DD5B9369356C48D69B3DDAEDCF9379A6","019cef95-5cf0-7dcf-b96f-1ab1cca20979","019cef87-c56d-7b55-9135-c5814367ec25","","779","
                <div class=""stimulus-container"">
                    <img src=""images/causal_sequence/the_performance_causal/the_performance_causal_5.png"" class=""exp-image"">
                    <div class=""question-area"">
                        <p style=""font-size: 20px; font-weight: bold; margin: 0;"">Is there a person in this image?</p>
                    </div>
                </div>","0","main_experiment_trial","5","the_performance_causal","causal_sequence","","","",""
"","","","","","html-keyboard-response","174","1271824","0.0-174.0","DD5B9369356C48D69B3DDAEDCF9379A6","019cef95-5cf0-7dcf-b96f-1ab1cca20979","019cef87-c56d-7b55-9135-c5814367ec25","","null","
                <div class=""stimulus-container"">
                    <img src=""images/causal_sequence/the_performance_causal/the_performance_causal_6.png"" class=""exp-image"">
                    <div class=""question-area""></div> 
                </div>","null","","","","","","","",""
"","","","","","html-button-response","175","1272453","0.0-175.0","DD5B9369356C48D69B3DDAEDCF9379A6","019cef95-5cf0-7dcf-b96f-1ab1cca20979","019cef87-c56d-7b55-9135-c5814367ec25","","628","
                <div class=""stimulus-container"">
                    <img src=""images/causal_sequence/the_performance_causal/the_performance_causal_6.png"" class=""exp-image"">
                    <div class=""question-area"">
                        <p style=""font-size: 20px; font-weight: bold; margin: 0;"">Is there a person in this image?</p>
                    </div>
                </div>","0","main_experiment_trial","6","the_performance_causal","causal_sequence","","","",""
"","","","","","html-keyboard-response","176","1277467","0.0-176.0","DD5B9369356C48D69B3DDAEDCF9379A6","019cef95-5cf0-7dcf-b96f-1ab1cca20979","019cef87-c56d-7b55-9135-c5814367ec25","","null","
                <div class=""stimulus-container"">
                    <img src=""images/causal_sequence/the_performance_causal/the_performance_causal_7.png"" class=""exp-image"">
                    <div class=""question-area""></div> 
                </div>","null","","","","","","","",""
"","","","","","html-button-response","177","1277899","0.0-177.0","DD5B9369356C48D69B3DDAEDCF9379A6","019cef95-5cf0-7dcf-b96f-1ab1cca20979","019cef87-c56d-7b55-9135-c5814367ec25","","432","
                <div class=""stimulus-container"">
                    <img src=""images/causal_sequence/the_performance_causal/the_performance_causal_7.png"" class=""exp-image"">
                    <div class=""question-area"">
                        <p style=""font-size: 20px; font-weight: bold; margin: 0;"">Is there a person in this image?</p>
                    </div>
                </div>","0","main_experiment_trial","7","the_performance_causal","causal_sequence","","","",""
"","","","","","html-keyboard-response","178","1282913","0.0-178.0","DD5B9369356C48D69B3DDAEDCF9379A6","019cef95-5cf0-7dcf-b96f-1ab1cca20979","019cef87-c56d-7b55-9135-c5814367ec25","","null","
                <div class=""stimulus-container"">
                    <img src=""images/causal_sequence/the_performance_causal/the_performance_causal_8.png"" class=""exp-image"">
                    <div class=""question-area""></div> 
                </div>","null","","","","","","","",""
"","","","","","html-button-response","179","1283523","0.0-179.0","DD5B9369356C48D69B3DDAEDCF9379A6","019cef95-5cf0-7dcf-b96f-1ab1cca20979","019cef87-c56d-7b55-9135-c5814367ec25","","609","
                <div class=""stimulus-container"">
                    <img src=""images/causal_sequence/the_performance_causal/the_performance_causal_8.png"" class=""exp-image"">
                    <div class=""question-area"">
                        <p style=""font-size: 20px; font-weight: bold; margin: 0;"">Is there a person in this image?</p>
                    </div>
                </div>","0","main_experiment_trial","8","the_performance_causal","causal_sequence","","","",""
"","","","","","html-keyboard-response","180","1288524","0.0-180.0","DD5B9369356C48D69B3DDAEDCF9379A6","019cef95-5cf0-7dcf-b96f-1ab1cca20979","019cef87-c56d-7b55-9135-c5814367ec25","","null","
                <div class=""stimulus-container"">
                    <img src=""images/causal_sequence/the_performance_causal/the_performance_causal_9.png"" class=""exp-image"">
                    <div class=""question-area""></div> 
                </div>","null","","","","","","","",""
"","","","","","html-button-response","181","1288859","0.0-181.0","DD5B9369356C48D69B3DDAEDCF9379A6","019cef95-5cf0-7dcf-b96f-1ab1cca20979","019cef87-c56d-7b55-9135-c5814367ec25","","334","
                <div class=""stimulus-container"">
                    <img src=""images/causal_sequence/the_performance_causal/the_performance_causal_9.png"" class=""exp-image"">
                    <div class=""question-area"">
                        <p style=""font-size: 20px; font-weight: bold; margin: 0;"">Is there a person in this image?</p>
                    </div>
                </div>","0","main_experiment_trial","9","the_performance_causal","causal_sequence","","","",""
"","","","","","html-keyboard-response","182","1293874","0.0-182.0","DD5B9369356C48D69B3DDAEDCF9379A6","019cef95-5cf0-7dcf-b96f-1ab1cca20979","019cef87-c56d-7b55-9135-c5814367ec25","","null","
                <div class=""stimulus-container"">
                    <img src=""images/causal_sequence/the_performance_causal/the_performance_causal_ten.png"" class=""exp-image"">
                    <div class=""question-area""></div> 
                </div>","null","","","","","","","",""
"","","","","","html-button-response","183","1294261","0.0-183.0","DD5B9369356C48D69B3DDAEDCF9379A6","019cef95-5cf0-7dcf-b96f-1ab1cca20979","019cef87-c56d-7b55-9135-c5814367ec25","","386","
                <div class=""stimulus-container"">
                    <img src=""images/causal_sequence/the_performance_causal/the_performance_causal_ten.png"" class=""exp-image"">
                    <div class=""question-area"">
                        <p style=""font-size: 20px; font-weight: bold; margin: 0;"">Is there a person in this image?</p>
                    </div>
                </div>","0","main_experiment_trial","ten","the_performance_causal","causal_sequence","","","",""
