"success","timeout","failed_images","failed_audio","failed_video","trial_type","trial_index","time_elapsed","internal_node_id","subject_id","study_id","session_id","view_history","rt","stimulus","response","task","image_index","folder","sequence_type","presentation_order","valuable_image_index","reward_type","distance_from_x","target_X","chosen_image_index","is_x_plus_dist","correct_choice"
"true","false","[]","[]","[]","preload","0","45139","0.0-0.0","0CA6D66EEB91468B8A04190507F75569","019cfc83-eabb-7e95-a9a6-a534d98a61e8","019cfc7b-6c7b-7b1b-afe7-acad8efc6711","","","","","","","","","","","","","","","",""
"","","","","","instructions","1","48922","0.0-1.0","0CA6D66EEB91468B8A04190507F75569","019cfc83-eabb-7e95-a9a6-a534d98a61e8","019cfc7b-6c7b-7b1b-afe7-acad8efc6711","[{""page_index"":0,""viewing_time"":3505}]","3505","","","","","","","","","","","","","",""
"","","","","","instructions","2","53570","0.0-2.0","0CA6D66EEB91468B8A04190507F75569","019cfc83-eabb-7e95-a9a6-a534d98a61e8","019cfc7b-6c7b-7b1b-afe7-acad8efc6711","[{""page_index"":0,""viewing_time"":4620}]","4647","","","","","","","","","","","","","",""
"true","","","","","fullscreen","3","56085","0.0-3.0","0CA6D66EEB91468B8A04190507F75569","019cfc83-eabb-7e95-a9a6-a534d98a61e8","019cfc7b-6c7b-7b1b-afe7-acad8efc6711","","1409","","","","","","","","","","","","","",""
"","","","","","instructions","4","66102","0.0-4.0","0CA6D66EEB91468B8A04190507F75569","019cfc83-eabb-7e95-a9a6-a534d98a61e8","019cfc7b-6c7b-7b1b-afe7-acad8efc6711","[{""page_index"":0,""viewing_time"":10014}]","10015","","","","","","","","","","","","","",""
"","","","","","instructions","5","74157","0.0-5.0","0CA6D66EEB91468B8A04190507F75569","019cfc83-eabb-7e95-a9a6-a534d98a61e8","019cfc7b-6c7b-7b1b-afe7-acad8efc6711","[{""page_index"":0,""viewing_time"":8054}]","8054","","","","","","","","","","","","","",""
"","","","","","html-keyboard-response","6","78161","0.0-6.0","0CA6D66EEB91468B8A04190507F75569","019cfc83-eabb-7e95-a9a6-a534d98a61e8","019cfc7b-6c7b-7b1b-afe7-acad8efc6711","","null","
                <div class=""stimulus-container"">
                    <img src=""images/instructions/movie_1.png"" class=""exp-image"">
                    <div class=""question-area""></div> 
                </div>","null","","","","","","","","","","","",""
"","","","","","html-button-response","7","79435","0.0-7.0","0CA6D66EEB91468B8A04190507F75569","019cfc83-eabb-7e95-a9a6-a534d98a61e8","019cfc7b-6c7b-7b1b-afe7-acad8efc6711","","1270","
                <div class=""stimulus-container"">
                    <img src=""images/instructions/movie_1.png"" class=""exp-image"">
                    <div class=""question-area"">
                        <p style=""font-size: 20px; font-weight: bold; margin: 0;"">Was there a person in this image?</p>
                    </div>
                </div>","0","example_question","1","","","","","","","","","",""
"","","","","","html-keyboard-response","8","83441","0.0-8.0","0CA6D66EEB91468B8A04190507F75569","019cfc83-eabb-7e95-a9a6-a534d98a61e8","019cfc7b-6c7b-7b1b-afe7-acad8efc6711","","null","
                <div class=""stimulus-container"">
                    <img src=""images/instructions/movie_2.png"" class=""exp-image"">
                    <div class=""question-area""></div> 
                </div>","null","","","","","","","","","","","",""
"","","","","","html-button-response","9","84127","0.0-9.0","0CA6D66EEB91468B8A04190507F75569","019cfc83-eabb-7e95-a9a6-a534d98a61e8","019cfc7b-6c7b-7b1b-afe7-acad8efc6711","","684","
                <div class=""stimulus-container"">
                    <img src=""images/instructions/movie_2.png"" class=""exp-image"">
                    <div class=""question-area"">
                        <p style=""font-size: 20px; font-weight: bold; margin: 0;"">Was there a person in this image?</p>
                    </div>
                </div>","0","example_question","2","","","","","","","","","",""
"","","","","","html-keyboard-response","10","88136","0.0-10.0","0CA6D66EEB91468B8A04190507F75569","019cfc83-eabb-7e95-a9a6-a534d98a61e8","019cfc7b-6c7b-7b1b-afe7-acad8efc6711","","null","
                <div class=""stimulus-container"">
                    <img src=""images/instructions/movie_3.png"" class=""exp-image"">
                    <div class=""question-area""></div> 
                </div>","null","","","","","","","","","","","",""
"","","","","","html-button-response","11","88911","0.0-11.0","0CA6D66EEB91468B8A04190507F75569","019cfc83-eabb-7e95-a9a6-a534d98a61e8","019cfc7b-6c7b-7b1b-afe7-acad8efc6711","","773","
                <div class=""stimulus-container"">
                    <img src=""images/instructions/movie_3.png"" class=""exp-image"">
                    <div class=""question-area"">
                        <p style=""font-size: 20px; font-weight: bold; margin: 0;"">Was there a person in this image?</p>
                    </div>
                </div>","0","example_question","3","","","","","","","","","",""
"","","","","","html-keyboard-response","12","92928","0.0-12.0","0CA6D66EEB91468B8A04190507F75569","019cfc83-eabb-7e95-a9a6-a534d98a61e8","019cfc7b-6c7b-7b1b-afe7-acad8efc6711","","null","
                <div class=""stimulus-container"">
                    <img src=""images/instructions/movie_4.png"" class=""exp-image"">
                    <div class=""question-area""></div> 
                </div>","null","","","","","","","","","","","",""
"","","","","","html-button-response","13","93523","0.0-13.0","0CA6D66EEB91468B8A04190507F75569","019cfc83-eabb-7e95-a9a6-a534d98a61e8","019cfc7b-6c7b-7b1b-afe7-acad8efc6711","","594","
                <div class=""stimulus-container"">
                    <img src=""images/instructions/movie_4.png"" class=""exp-image"">
                    <div class=""question-area"">
                        <p style=""font-size: 20px; font-weight: bold; margin: 0;"">Was there a person in this image?</p>
                    </div>
                </div>","0","example_question","4","","","","","","","","","",""
"","","","","","instructions","14","95357","0.0-14.0","0CA6D66EEB91468B8A04190507F75569","019cfc83-eabb-7e95-a9a6-a534d98a61e8","019cfc7b-6c7b-7b1b-afe7-acad8efc6711","[{""page_index"":0,""viewing_time"":1833}]","1833","","","","","","","","","","","","","",""
"","","","","","instructions","15","103859","0.0-15.0","0CA6D66EEB91468B8A04190507F75569","019cfc83-eabb-7e95-a9a6-a534d98a61e8","019cfc7b-6c7b-7b1b-afe7-acad8efc6711","[{""page_index"":0,""viewing_time"":8501}]","8501","","","","","","","","","","","","","",""
"","","","","","html-keyboard-response","16","108862","0.0-16.0","0CA6D66EEB91468B8A04190507F75569","019cfc83-eabb-7e95-a9a6-a534d98a61e8","019cfc7b-6c7b-7b1b-afe7-acad8efc6711","","null","<div style=""background-color: white; width: 100vw; height: 100vh;""></div>","null","","","","","","","","","","","",""
"","","","","","html-keyboard-response","17","113867","0.0-17.0","0CA6D66EEB91468B8A04190507F75569","019cfc83-eabb-7e95-a9a6-a534d98a61e8","019cfc7b-6c7b-7b1b-afe7-acad8efc6711","","null","
                <div class=""stimulus-container"">
                    <img src=""images/semantic_sequence/maintaining_a_car_semantic/maintaining_a_car_semantic_1.png"" class=""exp-image"">
                    <div class=""question-area""></div> 
                </div>","null","","","","","","","","","","","",""
"","","","","","html-button-response","18","115029","0.0-18.0","0CA6D66EEB91468B8A04190507F75569","019cfc83-eabb-7e95-a9a6-a534d98a61e8","019cfc7b-6c7b-7b1b-afe7-acad8efc6711","","1161","
                <div class=""stimulus-container"">
                    <img src=""images/semantic_sequence/maintaining_a_car_semantic/maintaining_a_car_semantic_1.png"" class=""exp-image"">
                    <div class=""question-area"">
                        <p style=""font-size: 20px; font-weight: bold; margin: 0;"">Is there a person in this image?</p>
                    </div>
                </div>","0","main_experiment_trial","1","maintaining_a_car_semantic","semantic_sequence","chronological","","","","","","",""
"","","","","","html-keyboard-response","19","120033","0.0-19.0","0CA6D66EEB91468B8A04190507F75569","019cfc83-eabb-7e95-a9a6-a534d98a61e8","019cfc7b-6c7b-7b1b-afe7-acad8efc6711","","null","
                <div class=""stimulus-container"">
                    <img src=""images/semantic_sequence/maintaining_a_car_semantic/maintaining_a_car_semantic_2.png"" class=""exp-image"">
                    <div class=""question-area""></div> 
                </div>","null","","","","","","","","","","","",""
"","","","","","html-button-response","20","120829","0.0-20.0","0CA6D66EEB91468B8A04190507F75569","019cfc83-eabb-7e95-a9a6-a534d98a61e8","019cfc7b-6c7b-7b1b-afe7-acad8efc6711","","795","
                <div class=""stimulus-container"">
                    <img src=""images/semantic_sequence/maintaining_a_car_semantic/maintaining_a_car_semantic_2.png"" class=""exp-image"">
                    <div class=""question-area"">
                        <p style=""font-size: 20px; font-weight: bold; margin: 0;"">Is there a person in this image?</p>
                    </div>
                </div>","0","main_experiment_trial","2","maintaining_a_car_semantic","semantic_sequence","chronological","","","","","","",""
"","","","","","html-keyboard-response","21","125844","0.0-21.0","0CA6D66EEB91468B8A04190507F75569","019cfc83-eabb-7e95-a9a6-a534d98a61e8","019cfc7b-6c7b-7b1b-afe7-acad8efc6711","","null","
                <div class=""stimulus-container"">
                    <img src=""images/semantic_sequence/maintaining_a_car_semantic/maintaining_a_car_semantic_3.png"" class=""exp-image"">
                    <div class=""question-area""></div> 
                </div>","null","","","","","","","","","","","",""
"","","","","","html-button-response","22","126323","0.0-22.0","0CA6D66EEB91468B8A04190507F75569","019cfc83-eabb-7e95-a9a6-a534d98a61e8","019cfc7b-6c7b-7b1b-afe7-acad8efc6711","","478","
                <div class=""stimulus-container"">
                    <img src=""images/semantic_sequence/maintaining_a_car_semantic/maintaining_a_car_semantic_3.png"" class=""exp-image"">
                    <div class=""question-area"">
                        <p style=""font-size: 20px; font-weight: bold; margin: 0;"">Is there a person in this image?</p>
                    </div>
                </div>","0","main_experiment_trial","3","maintaining_a_car_semantic","semantic_sequence","chronological","","","","","","",""
"","","","","","html-keyboard-response","23","131325","0.0-23.0","0CA6D66EEB91468B8A04190507F75569","019cfc83-eabb-7e95-a9a6-a534d98a61e8","019cfc7b-6c7b-7b1b-afe7-acad8efc6711","","null","
                <div class=""stimulus-container"">
                    <img src=""images/semantic_sequence/maintaining_a_car_semantic/maintaining_a_car_semantic_4.png"" class=""exp-image"">
                    <div class=""question-area""></div> 
                </div>","null","","","","","","","","","","","",""
"","","","","","html-button-response","24","131905","0.0-24.0","0CA6D66EEB91468B8A04190507F75569","019cfc83-eabb-7e95-a9a6-a534d98a61e8","019cfc7b-6c7b-7b1b-afe7-acad8efc6711","","578","
                <div class=""stimulus-container"">
                    <img src=""images/semantic_sequence/maintaining_a_car_semantic/maintaining_a_car_semantic_4.png"" class=""exp-image"">
                    <div class=""question-area"">
                        <p style=""font-size: 20px; font-weight: bold; margin: 0;"">Is there a person in this image?</p>
                    </div>
                </div>","0","main_experiment_trial","4","maintaining_a_car_semantic","semantic_sequence","chronological","","","","","","",""
"","","","","","html-keyboard-response","25","136912","0.0-25.0","0CA6D66EEB91468B8A04190507F75569","019cfc83-eabb-7e95-a9a6-a534d98a61e8","019cfc7b-6c7b-7b1b-afe7-acad8efc6711","","null","
                <div class=""stimulus-container"">
                    <img src=""images/semantic_sequence/maintaining_a_car_semantic/maintaining_a_car_semantic_5.png"" class=""exp-image"">
                    <div class=""question-area""></div> 
                </div>","null","","","","","","","","","","","",""
"","","","","","html-button-response","26","137285","0.0-26.0","0CA6D66EEB91468B8A04190507F75569","019cfc83-eabb-7e95-a9a6-a534d98a61e8","019cfc7b-6c7b-7b1b-afe7-acad8efc6711","","371","
                <div class=""stimulus-container"">
                    <img src=""images/semantic_sequence/maintaining_a_car_semantic/maintaining_a_car_semantic_5.png"" class=""exp-image"">
                    <div class=""question-area"">
                        <p style=""font-size: 20px; font-weight: bold; margin: 0;"">Is there a person in this image?</p>
                    </div>
                </div>","0","main_experiment_trial","5","maintaining_a_car_semantic","semantic_sequence","chronological","","","","","","",""
"","","","","","html-keyboard-response","27","142292","0.0-27.0","0CA6D66EEB91468B8A04190507F75569","019cfc83-eabb-7e95-a9a6-a534d98a61e8","019cfc7b-6c7b-7b1b-afe7-acad8efc6711","","null","
                <div class=""stimulus-container"">
                    <img src=""images/semantic_sequence/maintaining_a_car_semantic/maintaining_a_car_semantic_6.png"" class=""exp-image"">
                    <div class=""question-area""></div> 
                </div>","null","","","","","","","","","","","",""
"","","","","","html-button-response","28","143104","0.0-28.0","0CA6D66EEB91468B8A04190507F75569","019cfc83-eabb-7e95-a9a6-a534d98a61e8","019cfc7b-6c7b-7b1b-afe7-acad8efc6711","","812","
                <div class=""stimulus-container"">
                    <img src=""images/semantic_sequence/maintaining_a_car_semantic/maintaining_a_car_semantic_6.png"" class=""exp-image"">
                    <div class=""question-area"">
                        <p style=""font-size: 20px; font-weight: bold; margin: 0;"">Is there a person in this image?</p>
                    </div>
                </div>","0","main_experiment_trial","6","maintaining_a_car_semantic","semantic_sequence","chronological","","","","","","",""
"","","","","","html-keyboard-response","29","148108","0.0-29.0","0CA6D66EEB91468B8A04190507F75569","019cfc83-eabb-7e95-a9a6-a534d98a61e8","019cfc7b-6c7b-7b1b-afe7-acad8efc6711","","null","
                <div class=""stimulus-container"">
                    <img src=""images/semantic_sequence/maintaining_a_car_semantic/maintaining_a_car_semantic_7.png"" class=""exp-image"">
                    <div class=""question-area""></div> 
                </div>","null","","","","","","","","","","","",""
"","","","","","html-button-response","30","148995","0.0-30.0","0CA6D66EEB91468B8A04190507F75569","019cfc83-eabb-7e95-a9a6-a534d98a61e8","019cfc7b-6c7b-7b1b-afe7-acad8efc6711","","885","
                <div class=""stimulus-container"">
                    <img src=""images/semantic_sequence/maintaining_a_car_semantic/maintaining_a_car_semantic_7.png"" class=""exp-image"">
                    <div class=""question-area"">
                        <p style=""font-size: 20px; font-weight: bold; margin: 0;"">Is there a person in this image?</p>
                    </div>
                </div>","0","main_experiment_trial","7","maintaining_a_car_semantic","semantic_sequence","chronological","","","","","","",""
"","","","","","html-keyboard-response","31","154016","0.0-31.0","0CA6D66EEB91468B8A04190507F75569","019cfc83-eabb-7e95-a9a6-a534d98a61e8","019cfc7b-6c7b-7b1b-afe7-acad8efc6711","","null","
                <div class=""stimulus-container"">
                    <img src=""images/semantic_sequence/maintaining_a_car_semantic/maintaining_a_car_semantic_8.png"" class=""exp-image"">
                    <div class=""question-area""></div> 
                </div>","null","","","","","","","","","","","",""
"","","","","","html-button-response","32","154859","0.0-32.0","0CA6D66EEB91468B8A04190507F75569","019cfc83-eabb-7e95-a9a6-a534d98a61e8","019cfc7b-6c7b-7b1b-afe7-acad8efc6711","","841","
                <div class=""stimulus-container"">
                    <img src=""images/semantic_sequence/maintaining_a_car_semantic/maintaining_a_car_semantic_8.png"" class=""exp-image"">
                    <div class=""question-area"">
                        <p style=""font-size: 20px; font-weight: bold; margin: 0;"">Is there a person in this image?</p>
                    </div>
                </div>","0","main_experiment_trial","8","maintaining_a_car_semantic","semantic_sequence","chronological","","","","","","",""
"","","","","","html-keyboard-response","33","159860","0.0-33.0","0CA6D66EEB91468B8A04190507F75569","019cfc83-eabb-7e95-a9a6-a534d98a61e8","019cfc7b-6c7b-7b1b-afe7-acad8efc6711","","null","
                <div class=""stimulus-container"">
                    <img src=""images/semantic_sequence/maintaining_a_car_semantic/maintaining_a_car_semantic_9.png"" class=""exp-image"">
                    <div class=""question-area""></div> 
                </div>","null","","","","","","","","","","","",""
"","","","","","html-button-response","34","160309","0.0-34.0","0CA6D66EEB91468B8A04190507F75569","019cfc83-eabb-7e95-a9a6-a534d98a61e8","019cfc7b-6c7b-7b1b-afe7-acad8efc6711","","447","
                <div class=""stimulus-container"">
                    <img src=""images/semantic_sequence/maintaining_a_car_semantic/maintaining_a_car_semantic_9.png"" class=""exp-image"">
                    <div class=""question-area"">
                        <p style=""font-size: 20px; font-weight: bold; margin: 0;"">Is there a person in this image?</p>
                    </div>
                </div>","0","main_experiment_trial","9","maintaining_a_car_semantic","semantic_sequence","chronological","","","","","","",""
"","","","","","html-keyboard-response","35","165321","0.0-35.0","0CA6D66EEB91468B8A04190507F75569","019cfc83-eabb-7e95-a9a6-a534d98a61e8","019cfc7b-6c7b-7b1b-afe7-acad8efc6711","","null","
                <div class=""stimulus-container"">
                    <img src=""images/semantic_sequence/maintaining_a_car_semantic/maintaining_a_car_semantic_ten.png"" class=""exp-image"">
                    <div class=""question-area""></div> 
                </div>","null","","","","","","","","","","","",""
"","","","","","html-button-response","36","165747","0.0-36.0","0CA6D66EEB91468B8A04190507F75569","019cfc83-eabb-7e95-a9a6-a534d98a61e8","019cfc7b-6c7b-7b1b-afe7-acad8efc6711","","425","
                <div class=""stimulus-container"">
                    <img src=""images/semantic_sequence/maintaining_a_car_semantic/maintaining_a_car_semantic_ten.png"" class=""exp-image"">
                    <div class=""question-area"">
                        <p style=""font-size: 20px; font-weight: bold; margin: 0;"">Is there a person in this image?</p>
                    </div>
                </div>","0","main_experiment_trial","ten","maintaining_a_car_semantic","semantic_sequence","chronological","","","","","","",""
"","","","","","html-keyboard-response","37","170754","0.0-37.0","0CA6D66EEB91468B8A04190507F75569","019cfc83-eabb-7e95-a9a6-a534d98a61e8","019cfc7b-6c7b-7b1b-afe7-acad8efc6711","","null","<div style=""background-color: white; width: 100vw; height: 100vh;""></div>","null","","","","","","","","","","","",""
"","","","","","html-keyboard-response","38","175771","0.0-38.0","0CA6D66EEB91468B8A04190507F75569","019cfc83-eabb-7e95-a9a6-a534d98a61e8","019cfc7b-6c7b-7b1b-afe7-acad8efc6711","","null","
                <div class=""stimulus-container"">
                    <img src=""images/schematic_sequence/restaurant_scheme/restaurant_scheme_1.png"" class=""exp-image"">
                    <div class=""question-area""></div> 
                </div>","null","","","","","","","","","","","",""
"","","","","","html-button-response","39","177013","0.0-39.0","0CA6D66EEB91468B8A04190507F75569","019cfc83-eabb-7e95-a9a6-a534d98a61e8","019cfc7b-6c7b-7b1b-afe7-acad8efc6711","","1241","
                <div class=""stimulus-container"">
                    <img src=""images/schematic_sequence/restaurant_scheme/restaurant_scheme_1.png"" class=""exp-image"">
                    <div class=""question-area"">
                        <p style=""font-size: 20px; font-weight: bold; margin: 0;"">Is there a person in this image?</p>
                    </div>
                </div>","0","main_experiment_trial","1","restaurant_scheme","schematic_sequence","chronological","","","","","","",""
"","","","","","html-keyboard-response","40","182016","0.0-40.0","0CA6D66EEB91468B8A04190507F75569","019cfc83-eabb-7e95-a9a6-a534d98a61e8","019cfc7b-6c7b-7b1b-afe7-acad8efc6711","","null","
                <div class=""stimulus-container"">
                    <img src=""images/schematic_sequence/restaurant_scheme/restaurant_scheme_2.png"" class=""exp-image"">
                    <div class=""question-area""></div> 
                </div>","null","","","","","","","","","","","",""
"","","","","","html-button-response","41","183019","0.0-41.0","0CA6D66EEB91468B8A04190507F75569","019cfc83-eabb-7e95-a9a6-a534d98a61e8","019cfc7b-6c7b-7b1b-afe7-acad8efc6711","","1002","
                <div class=""stimulus-container"">
                    <img src=""images/schematic_sequence/restaurant_scheme/restaurant_scheme_2.png"" class=""exp-image"">
                    <div class=""question-area"">
                        <p style=""font-size: 20px; font-weight: bold; margin: 0;"">Is there a person in this image?</p>
                    </div>
                </div>","1","main_experiment_trial","2","restaurant_scheme","schematic_sequence","chronological","","","","","","",""
"","","","","","html-keyboard-response","42","188024","0.0-42.0","0CA6D66EEB91468B8A04190507F75569","019cfc83-eabb-7e95-a9a6-a534d98a61e8","019cfc7b-6c7b-7b1b-afe7-acad8efc6711","","null","
                <div class=""stimulus-container"">
                    <img src=""images/schematic_sequence/restaurant_scheme/restaurant_scheme_3.png"" class=""exp-image"">
                    <div class=""question-area""></div> 
                </div>","null","","","","","","","","","","","",""
"","","","","","html-button-response","43","188761","0.0-43.0","0CA6D66EEB91468B8A04190507F75569","019cfc83-eabb-7e95-a9a6-a534d98a61e8","019cfc7b-6c7b-7b1b-afe7-acad8efc6711","","736","
                <div class=""stimulus-container"">
                    <img src=""images/schematic_sequence/restaurant_scheme/restaurant_scheme_3.png"" class=""exp-image"">
                    <div class=""question-area"">
                        <p style=""font-size: 20px; font-weight: bold; margin: 0;"">Is there a person in this image?</p>
                    </div>
                </div>","1","main_experiment_trial","3","restaurant_scheme","schematic_sequence","chronological","","","","","","",""
"","","","","","html-keyboard-response","44","193775","0.0-44.0","0CA6D66EEB91468B8A04190507F75569","019cfc83-eabb-7e95-a9a6-a534d98a61e8","019cfc7b-6c7b-7b1b-afe7-acad8efc6711","","null","
                <div class=""stimulus-container"">
                    <img src=""images/schematic_sequence/restaurant_scheme/restaurant_scheme_4.png"" class=""exp-image"">
                    <div class=""question-area""></div> 
                </div>","null","","","","","","","","","","","",""
"","","","","","html-button-response","45","194429","0.0-45.0","0CA6D66EEB91468B8A04190507F75569","019cfc83-eabb-7e95-a9a6-a534d98a61e8","019cfc7b-6c7b-7b1b-afe7-acad8efc6711","","653","
                <div class=""stimulus-container"">
                    <img src=""images/schematic_sequence/restaurant_scheme/restaurant_scheme_4.png"" class=""exp-image"">
                    <div class=""question-area"">
                        <p style=""font-size: 20px; font-weight: bold; margin: 0;"">Is there a person in this image?</p>
                    </div>
                </div>","0","main_experiment_trial","4","restaurant_scheme","schematic_sequence","chronological","","","","","","",""
"","","","","","html-keyboard-response","46","199441","0.0-46.0","0CA6D66EEB91468B8A04190507F75569","019cfc83-eabb-7e95-a9a6-a534d98a61e8","019cfc7b-6c7b-7b1b-afe7-acad8efc6711","","null","
                <div class=""stimulus-container"">
                    <img src=""images/schematic_sequence/restaurant_scheme/restaurant_scheme_5.png"" class=""exp-image"">
                    <div class=""question-area""></div> 
                </div>","null","","","","","","","","","","","",""
"","","","","","html-button-response","47","200012","0.0-47.0","0CA6D66EEB91468B8A04190507F75569","019cfc83-eabb-7e95-a9a6-a534d98a61e8","019cfc7b-6c7b-7b1b-afe7-acad8efc6711","","569","
                <div class=""stimulus-container"">
                    <img src=""images/schematic_sequence/restaurant_scheme/restaurant_scheme_5.png"" class=""exp-image"">
                    <div class=""question-area"">
                        <p style=""font-size: 20px; font-weight: bold; margin: 0;"">Is there a person in this image?</p>
                    </div>
                </div>","0","main_experiment_trial","5","restaurant_scheme","schematic_sequence","chronological","","","","","","",""
"","","","","","html-keyboard-response","48","205023","0.0-48.0","0CA6D66EEB91468B8A04190507F75569","019cfc83-eabb-7e95-a9a6-a534d98a61e8","019cfc7b-6c7b-7b1b-afe7-acad8efc6711","","null","
                <div class=""stimulus-container"">
                    <img src=""images/schematic_sequence/restaurant_scheme/restaurant_scheme_6.png"" class=""exp-image"">
                    <div class=""question-area""></div> 
                </div>","null","","","","","","","","","","","",""
"","","","","","html-button-response","49","206335","0.0-49.0","0CA6D66EEB91468B8A04190507F75569","019cfc83-eabb-7e95-a9a6-a534d98a61e8","019cfc7b-6c7b-7b1b-afe7-acad8efc6711","","1311","
                <div class=""stimulus-container"">
                    <img src=""images/schematic_sequence/restaurant_scheme/restaurant_scheme_6.png"" class=""exp-image"">
                    <div class=""question-area"">
                        <p style=""font-size: 20px; font-weight: bold; margin: 0;"">Is there a person in this image?</p>
                    </div>
                </div>","1","main_experiment_trial","6","restaurant_scheme","schematic_sequence","chronological","","","","","","",""
"","","","","","html-keyboard-response","50","211338","0.0-50.0","0CA6D66EEB91468B8A04190507F75569","019cfc83-eabb-7e95-a9a6-a534d98a61e8","019cfc7b-6c7b-7b1b-afe7-acad8efc6711","","null","
                <div class=""stimulus-container"">
                    <img src=""images/schematic_sequence/restaurant_scheme/restaurant_scheme_7.png"" class=""exp-image"">
                    <div class=""question-area""></div> 
                </div>","null","","","","","","","","","","","",""
"","","","","","html-button-response","51","211862","0.0-51.0","0CA6D66EEB91468B8A04190507F75569","019cfc83-eabb-7e95-a9a6-a534d98a61e8","019cfc7b-6c7b-7b1b-afe7-acad8efc6711","","523","
                <div class=""stimulus-container"">
                    <img src=""images/schematic_sequence/restaurant_scheme/restaurant_scheme_7.png"" class=""exp-image"">
                    <div class=""question-area"">
                        <p style=""font-size: 20px; font-weight: bold; margin: 0;"">Is there a person in this image?</p>
                    </div>
                </div>","1","main_experiment_trial","7","restaurant_scheme","schematic_sequence","chronological","","","","","","",""
"","","","","","html-keyboard-response","52","216869","0.0-52.0","0CA6D66EEB91468B8A04190507F75569","019cfc83-eabb-7e95-a9a6-a534d98a61e8","019cfc7b-6c7b-7b1b-afe7-acad8efc6711","","null","
                <div class=""stimulus-container"">
                    <img src=""images/schematic_sequence/restaurant_scheme/restaurant_scheme_8.png"" class=""exp-image"">
                    <div class=""question-area""></div> 
                </div>","null","","","","","","","","","","","",""
"","","","","","html-button-response","53","217423","0.0-53.0","0CA6D66EEB91468B8A04190507F75569","019cfc83-eabb-7e95-a9a6-a534d98a61e8","019cfc7b-6c7b-7b1b-afe7-acad8efc6711","","553","
                <div class=""stimulus-container"">
                    <img src=""images/schematic_sequence/restaurant_scheme/restaurant_scheme_8.png"" class=""exp-image"">
                    <div class=""question-area"">
                        <p style=""font-size: 20px; font-weight: bold; margin: 0;"">Is there a person in this image?</p>
                    </div>
                </div>","1","main_experiment_trial","8","restaurant_scheme","schematic_sequence","chronological","","","","","","",""
"","","","","","html-keyboard-response","54","222442","0.0-54.0","0CA6D66EEB91468B8A04190507F75569","019cfc83-eabb-7e95-a9a6-a534d98a61e8","019cfc7b-6c7b-7b1b-afe7-acad8efc6711","","null","
                <div class=""stimulus-container"">
                    <img src=""images/schematic_sequence/restaurant_scheme/restaurant_scheme_9.png"" class=""exp-image"">
                    <div class=""question-area""></div> 
                </div>","null","","","","","","","","","","","",""
"","","","","","html-button-response","55","224865","0.0-55.0","0CA6D66EEB91468B8A04190507F75569","019cfc83-eabb-7e95-a9a6-a534d98a61e8","019cfc7b-6c7b-7b1b-afe7-acad8efc6711","","2422","
                <div class=""stimulus-container"">
                    <img src=""images/schematic_sequence/restaurant_scheme/restaurant_scheme_9.png"" class=""exp-image"">
                    <div class=""question-area"">
                        <p style=""font-size: 20px; font-weight: bold; margin: 0;"">Is there a person in this image?</p>
                    </div>
                </div>","0","main_experiment_trial","9","restaurant_scheme","schematic_sequence","chronological","","","","","","",""
"","","","","","html-keyboard-response","56","229881","0.0-56.0","0CA6D66EEB91468B8A04190507F75569","019cfc83-eabb-7e95-a9a6-a534d98a61e8","019cfc7b-6c7b-7b1b-afe7-acad8efc6711","","null","
                <div class=""stimulus-container"">
                    <img src=""images/schematic_sequence/restaurant_scheme/restaurant_scheme_ten.png"" class=""exp-image"">
                    <div class=""question-area""></div> 
                </div>","null","","","","","","","","","","","",""
"","","","","","html-button-response","57","230883","0.0-57.0","0CA6D66EEB91468B8A04190507F75569","019cfc83-eabb-7e95-a9a6-a534d98a61e8","019cfc7b-6c7b-7b1b-afe7-acad8efc6711","","1000","
                <div class=""stimulus-container"">
                    <img src=""images/schematic_sequence/restaurant_scheme/restaurant_scheme_ten.png"" class=""exp-image"">
                    <div class=""question-area"">
                        <p style=""font-size: 20px; font-weight: bold; margin: 0;"">Is there a person in this image?</p>
                    </div>
                </div>","0","main_experiment_trial","ten","restaurant_scheme","schematic_sequence","chronological","","","","","","",""
"","","","","","html-keyboard-response","58","235898","0.0-58.0","0CA6D66EEB91468B8A04190507F75569","019cfc83-eabb-7e95-a9a6-a534d98a61e8","019cfc7b-6c7b-7b1b-afe7-acad8efc6711","","null","<div style=""background-color: white; width: 100vw; height: 100vh;""></div>","null","","","","","","","","","","","",""
"","","","","","html-keyboard-response","59","240900","0.0-59.0","0CA6D66EEB91468B8A04190507F75569","019cfc83-eabb-7e95-a9a6-a534d98a61e8","019cfc7b-6c7b-7b1b-afe7-acad8efc6711","","null","
                <div class=""stimulus-container"">
                    <img src=""images/semantic_sequence/physical_activity_semantic/physical_activity_semantic_1.png"" class=""exp-image"">
                    <div class=""question-area""></div> 
                </div>","null","","","","","","","","","","","",""
"","","","","","html-button-response","60","241729","0.0-60.0","0CA6D66EEB91468B8A04190507F75569","019cfc83-eabb-7e95-a9a6-a534d98a61e8","019cfc7b-6c7b-7b1b-afe7-acad8efc6711","","827","
                <div class=""stimulus-container"">
                    <img src=""images/semantic_sequence/physical_activity_semantic/physical_activity_semantic_1.png"" class=""exp-image"">
                    <div class=""question-area"">
                        <p style=""font-size: 20px; font-weight: bold; margin: 0;"">Is there a person in this image?</p>
                    </div>
                </div>","0","main_experiment_trial","1","physical_activity_semantic","semantic_sequence","chronological","","","","","","",""
"","","","","","html-keyboard-response","61","246737","0.0-61.0","0CA6D66EEB91468B8A04190507F75569","019cfc83-eabb-7e95-a9a6-a534d98a61e8","019cfc7b-6c7b-7b1b-afe7-acad8efc6711","","null","
                <div class=""stimulus-container"">
                    <img src=""images/semantic_sequence/physical_activity_semantic/physical_activity_semantic_2.png"" class=""exp-image"">
                    <div class=""question-area""></div> 
                </div>","null","","","","","","","","","","","",""
"","","","","","html-button-response","62","248017","0.0-62.0","0CA6D66EEB91468B8A04190507F75569","019cfc83-eabb-7e95-a9a6-a534d98a61e8","019cfc7b-6c7b-7b1b-afe7-acad8efc6711","","1279","
                <div class=""stimulus-container"">
                    <img src=""images/semantic_sequence/physical_activity_semantic/physical_activity_semantic_2.png"" class=""exp-image"">
                    <div class=""question-area"">
                        <p style=""font-size: 20px; font-weight: bold; margin: 0;"">Is there a person in this image?</p>
                    </div>
                </div>","0","main_experiment_trial","2","physical_activity_semantic","semantic_sequence","chronological","","","","","","",""
"","","","","","html-keyboard-response","63","253022","0.0-63.0","0CA6D66EEB91468B8A04190507F75569","019cfc83-eabb-7e95-a9a6-a534d98a61e8","019cfc7b-6c7b-7b1b-afe7-acad8efc6711","","null","
                <div class=""stimulus-container"">
                    <img src=""images/semantic_sequence/physical_activity_semantic/physical_activity_semantic_3.png"" class=""exp-image"">
                    <div class=""question-area""></div> 
                </div>","null","","","","","","","","","","","",""
"","","","","","html-button-response","64","253627","0.0-64.0","0CA6D66EEB91468B8A04190507F75569","019cfc83-eabb-7e95-a9a6-a534d98a61e8","019cfc7b-6c7b-7b1b-afe7-acad8efc6711","","603","
                <div class=""stimulus-container"">
                    <img src=""images/semantic_sequence/physical_activity_semantic/physical_activity_semantic_3.png"" class=""exp-image"">
                    <div class=""question-area"">
                        <p style=""font-size: 20px; font-weight: bold; margin: 0;"">Is there a person in this image?</p>
                    </div>
                </div>","0","main_experiment_trial","3","physical_activity_semantic","semantic_sequence","chronological","","","","","","",""
"","","","","","html-keyboard-response","65","258639","0.0-65.0","0CA6D66EEB91468B8A04190507F75569","019cfc83-eabb-7e95-a9a6-a534d98a61e8","019cfc7b-6c7b-7b1b-afe7-acad8efc6711","","null","
                <div class=""stimulus-container"">
                    <img src=""images/semantic_sequence/physical_activity_semantic/physical_activity_semantic_4.png"" class=""exp-image"">
                    <div class=""question-area""></div> 
                </div>","null","","","","","","","","","","","",""
"","","","","","html-button-response","66","259386","0.0-66.0","0CA6D66EEB91468B8A04190507F75569","019cfc83-eabb-7e95-a9a6-a534d98a61e8","019cfc7b-6c7b-7b1b-afe7-acad8efc6711","","745","
                <div class=""stimulus-container"">
                    <img src=""images/semantic_sequence/physical_activity_semantic/physical_activity_semantic_4.png"" class=""exp-image"">
                    <div class=""question-area"">
                        <p style=""font-size: 20px; font-weight: bold; margin: 0;"">Is there a person in this image?</p>
                    </div>
                </div>","0","main_experiment_trial","4","physical_activity_semantic","semantic_sequence","chronological","","","","","","",""
"","","","","","html-keyboard-response","67","264401","0.0-67.0","0CA6D66EEB91468B8A04190507F75569","019cfc83-eabb-7e95-a9a6-a534d98a61e8","019cfc7b-6c7b-7b1b-afe7-acad8efc6711","","null","
                <div class=""stimulus-container"">
                    <img src=""images/semantic_sequence/physical_activity_semantic/physical_activity_semantic_5.png"" class=""exp-image"">
                    <div class=""question-area""></div> 
                </div>","null","","","","","","","","","","","",""
"","","","","","html-button-response","68","265165","0.0-68.0","0CA6D66EEB91468B8A04190507F75569","019cfc83-eabb-7e95-a9a6-a534d98a61e8","019cfc7b-6c7b-7b1b-afe7-acad8efc6711","","762","
                <div class=""stimulus-container"">
                    <img src=""images/semantic_sequence/physical_activity_semantic/physical_activity_semantic_5.png"" class=""exp-image"">
                    <div class=""question-area"">
                        <p style=""font-size: 20px; font-weight: bold; margin: 0;"">Is there a person in this image?</p>
                    </div>
                </div>","0","main_experiment_trial","5","physical_activity_semantic","semantic_sequence","chronological","","","","","","",""
"","","","","","html-keyboard-response","69","270175","0.0-69.0","0CA6D66EEB91468B8A04190507F75569","019cfc83-eabb-7e95-a9a6-a534d98a61e8","019cfc7b-6c7b-7b1b-afe7-acad8efc6711","","null","
                <div class=""stimulus-container"">
                    <img src=""images/semantic_sequence/physical_activity_semantic/physical_activity_semantic_6.png"" class=""exp-image"">
                    <div class=""question-area""></div> 
                </div>","null","","","","","","","","","","","",""
"","","","","","html-button-response","70","270699","0.0-70.0","0CA6D66EEB91468B8A04190507F75569","019cfc83-eabb-7e95-a9a6-a534d98a61e8","019cfc7b-6c7b-7b1b-afe7-acad8efc6711","","522","
                <div class=""stimulus-container"">
                    <img src=""images/semantic_sequence/physical_activity_semantic/physical_activity_semantic_6.png"" class=""exp-image"">
                    <div class=""question-area"">
                        <p style=""font-size: 20px; font-weight: bold; margin: 0;"">Is there a person in this image?</p>
                    </div>
                </div>","0","main_experiment_trial","6","physical_activity_semantic","semantic_sequence","chronological","","","","","","",""
"","","","","","html-keyboard-response","71","275704","0.0-71.0","0CA6D66EEB91468B8A04190507F75569","019cfc83-eabb-7e95-a9a6-a534d98a61e8","019cfc7b-6c7b-7b1b-afe7-acad8efc6711","","null","
                <div class=""stimulus-container"">
                    <img src=""images/semantic_sequence/physical_activity_semantic/physical_activity_semantic_7.png"" class=""exp-image"">
                    <div class=""question-area""></div> 
                </div>","null","","","","","","","","","","","",""
"","","","","","html-button-response","72","276161","0.0-72.0","0CA6D66EEB91468B8A04190507F75569","019cfc83-eabb-7e95-a9a6-a534d98a61e8","019cfc7b-6c7b-7b1b-afe7-acad8efc6711","","455","
                <div class=""stimulus-container"">
                    <img src=""images/semantic_sequence/physical_activity_semantic/physical_activity_semantic_7.png"" class=""exp-image"">
                    <div class=""question-area"">
                        <p style=""font-size: 20px; font-weight: bold; margin: 0;"">Is there a person in this image?</p>
                    </div>
                </div>","0","main_experiment_trial","7","physical_activity_semantic","semantic_sequence","chronological","","","","","","",""
"","","","","","html-keyboard-response","73","281164","0.0-73.0","0CA6D66EEB91468B8A04190507F75569","019cfc83-eabb-7e95-a9a6-a534d98a61e8","019cfc7b-6c7b-7b1b-afe7-acad8efc6711","","null","
                <div class=""stimulus-container"">
                    <img src=""images/semantic_sequence/physical_activity_semantic/physical_activity_semantic_8.png"" class=""exp-image"">
                    <div class=""question-area""></div> 
                </div>","null","","","","","","","","","","","",""
"","","","","","html-button-response","74","281819","0.0-74.0","0CA6D66EEB91468B8A04190507F75569","019cfc83-eabb-7e95-a9a6-a534d98a61e8","019cfc7b-6c7b-7b1b-afe7-acad8efc6711","","653","
                <div class=""stimulus-container"">
                    <img src=""images/semantic_sequence/physical_activity_semantic/physical_activity_semantic_8.png"" class=""exp-image"">
                    <div class=""question-area"">
                        <p style=""font-size: 20px; font-weight: bold; margin: 0;"">Is there a person in this image?</p>
                    </div>
                </div>","0","main_experiment_trial","8","physical_activity_semantic","semantic_sequence","chronological","","","","","","",""
"","","","","","html-keyboard-response","75","286828","0.0-75.0","0CA6D66EEB91468B8A04190507F75569","019cfc83-eabb-7e95-a9a6-a534d98a61e8","019cfc7b-6c7b-7b1b-afe7-acad8efc6711","","null","
                <div class=""stimulus-container"">
                    <img src=""images/semantic_sequence/physical_activity_semantic/physical_activity_semantic_9.png"" class=""exp-image"">
                    <div class=""question-area""></div> 
                </div>","null","","","","","","","","","","","",""
"","","","","","html-button-response","76","287533","0.0-76.0","0CA6D66EEB91468B8A04190507F75569","019cfc83-eabb-7e95-a9a6-a534d98a61e8","019cfc7b-6c7b-7b1b-afe7-acad8efc6711","","703","
                <div class=""stimulus-container"">
                    <img src=""images/semantic_sequence/physical_activity_semantic/physical_activity_semantic_9.png"" class=""exp-image"">
                    <div class=""question-area"">
                        <p style=""font-size: 20px; font-weight: bold; margin: 0;"">Is there a person in this image?</p>
                    </div>
                </div>","0","main_experiment_trial","9","physical_activity_semantic","semantic_sequence","chronological","","","","","","",""
"","","","","","html-keyboard-response","77","292540","0.0-77.0","0CA6D66EEB91468B8A04190507F75569","019cfc83-eabb-7e95-a9a6-a534d98a61e8","019cfc7b-6c7b-7b1b-afe7-acad8efc6711","","null","
                <div class=""stimulus-container"">
                    <img src=""images/semantic_sequence/physical_activity_semantic/physical_activity_semantic_ten.png"" class=""exp-image"">
                    <div class=""question-area""></div> 
                </div>","null","","","","","","","","","","","",""
"","","","","","html-button-response","78","293571","0.0-78.0","0CA6D66EEB91468B8A04190507F75569","019cfc83-eabb-7e95-a9a6-a534d98a61e8","019cfc7b-6c7b-7b1b-afe7-acad8efc6711","","1029","
                <div class=""stimulus-container"">
                    <img src=""images/semantic_sequence/physical_activity_semantic/physical_activity_semantic_ten.png"" class=""exp-image"">
                    <div class=""question-area"">
                        <p style=""font-size: 20px; font-weight: bold; margin: 0;"">Is there a person in this image?</p>
                    </div>
                </div>","0","main_experiment_trial","ten","physical_activity_semantic","semantic_sequence","chronological","","","","","","",""
"","","","","","html-keyboard-response","79","298574","0.0-79.0","0CA6D66EEB91468B8A04190507F75569","019cfc83-eabb-7e95-a9a6-a534d98a61e8","019cfc7b-6c7b-7b1b-afe7-acad8efc6711","","null","<div style=""background-color: white; width: 100vw; height: 100vh;""></div>","null","","","","","","","","","","","",""
"","","","","","html-keyboard-response","80","303578","0.0-80.0","0CA6D66EEB91468B8A04190507F75569","019cfc83-eabb-7e95-a9a6-a534d98a61e8","019cfc7b-6c7b-7b1b-afe7-acad8efc6711","","null","
                <div class=""stimulus-container"">
                    <img src=""images/semantic_sequence/visiting_cities_semantic/visiting_cities_semantic_1.png"" class=""exp-image"">
                    <div class=""question-area""></div> 
                </div>","null","","","","","","","","","","","",""
"","","","","","html-button-response","81","305045","0.0-81.0","0CA6D66EEB91468B8A04190507F75569","019cfc83-eabb-7e95-a9a6-a534d98a61e8","019cfc7b-6c7b-7b1b-afe7-acad8efc6711","","1464","
                <div class=""stimulus-container"">
                    <img src=""images/semantic_sequence/visiting_cities_semantic/visiting_cities_semantic_1.png"" class=""exp-image"">
                    <div class=""question-area"">
                        <p style=""font-size: 20px; font-weight: bold; margin: 0;"">Is there a person in this image?</p>
                    </div>
                </div>","0","main_experiment_trial","1","visiting_cities_semantic","semantic_sequence","chronological","","","","","","",""
"","","","","","html-keyboard-response","82","310052","0.0-82.0","0CA6D66EEB91468B8A04190507F75569","019cfc83-eabb-7e95-a9a6-a534d98a61e8","019cfc7b-6c7b-7b1b-afe7-acad8efc6711","","null","
                <div class=""stimulus-container"">
                    <img src=""images/semantic_sequence/visiting_cities_semantic/visiting_cities_semantic_2.png"" class=""exp-image"">
                    <div class=""question-area""></div> 
                </div>","null","","","","","","","","","","","",""
"","","","","","html-button-response","83","310767","0.0-83.0","0CA6D66EEB91468B8A04190507F75569","019cfc83-eabb-7e95-a9a6-a534d98a61e8","019cfc7b-6c7b-7b1b-afe7-acad8efc6711","","713","
                <div class=""stimulus-container"">
                    <img src=""images/semantic_sequence/visiting_cities_semantic/visiting_cities_semantic_2.png"" class=""exp-image"">
                    <div class=""question-area"">
                        <p style=""font-size: 20px; font-weight: bold; margin: 0;"">Is there a person in this image?</p>
                    </div>
                </div>","1","main_experiment_trial","2","visiting_cities_semantic","semantic_sequence","chronological","","","","","","",""
"","","","","","html-keyboard-response","84","315779","0.0-84.0","0CA6D66EEB91468B8A04190507F75569","019cfc83-eabb-7e95-a9a6-a534d98a61e8","019cfc7b-6c7b-7b1b-afe7-acad8efc6711","","null","
                <div class=""stimulus-container"">
                    <img src=""images/semantic_sequence/visiting_cities_semantic/visiting_cities_semantic_3.png"" class=""exp-image"">
                    <div class=""question-area""></div> 
                </div>","null","","","","","","","","","","","",""
"","","","","","html-button-response","85","316211","0.0-85.0","0CA6D66EEB91468B8A04190507F75569","019cfc83-eabb-7e95-a9a6-a534d98a61e8","019cfc7b-6c7b-7b1b-afe7-acad8efc6711","","431","
                <div class=""stimulus-container"">
                    <img src=""images/semantic_sequence/visiting_cities_semantic/visiting_cities_semantic_3.png"" class=""exp-image"">
                    <div class=""question-area"">
                        <p style=""font-size: 20px; font-weight: bold; margin: 0;"">Is there a person in this image?</p>
                    </div>
                </div>","1","main_experiment_trial","3","visiting_cities_semantic","semantic_sequence","chronological","","","","","","",""
"","","","","","html-keyboard-response","86","321219","0.0-86.0","0CA6D66EEB91468B8A04190507F75569","019cfc83-eabb-7e95-a9a6-a534d98a61e8","019cfc7b-6c7b-7b1b-afe7-acad8efc6711","","null","
                <div class=""stimulus-container"">
                    <img src=""images/semantic_sequence/visiting_cities_semantic/visiting_cities_semantic_4.png"" class=""exp-image"">
                    <div class=""question-area""></div> 
                </div>","null","","","","","","","","","","","",""
"","","","","","html-button-response","87","321981","0.0-87.0","0CA6D66EEB91468B8A04190507F75569","019cfc83-eabb-7e95-a9a6-a534d98a61e8","019cfc7b-6c7b-7b1b-afe7-acad8efc6711","","759","
                <div class=""stimulus-container"">
                    <img src=""images/semantic_sequence/visiting_cities_semantic/visiting_cities_semantic_4.png"" class=""exp-image"">
                    <div class=""question-area"">
                        <p style=""font-size: 20px; font-weight: bold; margin: 0;"">Is there a person in this image?</p>
                    </div>
                </div>","1","main_experiment_trial","4","visiting_cities_semantic","semantic_sequence","chronological","","","","","","",""
"","","","","","html-keyboard-response","88","326986","0.0-88.0","0CA6D66EEB91468B8A04190507F75569","019cfc83-eabb-7e95-a9a6-a534d98a61e8","019cfc7b-6c7b-7b1b-afe7-acad8efc6711","","null","
                <div class=""stimulus-container"">
                    <img src=""images/semantic_sequence/visiting_cities_semantic/visiting_cities_semantic_5.png"" class=""exp-image"">
                    <div class=""question-area""></div> 
                </div>","null","","","","","","","","","","","",""
"","","","","","html-button-response","89","327633","0.0-89.0","0CA6D66EEB91468B8A04190507F75569","019cfc83-eabb-7e95-a9a6-a534d98a61e8","019cfc7b-6c7b-7b1b-afe7-acad8efc6711","","645","
                <div class=""stimulus-container"">
                    <img src=""images/semantic_sequence/visiting_cities_semantic/visiting_cities_semantic_5.png"" class=""exp-image"">
                    <div class=""question-area"">
                        <p style=""font-size: 20px; font-weight: bold; margin: 0;"">Is there a person in this image?</p>
                    </div>
                </div>","1","main_experiment_trial","5","visiting_cities_semantic","semantic_sequence","chronological","","","","","","",""
"","","","","","html-keyboard-response","90","332644","0.0-90.0","0CA6D66EEB91468B8A04190507F75569","019cfc83-eabb-7e95-a9a6-a534d98a61e8","019cfc7b-6c7b-7b1b-afe7-acad8efc6711","","null","
                <div class=""stimulus-container"">
                    <img src=""images/semantic_sequence/visiting_cities_semantic/visiting_cities_semantic_6.png"" class=""exp-image"">
                    <div class=""question-area""></div> 
                </div>","null","","","","","","","","","","","",""
"","","","","","html-button-response","91","333190","0.0-91.0","0CA6D66EEB91468B8A04190507F75569","019cfc83-eabb-7e95-a9a6-a534d98a61e8","019cfc7b-6c7b-7b1b-afe7-acad8efc6711","","544","
                <div class=""stimulus-container"">
                    <img src=""images/semantic_sequence/visiting_cities_semantic/visiting_cities_semantic_6.png"" class=""exp-image"">
                    <div class=""question-area"">
                        <p style=""font-size: 20px; font-weight: bold; margin: 0;"">Is there a person in this image?</p>
                    </div>
                </div>","1","main_experiment_trial","6","visiting_cities_semantic","semantic_sequence","chronological","","","","","","",""
"","","","","","html-keyboard-response","92","338203","0.0-92.0","0CA6D66EEB91468B8A04190507F75569","019cfc83-eabb-7e95-a9a6-a534d98a61e8","019cfc7b-6c7b-7b1b-afe7-acad8efc6711","","null","
                <div class=""stimulus-container"">
                    <img src=""images/semantic_sequence/visiting_cities_semantic/visiting_cities_semantic_7.png"" class=""exp-image"">
                    <div class=""question-area""></div> 
                </div>","null","","","","","","","","","","","",""
"","","","","","html-button-response","93","338941","0.0-93.0","0CA6D66EEB91468B8A04190507F75569","019cfc83-eabb-7e95-a9a6-a534d98a61e8","019cfc7b-6c7b-7b1b-afe7-acad8efc6711","","737","
                <div class=""stimulus-container"">
                    <img src=""images/semantic_sequence/visiting_cities_semantic/visiting_cities_semantic_7.png"" class=""exp-image"">
                    <div class=""question-area"">
                        <p style=""font-size: 20px; font-weight: bold; margin: 0;"">Is there a person in this image?</p>
                    </div>
                </div>","0","main_experiment_trial","7","visiting_cities_semantic","semantic_sequence","chronological","","","","","","",""
"","","","","","html-keyboard-response","94","343954","0.0-94.0","0CA6D66EEB91468B8A04190507F75569","019cfc83-eabb-7e95-a9a6-a534d98a61e8","019cfc7b-6c7b-7b1b-afe7-acad8efc6711","","null","
                <div class=""stimulus-container"">
                    <img src=""images/semantic_sequence/visiting_cities_semantic/visiting_cities_semantic_8.png"" class=""exp-image"">
                    <div class=""question-area""></div> 
                </div>","null","","","","","","","","","","","",""
"","","","","","html-button-response","95","344559","0.0-95.0","0CA6D66EEB91468B8A04190507F75569","019cfc83-eabb-7e95-a9a6-a534d98a61e8","019cfc7b-6c7b-7b1b-afe7-acad8efc6711","","604","
                <div class=""stimulus-container"">
                    <img src=""images/semantic_sequence/visiting_cities_semantic/visiting_cities_semantic_8.png"" class=""exp-image"">
                    <div class=""question-area"">
                        <p style=""font-size: 20px; font-weight: bold; margin: 0;"">Is there a person in this image?</p>
                    </div>
                </div>","1","main_experiment_trial","8","visiting_cities_semantic","semantic_sequence","chronological","","","","","","",""
"","","","","","html-keyboard-response","96","349574","0.0-96.0","0CA6D66EEB91468B8A04190507F75569","019cfc83-eabb-7e95-a9a6-a534d98a61e8","019cfc7b-6c7b-7b1b-afe7-acad8efc6711","","null","
                <div class=""stimulus-container"">
                    <img src=""images/semantic_sequence/visiting_cities_semantic/visiting_cities_semantic_9.png"" class=""exp-image"">
                    <div class=""question-area""></div> 
                </div>","null","","","","","","","","","","","",""
"","","","","","html-button-response","97","350051","0.0-97.0","0CA6D66EEB91468B8A04190507F75569","019cfc83-eabb-7e95-a9a6-a534d98a61e8","019cfc7b-6c7b-7b1b-afe7-acad8efc6711","","475","
                <div class=""stimulus-container"">
                    <img src=""images/semantic_sequence/visiting_cities_semantic/visiting_cities_semantic_9.png"" class=""exp-image"">
                    <div class=""question-area"">
                        <p style=""font-size: 20px; font-weight: bold; margin: 0;"">Is there a person in this image?</p>
                    </div>
                </div>","1","main_experiment_trial","9","visiting_cities_semantic","semantic_sequence","chronological","","","","","","",""
"","","","","","html-keyboard-response","98","355070","0.0-98.0","0CA6D66EEB91468B8A04190507F75569","019cfc83-eabb-7e95-a9a6-a534d98a61e8","019cfc7b-6c7b-7b1b-afe7-acad8efc6711","","null","
                <div class=""stimulus-container"">
                    <img src=""images/semantic_sequence/visiting_cities_semantic/visiting_cities_semantic_ten.png"" class=""exp-image"">
                    <div class=""question-area""></div> 
                </div>","null","","","","","","","","","","","",""
"","","","","","html-button-response","99","355523","0.0-99.0","0CA6D66EEB91468B8A04190507F75569","019cfc83-eabb-7e95-a9a6-a534d98a61e8","019cfc7b-6c7b-7b1b-afe7-acad8efc6711","","452","
                <div class=""stimulus-container"">
                    <img src=""images/semantic_sequence/visiting_cities_semantic/visiting_cities_semantic_ten.png"" class=""exp-image"">
                    <div class=""question-area"">
                        <p style=""font-size: 20px; font-weight: bold; margin: 0;"">Is there a person in this image?</p>
                    </div>
                </div>","1","main_experiment_trial","ten","visiting_cities_semantic","semantic_sequence","chronological","","","","","","",""
"","","","","","html-keyboard-response","100","360528","0.0-100.0","0CA6D66EEB91468B8A04190507F75569","019cfc83-eabb-7e95-a9a6-a534d98a61e8","019cfc7b-6c7b-7b1b-afe7-acad8efc6711","","null","<div style=""background-color: white; width: 100vw; height: 100vh;""></div>","null","","","","","","","","","","","",""
"","","","","","html-keyboard-response","101","365536","0.0-101.0","0CA6D66EEB91468B8A04190507F75569","019cfc83-eabb-7e95-a9a6-a534d98a61e8","019cfc7b-6c7b-7b1b-afe7-acad8efc6711","","null","
                <div class=""stimulus-container"">
                    <img src=""images/causal_sequence/coin_causal/coin_causal_1.png"" class=""exp-image"">
                    <div class=""question-area""></div> 
                </div>","null","","","","","","","","","","","",""
"","","","","","html-button-response","102","366502","0.0-102.0","0CA6D66EEB91468B8A04190507F75569","019cfc83-eabb-7e95-a9a6-a534d98a61e8","019cfc7b-6c7b-7b1b-afe7-acad8efc6711","","964","
                <div class=""stimulus-container"">
                    <img src=""images/causal_sequence/coin_causal/coin_causal_1.png"" class=""exp-image"">
                    <div class=""question-area"">
                        <p style=""font-size: 20px; font-weight: bold; margin: 0;"">Is there a person in this image?</p>
                    </div>
                </div>","0","main_experiment_trial","1","coin_causal","causal_sequence","chronological","","","","","","",""
"","","","","","html-keyboard-response","103","371514","0.0-103.0","0CA6D66EEB91468B8A04190507F75569","019cfc83-eabb-7e95-a9a6-a534d98a61e8","019cfc7b-6c7b-7b1b-afe7-acad8efc6711","","null","
                <div class=""stimulus-container"">
                    <img src=""images/causal_sequence/coin_causal/coin_causal_2.png"" class=""exp-image"">
                    <div class=""question-area""></div> 
                </div>","null","","","","","","","","","","","",""
"","","","","","html-button-response","104","371993","0.0-104.0","0CA6D66EEB91468B8A04190507F75569","019cfc83-eabb-7e95-a9a6-a534d98a61e8","019cfc7b-6c7b-7b1b-afe7-acad8efc6711","","478","
                <div class=""stimulus-container"">
                    <img src=""images/causal_sequence/coin_causal/coin_causal_2.png"" class=""exp-image"">
                    <div class=""question-area"">
                        <p style=""font-size: 20px; font-weight: bold; margin: 0;"">Is there a person in this image?</p>
                    </div>
                </div>","0","main_experiment_trial","2","coin_causal","causal_sequence","chronological","","","","","","",""
"","","","","","html-keyboard-response","105","376996","0.0-105.0","0CA6D66EEB91468B8A04190507F75569","019cfc83-eabb-7e95-a9a6-a534d98a61e8","019cfc7b-6c7b-7b1b-afe7-acad8efc6711","","null","
                <div class=""stimulus-container"">
                    <img src=""images/causal_sequence/coin_causal/coin_causal_3.png"" class=""exp-image"">
                    <div class=""question-area""></div> 
                </div>","null","","","","","","","","","","","",""
"","","","","","html-button-response","106","377411","0.0-106.0","0CA6D66EEB91468B8A04190507F75569","019cfc83-eabb-7e95-a9a6-a534d98a61e8","019cfc7b-6c7b-7b1b-afe7-acad8efc6711","","413","
                <div class=""stimulus-container"">
                    <img src=""images/causal_sequence/coin_causal/coin_causal_3.png"" class=""exp-image"">
                    <div class=""question-area"">
                        <p style=""font-size: 20px; font-weight: bold; margin: 0;"">Is there a person in this image?</p>
                    </div>
                </div>","0","main_experiment_trial","3","coin_causal","causal_sequence","chronological","","","","","","",""
"","","","","","html-keyboard-response","107","382424","0.0-107.0","0CA6D66EEB91468B8A04190507F75569","019cfc83-eabb-7e95-a9a6-a534d98a61e8","019cfc7b-6c7b-7b1b-afe7-acad8efc6711","","null","
                <div class=""stimulus-container"">
                    <img src=""images/causal_sequence/coin_causal/coin_causal_4.png"" class=""exp-image"">
                    <div class=""question-area""></div> 
                </div>","null","","","","","","","","","","","",""
"","","","","","html-button-response","108","383089","0.0-108.0","0CA6D66EEB91468B8A04190507F75569","019cfc83-eabb-7e95-a9a6-a534d98a61e8","019cfc7b-6c7b-7b1b-afe7-acad8efc6711","","663","
                <div class=""stimulus-container"">
                    <img src=""images/causal_sequence/coin_causal/coin_causal_4.png"" class=""exp-image"">
                    <div class=""question-area"">
                        <p style=""font-size: 20px; font-weight: bold; margin: 0;"">Is there a person in this image?</p>
                    </div>
                </div>","0","main_experiment_trial","4","coin_causal","causal_sequence","chronological","","","","","","",""
"","","","","","html-keyboard-response","109","388104","0.0-109.0","0CA6D66EEB91468B8A04190507F75569","019cfc83-eabb-7e95-a9a6-a534d98a61e8","019cfc7b-6c7b-7b1b-afe7-acad8efc6711","","null","
                <div class=""stimulus-container"">
                    <img src=""images/causal_sequence/coin_causal/coin_causal_5.png"" class=""exp-image"">
                    <div class=""question-area""></div> 
                </div>","null","","","","","","","","","","","",""
"","","","","","html-button-response","110","388543","0.0-110.0","0CA6D66EEB91468B8A04190507F75569","019cfc83-eabb-7e95-a9a6-a534d98a61e8","019cfc7b-6c7b-7b1b-afe7-acad8efc6711","","437","
                <div class=""stimulus-container"">
                    <img src=""images/causal_sequence/coin_causal/coin_causal_5.png"" class=""exp-image"">
                    <div class=""question-area"">
                        <p style=""font-size: 20px; font-weight: bold; margin: 0;"">Is there a person in this image?</p>
                    </div>
                </div>","0","main_experiment_trial","5","coin_causal","causal_sequence","chronological","","","","","","",""
"","","","","","html-keyboard-response","111","393550","0.0-111.0","0CA6D66EEB91468B8A04190507F75569","019cfc83-eabb-7e95-a9a6-a534d98a61e8","019cfc7b-6c7b-7b1b-afe7-acad8efc6711","","null","
                <div class=""stimulus-container"">
                    <img src=""images/causal_sequence/coin_causal/coin_causal_6.png"" class=""exp-image"">
                    <div class=""question-area""></div> 
                </div>","null","","","","","","","","","","","",""
"","","","","","html-button-response","112","393933","0.0-112.0","0CA6D66EEB91468B8A04190507F75569","019cfc83-eabb-7e95-a9a6-a534d98a61e8","019cfc7b-6c7b-7b1b-afe7-acad8efc6711","","381","
                <div class=""stimulus-container"">
                    <img src=""images/causal_sequence/coin_causal/coin_causal_6.png"" class=""exp-image"">
                    <div class=""question-area"">
                        <p style=""font-size: 20px; font-weight: bold; margin: 0;"">Is there a person in this image?</p>
                    </div>
                </div>","0","main_experiment_trial","6","coin_causal","causal_sequence","chronological","","","","","","",""
"","","","","","html-keyboard-response","113","398951","0.0-113.0","0CA6D66EEB91468B8A04190507F75569","019cfc83-eabb-7e95-a9a6-a534d98a61e8","019cfc7b-6c7b-7b1b-afe7-acad8efc6711","","null","
                <div class=""stimulus-container"">
                    <img src=""images/causal_sequence/coin_causal/coin_causal_7.png"" class=""exp-image"">
                    <div class=""question-area""></div> 
                </div>","null","","","","","","","","","","","",""
"","","","","","html-button-response","114","399950","0.0-114.0","0CA6D66EEB91468B8A04190507F75569","019cfc83-eabb-7e95-a9a6-a534d98a61e8","019cfc7b-6c7b-7b1b-afe7-acad8efc6711","","997","
                <div class=""stimulus-container"">
                    <img src=""images/causal_sequence/coin_causal/coin_causal_7.png"" class=""exp-image"">
                    <div class=""question-area"">
                        <p style=""font-size: 20px; font-weight: bold; margin: 0;"">Is there a person in this image?</p>
                    </div>
                </div>","1","main_experiment_trial","7","coin_causal","causal_sequence","chronological","","","","","","",""
"","","","","","html-keyboard-response","115","404960","0.0-115.0","0CA6D66EEB91468B8A04190507F75569","019cfc83-eabb-7e95-a9a6-a534d98a61e8","019cfc7b-6c7b-7b1b-afe7-acad8efc6711","","null","
                <div class=""stimulus-container"">
                    <img src=""images/causal_sequence/coin_causal/coin_causal_8.png"" class=""exp-image"">
                    <div class=""question-area""></div> 
                </div>","null","","","","","","","","","","","",""
"","","","","","html-button-response","116","405823","0.0-116.0","0CA6D66EEB91468B8A04190507F75569","019cfc83-eabb-7e95-a9a6-a534d98a61e8","019cfc7b-6c7b-7b1b-afe7-acad8efc6711","","862","
                <div class=""stimulus-container"">
                    <img src=""images/causal_sequence/coin_causal/coin_causal_8.png"" class=""exp-image"">
                    <div class=""question-area"">
                        <p style=""font-size: 20px; font-weight: bold; margin: 0;"">Is there a person in this image?</p>
                    </div>
                </div>","0","main_experiment_trial","8","coin_causal","causal_sequence","chronological","","","","","","",""
"","","","","","html-keyboard-response","117","410837","0.0-117.0","0CA6D66EEB91468B8A04190507F75569","019cfc83-eabb-7e95-a9a6-a534d98a61e8","019cfc7b-6c7b-7b1b-afe7-acad8efc6711","","null","
                <div class=""stimulus-container"">
                    <img src=""images/causal_sequence/coin_causal/coin_causal_9.png"" class=""exp-image"">
                    <div class=""question-area""></div> 
                </div>","null","","","","","","","","","","","",""
"","","","","","html-button-response","118","411661","0.0-118.0","0CA6D66EEB91468B8A04190507F75569","019cfc83-eabb-7e95-a9a6-a534d98a61e8","019cfc7b-6c7b-7b1b-afe7-acad8efc6711","","822","
                <div class=""stimulus-container"">
                    <img src=""images/causal_sequence/coin_causal/coin_causal_9.png"" class=""exp-image"">
                    <div class=""question-area"">
                        <p style=""font-size: 20px; font-weight: bold; margin: 0;"">Is there a person in this image?</p>
                    </div>
                </div>","0","main_experiment_trial","9","coin_causal","causal_sequence","chronological","","","","","","",""
"","","","","","html-keyboard-response","119","416677","0.0-119.0","0CA6D66EEB91468B8A04190507F75569","019cfc83-eabb-7e95-a9a6-a534d98a61e8","019cfc7b-6c7b-7b1b-afe7-acad8efc6711","","null","
                <div class=""stimulus-container"">
                    <img src=""images/causal_sequence/coin_causal/coin_causal_ten.png"" class=""exp-image"">
                    <div class=""question-area""></div> 
                </div>","null","","","","","","","","","","","",""
"","","","","","html-button-response","120","417329","0.0-120.0","0CA6D66EEB91468B8A04190507F75569","019cfc83-eabb-7e95-a9a6-a534d98a61e8","019cfc7b-6c7b-7b1b-afe7-acad8efc6711","","650","
                <div class=""stimulus-container"">
                    <img src=""images/causal_sequence/coin_causal/coin_causal_ten.png"" class=""exp-image"">
                    <div class=""question-area"">
                        <p style=""font-size: 20px; font-weight: bold; margin: 0;"">Is there a person in this image?</p>
                    </div>
                </div>","0","main_experiment_trial","ten","coin_causal","causal_sequence","chronological","","","","","","",""
"","","","","","html-keyboard-response","121","422338","0.0-121.0","0CA6D66EEB91468B8A04190507F75569","019cfc83-eabb-7e95-a9a6-a534d98a61e8","019cfc7b-6c7b-7b1b-afe7-acad8efc6711","","null","<div style=""background-color: white; width: 100vw; height: 100vh;""></div>","null","","","","","","","","","","","",""
"","","","","","html-keyboard-response","122","427357","0.0-122.0","0CA6D66EEB91468B8A04190507F75569","019cfc83-eabb-7e95-a9a6-a534d98a61e8","019cfc7b-6c7b-7b1b-afe7-acad8efc6711","","null","
                <div class=""stimulus-container"">
                    <img src=""images/causal_sequence/saving_a_cat_causal/saving_a_cat_causal_1.png"" class=""exp-image"">
                    <div class=""question-area""></div> 
                </div>","null","","","","","","","","","","","",""
"","","","","","html-button-response","123","427990","0.0-123.0","0CA6D66EEB91468B8A04190507F75569","019cfc83-eabb-7e95-a9a6-a534d98a61e8","019cfc7b-6c7b-7b1b-afe7-acad8efc6711","","631","
                <div class=""stimulus-container"">
                    <img src=""images/causal_sequence/saving_a_cat_causal/saving_a_cat_causal_1.png"" class=""exp-image"">
                    <div class=""question-area"">
                        <p style=""font-size: 20px; font-weight: bold; margin: 0;"">Is there a person in this image?</p>
                    </div>
                </div>","0","main_experiment_trial","1","saving_a_cat_causal","causal_sequence","chronological","","","","","","",""
"","","","","","html-keyboard-response","124","432994","0.0-124.0","0CA6D66EEB91468B8A04190507F75569","019cfc83-eabb-7e95-a9a6-a534d98a61e8","019cfc7b-6c7b-7b1b-afe7-acad8efc6711","","null","
                <div class=""stimulus-container"">
                    <img src=""images/causal_sequence/saving_a_cat_causal/saving_a_cat_causal_2.png"" class=""exp-image"">
                    <div class=""question-area""></div> 
                </div>","null","","","","","","","","","","","",""
"","","","","","html-button-response","125","433727","0.0-125.0","0CA6D66EEB91468B8A04190507F75569","019cfc83-eabb-7e95-a9a6-a534d98a61e8","019cfc7b-6c7b-7b1b-afe7-acad8efc6711","","731","
                <div class=""stimulus-container"">
                    <img src=""images/causal_sequence/saving_a_cat_causal/saving_a_cat_causal_2.png"" class=""exp-image"">
                    <div class=""question-area"">
                        <p style=""font-size: 20px; font-weight: bold; margin: 0;"">Is there a person in this image?</p>
                    </div>
                </div>","1","main_experiment_trial","2","saving_a_cat_causal","causal_sequence","chronological","","","","","","",""
"","","","","","html-keyboard-response","126","438736","0.0-126.0","0CA6D66EEB91468B8A04190507F75569","019cfc83-eabb-7e95-a9a6-a534d98a61e8","019cfc7b-6c7b-7b1b-afe7-acad8efc6711","","null","
                <div class=""stimulus-container"">
                    <img src=""images/causal_sequence/saving_a_cat_causal/saving_a_cat_causal_3.png"" class=""exp-image"">
                    <div class=""question-area""></div> 
                </div>","null","","","","","","","","","","","",""
"","","","","","html-button-response","127","439211","0.0-127.0","0CA6D66EEB91468B8A04190507F75569","019cfc83-eabb-7e95-a9a6-a534d98a61e8","019cfc7b-6c7b-7b1b-afe7-acad8efc6711","","474","
                <div class=""stimulus-container"">
                    <img src=""images/causal_sequence/saving_a_cat_causal/saving_a_cat_causal_3.png"" class=""exp-image"">
                    <div class=""question-area"">
                        <p style=""font-size: 20px; font-weight: bold; margin: 0;"">Is there a person in this image?</p>
                    </div>
                </div>","1","main_experiment_trial","3","saving_a_cat_causal","causal_sequence","chronological","","","","","","",""
"","","","","","html-keyboard-response","128","444219","0.0-128.0","0CA6D66EEB91468B8A04190507F75569","019cfc83-eabb-7e95-a9a6-a534d98a61e8","019cfc7b-6c7b-7b1b-afe7-acad8efc6711","","null","
                <div class=""stimulus-container"">
                    <img src=""images/causal_sequence/saving_a_cat_causal/saving_a_cat_causal_4.png"" class=""exp-image"">
                    <div class=""question-area""></div> 
                </div>","null","","","","","","","","","","","",""
"","","","","","html-button-response","129","445093","0.0-129.0","0CA6D66EEB91468B8A04190507F75569","019cfc83-eabb-7e95-a9a6-a534d98a61e8","019cfc7b-6c7b-7b1b-afe7-acad8efc6711","","872","
                <div class=""stimulus-container"">
                    <img src=""images/causal_sequence/saving_a_cat_causal/saving_a_cat_causal_4.png"" class=""exp-image"">
                    <div class=""question-area"">
                        <p style=""font-size: 20px; font-weight: bold; margin: 0;"">Is there a person in this image?</p>
                    </div>
                </div>","0","main_experiment_trial","4","saving_a_cat_causal","causal_sequence","chronological","","","","","","",""
"","","","","","html-keyboard-response","130","450108","0.0-130.0","0CA6D66EEB91468B8A04190507F75569","019cfc83-eabb-7e95-a9a6-a534d98a61e8","019cfc7b-6c7b-7b1b-afe7-acad8efc6711","","null","
                <div class=""stimulus-container"">
                    <img src=""images/causal_sequence/saving_a_cat_causal/saving_a_cat_causal_5.png"" class=""exp-image"">
                    <div class=""question-area""></div> 
                </div>","null","","","","","","","","","","","",""
"","","","","","html-button-response","131","451237","0.0-131.0","0CA6D66EEB91468B8A04190507F75569","019cfc83-eabb-7e95-a9a6-a534d98a61e8","019cfc7b-6c7b-7b1b-afe7-acad8efc6711","","1127","
                <div class=""stimulus-container"">
                    <img src=""images/causal_sequence/saving_a_cat_causal/saving_a_cat_causal_5.png"" class=""exp-image"">
                    <div class=""question-area"">
                        <p style=""font-size: 20px; font-weight: bold; margin: 0;"">Is there a person in this image?</p>
                    </div>
                </div>","0","main_experiment_trial","5","saving_a_cat_causal","causal_sequence","chronological","","","","","","",""
"","","","","","html-keyboard-response","132","456241","0.0-132.0","0CA6D66EEB91468B8A04190507F75569","019cfc83-eabb-7e95-a9a6-a534d98a61e8","019cfc7b-6c7b-7b1b-afe7-acad8efc6711","","null","
                <div class=""stimulus-container"">
                    <img src=""images/causal_sequence/saving_a_cat_causal/saving_a_cat_causal_6.png"" class=""exp-image"">
                    <div class=""question-area""></div> 
                </div>","null","","","","","","","","","","","",""
"","","","","","html-button-response","133","457533","0.0-133.0","0CA6D66EEB91468B8A04190507F75569","019cfc83-eabb-7e95-a9a6-a534d98a61e8","019cfc7b-6c7b-7b1b-afe7-acad8efc6711","","1290","
                <div class=""stimulus-container"">
                    <img src=""images/causal_sequence/saving_a_cat_causal/saving_a_cat_causal_6.png"" class=""exp-image"">
                    <div class=""question-area"">
                        <p style=""font-size: 20px; font-weight: bold; margin: 0;"">Is there a person in this image?</p>
                    </div>
                </div>","0","main_experiment_trial","6","saving_a_cat_causal","causal_sequence","chronological","","","","","","",""
"","","","","","html-keyboard-response","134","462543","0.0-134.0","0CA6D66EEB91468B8A04190507F75569","019cfc83-eabb-7e95-a9a6-a534d98a61e8","019cfc7b-6c7b-7b1b-afe7-acad8efc6711","","null","
                <div class=""stimulus-container"">
                    <img src=""images/causal_sequence/saving_a_cat_causal/saving_a_cat_causal_7.png"" class=""exp-image"">
                    <div class=""question-area""></div> 
                </div>","null","","","","","","","","","","","",""
"","","","","","html-button-response","135","462983","0.0-135.0","0CA6D66EEB91468B8A04190507F75569","019cfc83-eabb-7e95-a9a6-a534d98a61e8","019cfc7b-6c7b-7b1b-afe7-acad8efc6711","","438","
                <div class=""stimulus-container"">
                    <img src=""images/causal_sequence/saving_a_cat_causal/saving_a_cat_causal_7.png"" class=""exp-image"">
                    <div class=""question-area"">
                        <p style=""font-size: 20px; font-weight: bold; margin: 0;"">Is there a person in this image?</p>
                    </div>
                </div>","0","main_experiment_trial","7","saving_a_cat_causal","causal_sequence","chronological","","","","","","",""
"","","","","","html-keyboard-response","136","467992","0.0-136.0","0CA6D66EEB91468B8A04190507F75569","019cfc83-eabb-7e95-a9a6-a534d98a61e8","019cfc7b-6c7b-7b1b-afe7-acad8efc6711","","null","
                <div class=""stimulus-container"">
                    <img src=""images/causal_sequence/saving_a_cat_causal/saving_a_cat_causal_8.png"" class=""exp-image"">
                    <div class=""question-area""></div> 
                </div>","null","","","","","","","","","","","",""
"","","","","","html-button-response","137","468770","0.0-137.0","0CA6D66EEB91468B8A04190507F75569","019cfc83-eabb-7e95-a9a6-a534d98a61e8","019cfc7b-6c7b-7b1b-afe7-acad8efc6711","","777","
                <div class=""stimulus-container"">
                    <img src=""images/causal_sequence/saving_a_cat_causal/saving_a_cat_causal_8.png"" class=""exp-image"">
                    <div class=""question-area"">
                        <p style=""font-size: 20px; font-weight: bold; margin: 0;"">Is there a person in this image?</p>
                    </div>
                </div>","0","main_experiment_trial","8","saving_a_cat_causal","causal_sequence","chronological","","","","","","",""
"","","","","","html-keyboard-response","138","473785","0.0-138.0","0CA6D66EEB91468B8A04190507F75569","019cfc83-eabb-7e95-a9a6-a534d98a61e8","019cfc7b-6c7b-7b1b-afe7-acad8efc6711","","null","
                <div class=""stimulus-container"">
                    <img src=""images/causal_sequence/saving_a_cat_causal/saving_a_cat_causal_9.png"" class=""exp-image"">
                    <div class=""question-area""></div> 
                </div>","null","","","","","","","","","","","",""
"","","","","","html-button-response","139","474235","0.0-139.0","0CA6D66EEB91468B8A04190507F75569","019cfc83-eabb-7e95-a9a6-a534d98a61e8","019cfc7b-6c7b-7b1b-afe7-acad8efc6711","","447","
                <div class=""stimulus-container"">
                    <img src=""images/causal_sequence/saving_a_cat_causal/saving_a_cat_causal_9.png"" class=""exp-image"">
                    <div class=""question-area"">
                        <p style=""font-size: 20px; font-weight: bold; margin: 0;"">Is there a person in this image?</p>
                    </div>
                </div>","0","main_experiment_trial","9","saving_a_cat_causal","causal_sequence","chronological","","","","","","",""
"","","","","","html-keyboard-response","140","479242","0.0-140.0","0CA6D66EEB91468B8A04190507F75569","019cfc83-eabb-7e95-a9a6-a534d98a61e8","019cfc7b-6c7b-7b1b-afe7-acad8efc6711","","null","
                <div class=""stimulus-container"">
                    <img src=""images/causal_sequence/saving_a_cat_causal/saving_a_cat_causal_ten.png"" class=""exp-image"">
                    <div class=""question-area""></div> 
                </div>","null","","","","","","","","","","","",""
"","","","","","html-button-response","141","479639","0.0-141.0","0CA6D66EEB91468B8A04190507F75569","019cfc83-eabb-7e95-a9a6-a534d98a61e8","019cfc7b-6c7b-7b1b-afe7-acad8efc6711","","395","
                <div class=""stimulus-container"">
                    <img src=""images/causal_sequence/saving_a_cat_causal/saving_a_cat_causal_ten.png"" class=""exp-image"">
                    <div class=""question-area"">
                        <p style=""font-size: 20px; font-weight: bold; margin: 0;"">Is there a person in this image?</p>
                    </div>
                </div>","0","main_experiment_trial","ten","saving_a_cat_causal","causal_sequence","chronological","","","","","","",""
"","","","","","html-keyboard-response","142","484658","0.0-142.0","0CA6D66EEB91468B8A04190507F75569","019cfc83-eabb-7e95-a9a6-a534d98a61e8","019cfc7b-6c7b-7b1b-afe7-acad8efc6711","","null","<div style=""background-color: white; width: 100vw; height: 100vh;""></div>","null","","","","","","","","","","","",""
"","","","","","html-keyboard-response","143","489669","0.0-143.0","0CA6D66EEB91468B8A04190507F75569","019cfc83-eabb-7e95-a9a6-a534d98a61e8","019cfc7b-6c7b-7b1b-afe7-acad8efc6711","","null","
                <div class=""stimulus-container"">
                    <img src=""images/causal_sequence/package_causal/package_causal_1.png"" class=""exp-image"">
                    <div class=""question-area""></div> 
                </div>","null","","","","","","","","","","","",""
"","","","","","html-button-response","144","490543","0.0-144.0","0CA6D66EEB91468B8A04190507F75569","019cfc83-eabb-7e95-a9a6-a534d98a61e8","019cfc7b-6c7b-7b1b-afe7-acad8efc6711","","872","
                <div class=""stimulus-container"">
                    <img src=""images/causal_sequence/package_causal/package_causal_1.png"" class=""exp-image"">
                    <div class=""question-area"">
                        <p style=""font-size: 20px; font-weight: bold; margin: 0;"">Is there a person in this image?</p>
                    </div>
                </div>","0","main_experiment_trial","1","package_causal","causal_sequence","chronological","","","","","","",""
"","","","","","html-keyboard-response","145","495555","0.0-145.0","0CA6D66EEB91468B8A04190507F75569","019cfc83-eabb-7e95-a9a6-a534d98a61e8","019cfc7b-6c7b-7b1b-afe7-acad8efc6711","","null","
                <div class=""stimulus-container"">
                    <img src=""images/causal_sequence/package_causal/package_causal_2.png"" class=""exp-image"">
                    <div class=""question-area""></div> 
                </div>","null","","","","","","","","","","","",""
"","","","","","html-button-response","146","496059","0.0-146.0","0CA6D66EEB91468B8A04190507F75569","019cfc83-eabb-7e95-a9a6-a534d98a61e8","019cfc7b-6c7b-7b1b-afe7-acad8efc6711","","502","
                <div class=""stimulus-container"">
                    <img src=""images/causal_sequence/package_causal/package_causal_2.png"" class=""exp-image"">
                    <div class=""question-area"">
                        <p style=""font-size: 20px; font-weight: bold; margin: 0;"">Is there a person in this image?</p>
                    </div>
                </div>","0","main_experiment_trial","2","package_causal","causal_sequence","chronological","","","","","","",""
"","","","","","html-keyboard-response","147","501075","0.0-147.0","0CA6D66EEB91468B8A04190507F75569","019cfc83-eabb-7e95-a9a6-a534d98a61e8","019cfc7b-6c7b-7b1b-afe7-acad8efc6711","","null","
                <div class=""stimulus-container"">
                    <img src=""images/causal_sequence/package_causal/package_causal_3.png"" class=""exp-image"">
                    <div class=""question-area""></div> 
                </div>","null","","","","","","","","","","","",""
"","","","","","html-button-response","148","501960","0.0-148.0","0CA6D66EEB91468B8A04190507F75569","019cfc83-eabb-7e95-a9a6-a534d98a61e8","019cfc7b-6c7b-7b1b-afe7-acad8efc6711","","882","
                <div class=""stimulus-container"">
                    <img src=""images/causal_sequence/package_causal/package_causal_3.png"" class=""exp-image"">
                    <div class=""question-area"">
                        <p style=""font-size: 20px; font-weight: bold; margin: 0;"">Is there a person in this image?</p>
                    </div>
                </div>","0","main_experiment_trial","3","package_causal","causal_sequence","chronological","","","","","","",""
"","","","","","html-keyboard-response","149","506976","0.0-149.0","0CA6D66EEB91468B8A04190507F75569","019cfc83-eabb-7e95-a9a6-a534d98a61e8","019cfc7b-6c7b-7b1b-afe7-acad8efc6711","","null","
                <div class=""stimulus-container"">
                    <img src=""images/causal_sequence/package_causal/package_causal_4.png"" class=""exp-image"">
                    <div class=""question-area""></div> 
                </div>","null","","","","","","","","","","","",""
"","","","","","html-button-response","150","507611","0.0-150.0","0CA6D66EEB91468B8A04190507F75569","019cfc83-eabb-7e95-a9a6-a534d98a61e8","019cfc7b-6c7b-7b1b-afe7-acad8efc6711","","633","
                <div class=""stimulus-container"">
                    <img src=""images/causal_sequence/package_causal/package_causal_4.png"" class=""exp-image"">
                    <div class=""question-area"">
                        <p style=""font-size: 20px; font-weight: bold; margin: 0;"">Is there a person in this image?</p>
                    </div>
                </div>","1","main_experiment_trial","4","package_causal","causal_sequence","chronological","","","","","","",""
"","","","","","html-keyboard-response","151","512620","0.0-151.0","0CA6D66EEB91468B8A04190507F75569","019cfc83-eabb-7e95-a9a6-a534d98a61e8","019cfc7b-6c7b-7b1b-afe7-acad8efc6711","","null","
                <div class=""stimulus-container"">
                    <img src=""images/causal_sequence/package_causal/package_causal_5.png"" class=""exp-image"">
                    <div class=""question-area""></div> 
                </div>","null","","","","","","","","","","","",""
"","","","","","html-button-response","152","513163","0.0-152.0","0CA6D66EEB91468B8A04190507F75569","019cfc83-eabb-7e95-a9a6-a534d98a61e8","019cfc7b-6c7b-7b1b-afe7-acad8efc6711","","541","
                <div class=""stimulus-container"">
                    <img src=""images/causal_sequence/package_causal/package_causal_5.png"" class=""exp-image"">
                    <div class=""question-area"">
                        <p style=""font-size: 20px; font-weight: bold; margin: 0;"">Is there a person in this image?</p>
                    </div>
                </div>","0","main_experiment_trial","5","package_causal","causal_sequence","chronological","","","","","","",""
"","","","","","html-keyboard-response","153","518165","0.0-153.0","0CA6D66EEB91468B8A04190507F75569","019cfc83-eabb-7e95-a9a6-a534d98a61e8","019cfc7b-6c7b-7b1b-afe7-acad8efc6711","","null","
                <div class=""stimulus-container"">
                    <img src=""images/causal_sequence/package_causal/package_causal_6.png"" class=""exp-image"">
                    <div class=""question-area""></div> 
                </div>","null","","","","","","","","","","","",""
"","","","","","html-button-response","154","518667","0.0-154.0","0CA6D66EEB91468B8A04190507F75569","019cfc83-eabb-7e95-a9a6-a534d98a61e8","019cfc7b-6c7b-7b1b-afe7-acad8efc6711","","500","
                <div class=""stimulus-container"">
                    <img src=""images/causal_sequence/package_causal/package_causal_6.png"" class=""exp-image"">
                    <div class=""question-area"">
                        <p style=""font-size: 20px; font-weight: bold; margin: 0;"">Is there a person in this image?</p>
                    </div>
                </div>","0","main_experiment_trial","6","package_causal","causal_sequence","chronological","","","","","","",""
"","","","","","html-keyboard-response","155","523674","0.0-155.0","0CA6D66EEB91468B8A04190507F75569","019cfc83-eabb-7e95-a9a6-a534d98a61e8","019cfc7b-6c7b-7b1b-afe7-acad8efc6711","","null","
                <div class=""stimulus-container"">
                    <img src=""images/causal_sequence/package_causal/package_causal_7.png"" class=""exp-image"">
                    <div class=""question-area""></div> 
                </div>","null","","","","","","","","","","","",""
"","","","","","html-button-response","156","524131","0.0-156.0","0CA6D66EEB91468B8A04190507F75569","019cfc83-eabb-7e95-a9a6-a534d98a61e8","019cfc7b-6c7b-7b1b-afe7-acad8efc6711","","455","
                <div class=""stimulus-container"">
                    <img src=""images/causal_sequence/package_causal/package_causal_7.png"" class=""exp-image"">
                    <div class=""question-area"">
                        <p style=""font-size: 20px; font-weight: bold; margin: 0;"">Is there a person in this image?</p>
                    </div>
                </div>","0","main_experiment_trial","7","package_causal","causal_sequence","chronological","","","","","","",""
"","","","","","html-keyboard-response","157","529147","0.0-157.0","0CA6D66EEB91468B8A04190507F75569","019cfc83-eabb-7e95-a9a6-a534d98a61e8","019cfc7b-6c7b-7b1b-afe7-acad8efc6711","","null","
                <div class=""stimulus-container"">
                    <img src=""images/causal_sequence/package_causal/package_causal_8.png"" class=""exp-image"">
                    <div class=""question-area""></div> 
                </div>","null","","","","","","","","","","","",""
"","","","","","html-button-response","158","530191","0.0-158.0","0CA6D66EEB91468B8A04190507F75569","019cfc83-eabb-7e95-a9a6-a534d98a61e8","019cfc7b-6c7b-7b1b-afe7-acad8efc6711","","1043","
                <div class=""stimulus-container"">
                    <img src=""images/causal_sequence/package_causal/package_causal_8.png"" class=""exp-image"">
                    <div class=""question-area"">
                        <p style=""font-size: 20px; font-weight: bold; margin: 0;"">Is there a person in this image?</p>
                    </div>
                </div>","0","main_experiment_trial","8","package_causal","causal_sequence","chronological","","","","","","",""
"","","","","","html-keyboard-response","159","535205","0.0-159.0","0CA6D66EEB91468B8A04190507F75569","019cfc83-eabb-7e95-a9a6-a534d98a61e8","019cfc7b-6c7b-7b1b-afe7-acad8efc6711","","null","
                <div class=""stimulus-container"">
                    <img src=""images/causal_sequence/package_causal/package_causal_9.png"" class=""exp-image"">
                    <div class=""question-area""></div> 
                </div>","null","","","","","","","","","","","",""
"","","","","","html-button-response","160","535641","0.0-160.0","0CA6D66EEB91468B8A04190507F75569","019cfc83-eabb-7e95-a9a6-a534d98a61e8","019cfc7b-6c7b-7b1b-afe7-acad8efc6711","","435","
                <div class=""stimulus-container"">
                    <img src=""images/causal_sequence/package_causal/package_causal_9.png"" class=""exp-image"">
                    <div class=""question-area"">
                        <p style=""font-size: 20px; font-weight: bold; margin: 0;"">Is there a person in this image?</p>
                    </div>
                </div>","0","main_experiment_trial","9","package_causal","causal_sequence","chronological","","","","","","",""
"","","","","","html-keyboard-response","161","540656","0.0-161.0","0CA6D66EEB91468B8A04190507F75569","019cfc83-eabb-7e95-a9a6-a534d98a61e8","019cfc7b-6c7b-7b1b-afe7-acad8efc6711","","null","
                <div class=""stimulus-container"">
                    <img src=""images/causal_sequence/package_causal/package_causal_ten.png"" class=""exp-image"">
                    <div class=""question-area""></div> 
                </div>","null","","","","","","","","","","","",""
"","","","","","html-button-response","162","541035","0.0-162.0","0CA6D66EEB91468B8A04190507F75569","019cfc83-eabb-7e95-a9a6-a534d98a61e8","019cfc7b-6c7b-7b1b-afe7-acad8efc6711","","377","
                <div class=""stimulus-container"">
                    <img src=""images/causal_sequence/package_causal/package_causal_ten.png"" class=""exp-image"">
                    <div class=""question-area"">
                        <p style=""font-size: 20px; font-weight: bold; margin: 0;"">Is there a person in this image?</p>
                    </div>
                </div>","0","main_experiment_trial","ten","package_causal","causal_sequence","chronological","","","","","","",""
"","","","","","html-keyboard-response","163","546048","0.0-163.0","0CA6D66EEB91468B8A04190507F75569","019cfc83-eabb-7e95-a9a6-a534d98a61e8","019cfc7b-6c7b-7b1b-afe7-acad8efc6711","","null","<div style=""background-color: white; width: 100vw; height: 100vh;""></div>","null","","","","","","","","","","","",""
"","","","","","html-keyboard-response","164","551056","0.0-164.0","0CA6D66EEB91468B8A04190507F75569","019cfc83-eabb-7e95-a9a6-a534d98a61e8","019cfc7b-6c7b-7b1b-afe7-acad8efc6711","","null","
                <div class=""stimulus-container"">
                    <img src=""images/schematic_sequence/hotel_scheme/hotel_scheme_1.png"" class=""exp-image"">
                    <div class=""question-area""></div> 
                </div>","null","","","","","","","","","","","",""
"","","","","","html-button-response","165","551976","0.0-165.0","0CA6D66EEB91468B8A04190507F75569","019cfc83-eabb-7e95-a9a6-a534d98a61e8","019cfc7b-6c7b-7b1b-afe7-acad8efc6711","","918","
                <div class=""stimulus-container"">
                    <img src=""images/schematic_sequence/hotel_scheme/hotel_scheme_1.png"" class=""exp-image"">
                    <div class=""question-area"">
                        <p style=""font-size: 20px; font-weight: bold; margin: 0;"">Is there a person in this image?</p>
                    </div>
                </div>","1","main_experiment_trial","1","hotel_scheme","schematic_sequence","chronological","","","","","","",""
"","","","","","html-keyboard-response","166","556987","0.0-166.0","0CA6D66EEB91468B8A04190507F75569","019cfc83-eabb-7e95-a9a6-a534d98a61e8","019cfc7b-6c7b-7b1b-afe7-acad8efc6711","","null","
                <div class=""stimulus-container"">
                    <img src=""images/schematic_sequence/hotel_scheme/hotel_scheme_2.png"" class=""exp-image"">
                    <div class=""question-area""></div> 
                </div>","null","","","","","","","","","","","",""
"","","","","","html-button-response","167","557947","0.0-167.0","0CA6D66EEB91468B8A04190507F75569","019cfc83-eabb-7e95-a9a6-a534d98a61e8","019cfc7b-6c7b-7b1b-afe7-acad8efc6711","","958","
                <div class=""stimulus-container"">
                    <img src=""images/schematic_sequence/hotel_scheme/hotel_scheme_2.png"" class=""exp-image"">
                    <div class=""question-area"">
                        <p style=""font-size: 20px; font-weight: bold; margin: 0;"">Is there a person in this image?</p>
                    </div>
                </div>","0","main_experiment_trial","2","hotel_scheme","schematic_sequence","chronological","","","","","","",""
"","","","","","html-keyboard-response","168","562948","0.0-168.0","0CA6D66EEB91468B8A04190507F75569","019cfc83-eabb-7e95-a9a6-a534d98a61e8","019cfc7b-6c7b-7b1b-afe7-acad8efc6711","","null","
                <div class=""stimulus-container"">
                    <img src=""images/schematic_sequence/hotel_scheme/hotel_scheme_3.png"" class=""exp-image"">
                    <div class=""question-area""></div> 
                </div>","null","","","","","","","","","","","",""
"","","","","","html-button-response","169","563793","0.0-169.0","0CA6D66EEB91468B8A04190507F75569","019cfc83-eabb-7e95-a9a6-a534d98a61e8","019cfc7b-6c7b-7b1b-afe7-acad8efc6711","","843","
                <div class=""stimulus-container"">
                    <img src=""images/schematic_sequence/hotel_scheme/hotel_scheme_3.png"" class=""exp-image"">
                    <div class=""question-area"">
                        <p style=""font-size: 20px; font-weight: bold; margin: 0;"">Is there a person in this image?</p>
                    </div>
                </div>","0","main_experiment_trial","3","hotel_scheme","schematic_sequence","chronological","","","","","","",""
"","","","","","html-keyboard-response","170","568809","0.0-170.0","0CA6D66EEB91468B8A04190507F75569","019cfc83-eabb-7e95-a9a6-a534d98a61e8","019cfc7b-6c7b-7b1b-afe7-acad8efc6711","","null","
                <div class=""stimulus-container"">
                    <img src=""images/schematic_sequence/hotel_scheme/hotel_scheme_4.png"" class=""exp-image"">
                    <div class=""question-area""></div> 
                </div>","null","","","","","","","","","","","",""
"","","","","","html-button-response","171","569595","0.0-171.0","0CA6D66EEB91468B8A04190507F75569","019cfc83-eabb-7e95-a9a6-a534d98a61e8","019cfc7b-6c7b-7b1b-afe7-acad8efc6711","","784","
                <div class=""stimulus-container"">
                    <img src=""images/schematic_sequence/hotel_scheme/hotel_scheme_4.png"" class=""exp-image"">
                    <div class=""question-area"">
                        <p style=""font-size: 20px; font-weight: bold; margin: 0;"">Is there a person in this image?</p>
                    </div>
                </div>","1","main_experiment_trial","4","hotel_scheme","schematic_sequence","chronological","","","","","","",""
"","","","","","html-keyboard-response","172","574617","0.0-172.0","0CA6D66EEB91468B8A04190507F75569","019cfc83-eabb-7e95-a9a6-a534d98a61e8","019cfc7b-6c7b-7b1b-afe7-acad8efc6711","","null","
                <div class=""stimulus-container"">
                    <img src=""images/schematic_sequence/hotel_scheme/hotel_scheme_5.png"" class=""exp-image"">
                    <div class=""question-area""></div> 
                </div>","null","","","","","","","","","","","",""
"","","","","","html-button-response","173","575345","0.0-173.0","0CA6D66EEB91468B8A04190507F75569","019cfc83-eabb-7e95-a9a6-a534d98a61e8","019cfc7b-6c7b-7b1b-afe7-acad8efc6711","","727","
                <div class=""stimulus-container"">
                    <img src=""images/schematic_sequence/hotel_scheme/hotel_scheme_5.png"" class=""exp-image"">
                    <div class=""question-area"">
                        <p style=""font-size: 20px; font-weight: bold; margin: 0;"">Is there a person in this image?</p>
                    </div>
                </div>","0","main_experiment_trial","5","hotel_scheme","schematic_sequence","chronological","","","","","","",""
"","","","","","html-keyboard-response","174","580364","0.0-174.0","0CA6D66EEB91468B8A04190507F75569","019cfc83-eabb-7e95-a9a6-a534d98a61e8","019cfc7b-6c7b-7b1b-afe7-acad8efc6711","","null","
                <div class=""stimulus-container"">
                    <img src=""images/schematic_sequence/hotel_scheme/hotel_scheme_6.png"" class=""exp-image"">
                    <div class=""question-area""></div> 
                </div>","null","","","","","","","","","","","",""
"","","","","","html-button-response","175","581145","0.0-175.0","0CA6D66EEB91468B8A04190507F75569","019cfc83-eabb-7e95-a9a6-a534d98a61e8","019cfc7b-6c7b-7b1b-afe7-acad8efc6711","","780","
                <div class=""stimulus-container"">
                    <img src=""images/schematic_sequence/hotel_scheme/hotel_scheme_6.png"" class=""exp-image"">
                    <div class=""question-area"">
                        <p style=""font-size: 20px; font-weight: bold; margin: 0;"">Is there a person in this image?</p>
                    </div>
                </div>","0","main_experiment_trial","6","hotel_scheme","schematic_sequence","chronological","","","","","","",""
"","","","","","html-keyboard-response","176","586153","0.0-176.0","0CA6D66EEB91468B8A04190507F75569","019cfc83-eabb-7e95-a9a6-a534d98a61e8","019cfc7b-6c7b-7b1b-afe7-acad8efc6711","","null","
                <div class=""stimulus-container"">
                    <img src=""images/schematic_sequence/hotel_scheme/hotel_scheme_7.png"" class=""exp-image"">
                    <div class=""question-area""></div> 
                </div>","null","","","","","","","","","","","",""
