"success","timeout","failed_images","failed_audio","failed_video","trial_type","trial_index","time_elapsed","internal_node_id","subject_id","study_id","session_id","view_history","rt","stimulus","response","task","image_index","folder","sequence_type","presentation_order","valuable_image_index","reward_type","correct_choice","distance_from_x","target_X","chosen_image_index","is_x_plus_dist"
"true","false","[]","[]","[]","preload","0","53998","0.0-0.0","FE313B9D50C84BAFBE18D1622E268C73","019cfc80-48fd-717e-a1fb-e6dffc6b2446","019cfc7b-6c7b-7b1b-afe7-acad8efc6711","","","","","","","","","","","","","","","",""
"","","","","","instructions","1","264807","0.0-1.0","FE313B9D50C84BAFBE18D1622E268C73","019cfc80-48fd-717e-a1fb-e6dffc6b2446","019cfc7b-6c7b-7b1b-afe7-acad8efc6711","[{""page_index"":0,""viewing_time"":210808}]","210808","","","","","","","","","","","","","",""
"","","","","","instructions","2","267575","0.0-2.0","FE313B9D50C84BAFBE18D1622E268C73","019cfc80-48fd-717e-a1fb-e6dffc6b2446","019cfc7b-6c7b-7b1b-afe7-acad8efc6711","[{""page_index"":0,""viewing_time"":2767}]","2767","","","","","","","","","","","","","",""
"true","","","","","fullscreen","3","270081","0.0-3.0","FE313B9D50C84BAFBE18D1622E268C73","019cfc80-48fd-717e-a1fb-e6dffc6b2446","019cfc7b-6c7b-7b1b-afe7-acad8efc6711","","1503","","","","","","","","","","","","","",""
"","","","","","instructions","4","278976","0.0-4.0","FE313B9D50C84BAFBE18D1622E268C73","019cfc80-48fd-717e-a1fb-e6dffc6b2446","019cfc7b-6c7b-7b1b-afe7-acad8efc6711","[{""page_index"":0,""viewing_time"":8894}]","8895","","","","","","","","","","","","","",""
"","","","","","instructions","5","283328","0.0-5.0","FE313B9D50C84BAFBE18D1622E268C73","019cfc80-48fd-717e-a1fb-e6dffc6b2446","019cfc7b-6c7b-7b1b-afe7-acad8efc6711","[{""page_index"":0,""viewing_time"":4351}]","4352","","","","","","","","","","","","","",""
"","","","","","html-keyboard-response","6","287344","0.0-6.0","FE313B9D50C84BAFBE18D1622E268C73","019cfc80-48fd-717e-a1fb-e6dffc6b2446","019cfc7b-6c7b-7b1b-afe7-acad8efc6711","","null","
                <div class=""stimulus-container"">
                    <img src=""images/instructions/movie_1.png"" class=""exp-image"">
                    <div class=""question-area""></div> 
                </div>","null","","","","","","","","","","","",""
"","","","","","html-button-response","7","289235","0.0-7.0","FE313B9D50C84BAFBE18D1622E268C73","019cfc80-48fd-717e-a1fb-e6dffc6b2446","019cfc7b-6c7b-7b1b-afe7-acad8efc6711","","1888","
                <div class=""stimulus-container"">
                    <img src=""images/instructions/movie_1.png"" class=""exp-image"">
                    <div class=""question-area"">
                        <p style=""font-size: 20px; font-weight: bold; margin: 0;"">Was there a person in this image?</p>
                    </div>
                </div>","0","example_question","1","","","","","","","","","",""
"","","","","","html-keyboard-response","8","293240","0.0-8.0","FE313B9D50C84BAFBE18D1622E268C73","019cfc80-48fd-717e-a1fb-e6dffc6b2446","019cfc7b-6c7b-7b1b-afe7-acad8efc6711","","null","
                <div class=""stimulus-container"">
                    <img src=""images/instructions/movie_2.png"" class=""exp-image"">
                    <div class=""question-area""></div> 
                </div>","null","","","","","","","","","","","",""
"","","","","","html-button-response","9","294362","0.0-9.0","FE313B9D50C84BAFBE18D1622E268C73","019cfc80-48fd-717e-a1fb-e6dffc6b2446","019cfc7b-6c7b-7b1b-afe7-acad8efc6711","","1121","
                <div class=""stimulus-container"">
                    <img src=""images/instructions/movie_2.png"" class=""exp-image"">
                    <div class=""question-area"">
                        <p style=""font-size: 20px; font-weight: bold; margin: 0;"">Was there a person in this image?</p>
                    </div>
                </div>","1","example_question","2","","","","","","","","","",""
"","","","","","html-keyboard-response","10","298378","0.0-10.0","FE313B9D50C84BAFBE18D1622E268C73","019cfc80-48fd-717e-a1fb-e6dffc6b2446","019cfc7b-6c7b-7b1b-afe7-acad8efc6711","","null","
                <div class=""stimulus-container"">
                    <img src=""images/instructions/movie_3.png"" class=""exp-image"">
                    <div class=""question-area""></div> 
                </div>","null","","","","","","","","","","","",""
"","","","","","html-button-response","11","299403","0.0-11.0","FE313B9D50C84BAFBE18D1622E268C73","019cfc80-48fd-717e-a1fb-e6dffc6b2446","019cfc7b-6c7b-7b1b-afe7-acad8efc6711","","1024","
                <div class=""stimulus-container"">
                    <img src=""images/instructions/movie_3.png"" class=""exp-image"">
                    <div class=""question-area"">
                        <p style=""font-size: 20px; font-weight: bold; margin: 0;"">Was there a person in this image?</p>
                    </div>
                </div>","0","example_question","3","","","","","","","","","",""
"","","","","","html-keyboard-response","12","303405","0.0-12.0","FE313B9D50C84BAFBE18D1622E268C73","019cfc80-48fd-717e-a1fb-e6dffc6b2446","019cfc7b-6c7b-7b1b-afe7-acad8efc6711","","null","
                <div class=""stimulus-container"">
                    <img src=""images/instructions/movie_4.png"" class=""exp-image"">
                    <div class=""question-area""></div> 
                </div>","null","","","","","","","","","","","",""
"","","","","","html-button-response","13","304322","0.0-13.0","FE313B9D50C84BAFBE18D1622E268C73","019cfc80-48fd-717e-a1fb-e6dffc6b2446","019cfc7b-6c7b-7b1b-afe7-acad8efc6711","","916","
                <div class=""stimulus-container"">
                    <img src=""images/instructions/movie_4.png"" class=""exp-image"">
                    <div class=""question-area"">
                        <p style=""font-size: 20px; font-weight: bold; margin: 0;"">Was there a person in this image?</p>
                    </div>
                </div>","0","example_question","4","","","","","","","","","",""
"","","","","","instructions","14","306716","0.0-14.0","FE313B9D50C84BAFBE18D1622E268C73","019cfc80-48fd-717e-a1fb-e6dffc6b2446","019cfc7b-6c7b-7b1b-afe7-acad8efc6711","[{""page_index"":0,""viewing_time"":2393}]","2393","","","","","","","","","","","","","",""
"","","","","","instructions","15","309188","0.0-15.0","FE313B9D50C84BAFBE18D1622E268C73","019cfc80-48fd-717e-a1fb-e6dffc6b2446","019cfc7b-6c7b-7b1b-afe7-acad8efc6711","[{""page_index"":0,""viewing_time"":2472}]","2472","","","","","","","","","","","","","",""
"","","","","","html-keyboard-response","16","314204","0.0-16.0","FE313B9D50C84BAFBE18D1622E268C73","019cfc80-48fd-717e-a1fb-e6dffc6b2446","019cfc7b-6c7b-7b1b-afe7-acad8efc6711","","null","<div style=""background-color: white; width: 100vw; height: 100vh;""></div>","null","","","","","","","","","","","",""
"","","","","","html-keyboard-response","17","319213","0.0-17.0","FE313B9D50C84BAFBE18D1622E268C73","019cfc80-48fd-717e-a1fb-e6dffc6b2446","019cfc7b-6c7b-7b1b-afe7-acad8efc6711","","null","
                <div class=""stimulus-container"">
                    <img src=""images/causal_sequence/saving_a_cat_causal/saving_a_cat_causal_1.png"" class=""exp-image"">
                    <div class=""question-area""></div> 
                </div>","null","","","","","","","","","","","",""
"","","","","","html-button-response","18","320157","0.0-18.0","FE313B9D50C84BAFBE18D1622E268C73","019cfc80-48fd-717e-a1fb-e6dffc6b2446","019cfc7b-6c7b-7b1b-afe7-acad8efc6711","","943","
                <div class=""stimulus-container"">
                    <img src=""images/causal_sequence/saving_a_cat_causal/saving_a_cat_causal_1.png"" class=""exp-image"">
                    <div class=""question-area"">
                        <p style=""font-size: 20px; font-weight: bold; margin: 0;"">Is there a person in this image?</p>
                    </div>
                </div>","0","main_experiment_trial","1","saving_a_cat_causal","causal_sequence","chronological","","","","","","",""
"","","","","","html-keyboard-response","19","325160","0.0-19.0","FE313B9D50C84BAFBE18D1622E268C73","019cfc80-48fd-717e-a1fb-e6dffc6b2446","019cfc7b-6c7b-7b1b-afe7-acad8efc6711","","null","
                <div class=""stimulus-container"">
                    <img src=""images/causal_sequence/saving_a_cat_causal/saving_a_cat_causal_2.png"" class=""exp-image"">
                    <div class=""question-area""></div> 
                </div>","null","","","","","","","","","","","",""
"","","","","","html-button-response","20","326431","0.0-20.0","FE313B9D50C84BAFBE18D1622E268C73","019cfc80-48fd-717e-a1fb-e6dffc6b2446","019cfc7b-6c7b-7b1b-afe7-acad8efc6711","","1270","
                <div class=""stimulus-container"">
                    <img src=""images/causal_sequence/saving_a_cat_causal/saving_a_cat_causal_2.png"" class=""exp-image"">
                    <div class=""question-area"">
                        <p style=""font-size: 20px; font-weight: bold; margin: 0;"">Is there a person in this image?</p>
                    </div>
                </div>","1","main_experiment_trial","2","saving_a_cat_causal","causal_sequence","chronological","","","","","","",""
"","","","","","html-keyboard-response","21","331435","0.0-21.0","FE313B9D50C84BAFBE18D1622E268C73","019cfc80-48fd-717e-a1fb-e6dffc6b2446","019cfc7b-6c7b-7b1b-afe7-acad8efc6711","","null","
                <div class=""stimulus-container"">
                    <img src=""images/causal_sequence/saving_a_cat_causal/saving_a_cat_causal_3.png"" class=""exp-image"">
                    <div class=""question-area""></div> 
                </div>","null","","","","","","","","","","","",""
"","","","","","html-button-response","22","332823","0.0-22.0","FE313B9D50C84BAFBE18D1622E268C73","019cfc80-48fd-717e-a1fb-e6dffc6b2446","019cfc7b-6c7b-7b1b-afe7-acad8efc6711","","1387","
                <div class=""stimulus-container"">
                    <img src=""images/causal_sequence/saving_a_cat_causal/saving_a_cat_causal_3.png"" class=""exp-image"">
                    <div class=""question-area"">
                        <p style=""font-size: 20px; font-weight: bold; margin: 0;"">Is there a person in this image?</p>
                    </div>
                </div>","1","main_experiment_trial","3","saving_a_cat_causal","causal_sequence","chronological","","","","","","",""
"","","","","","html-keyboard-response","23","337825","0.0-23.0","FE313B9D50C84BAFBE18D1622E268C73","019cfc80-48fd-717e-a1fb-e6dffc6b2446","019cfc7b-6c7b-7b1b-afe7-acad8efc6711","","null","
                <div class=""stimulus-container"">
                    <img src=""images/causal_sequence/saving_a_cat_causal/saving_a_cat_causal_4.png"" class=""exp-image"">
                    <div class=""question-area""></div> 
                </div>","null","","","","","","","","","","","",""
"","","","","","html-button-response","24","339913","0.0-24.0","FE313B9D50C84BAFBE18D1622E268C73","019cfc80-48fd-717e-a1fb-e6dffc6b2446","019cfc7b-6c7b-7b1b-afe7-acad8efc6711","","2087","
                <div class=""stimulus-container"">
                    <img src=""images/causal_sequence/saving_a_cat_causal/saving_a_cat_causal_4.png"" class=""exp-image"">
                    <div class=""question-area"">
                        <p style=""font-size: 20px; font-weight: bold; margin: 0;"">Is there a person in this image?</p>
                    </div>
                </div>","0","main_experiment_trial","4","saving_a_cat_causal","causal_sequence","chronological","","","","","","",""
"","","","","","html-keyboard-response","25","344923","0.0-25.0","FE313B9D50C84BAFBE18D1622E268C73","019cfc80-48fd-717e-a1fb-e6dffc6b2446","019cfc7b-6c7b-7b1b-afe7-acad8efc6711","","null","
                <div class=""stimulus-container"">
                    <img src=""images/causal_sequence/saving_a_cat_causal/saving_a_cat_causal_5.png"" class=""exp-image"">
                    <div class=""question-area""></div> 
                </div>","null","","","","","","","","","","","",""
"","","","","","html-button-response","26","345857","0.0-26.0","FE313B9D50C84BAFBE18D1622E268C73","019cfc80-48fd-717e-a1fb-e6dffc6b2446","019cfc7b-6c7b-7b1b-afe7-acad8efc6711","","933","
                <div class=""stimulus-container"">
                    <img src=""images/causal_sequence/saving_a_cat_causal/saving_a_cat_causal_5.png"" class=""exp-image"">
                    <div class=""question-area"">
                        <p style=""font-size: 20px; font-weight: bold; margin: 0;"">Is there a person in this image?</p>
                    </div>
                </div>","0","main_experiment_trial","5","saving_a_cat_causal","causal_sequence","chronological","","","","","","",""
"","","","","","html-keyboard-response","27","350872","0.0-27.0","FE313B9D50C84BAFBE18D1622E268C73","019cfc80-48fd-717e-a1fb-e6dffc6b2446","019cfc7b-6c7b-7b1b-afe7-acad8efc6711","","null","
                <div class=""stimulus-container"">
                    <img src=""images/causal_sequence/saving_a_cat_causal/saving_a_cat_causal_6.png"" class=""exp-image"">
                    <div class=""question-area""></div> 
                </div>","null","","","","","","","","","","","",""
"","","","","","html-button-response","28","351834","0.0-28.0","FE313B9D50C84BAFBE18D1622E268C73","019cfc80-48fd-717e-a1fb-e6dffc6b2446","019cfc7b-6c7b-7b1b-afe7-acad8efc6711","","961","
                <div class=""stimulus-container"">
                    <img src=""images/causal_sequence/saving_a_cat_causal/saving_a_cat_causal_6.png"" class=""exp-image"">
                    <div class=""question-area"">
                        <p style=""font-size: 20px; font-weight: bold; margin: 0;"">Is there a person in this image?</p>
                    </div>
                </div>","0","main_experiment_trial","6","saving_a_cat_causal","causal_sequence","chronological","","","","","","",""
"","","","","","html-keyboard-response","29","356847","0.0-29.0","FE313B9D50C84BAFBE18D1622E268C73","019cfc80-48fd-717e-a1fb-e6dffc6b2446","019cfc7b-6c7b-7b1b-afe7-acad8efc6711","","null","
                <div class=""stimulus-container"">
                    <img src=""images/causal_sequence/saving_a_cat_causal/saving_a_cat_causal_7.png"" class=""exp-image"">
                    <div class=""question-area""></div> 
                </div>","null","","","","","","","","","","","",""
"","","","","","html-button-response","30","357561","0.0-30.0","FE313B9D50C84BAFBE18D1622E268C73","019cfc80-48fd-717e-a1fb-e6dffc6b2446","019cfc7b-6c7b-7b1b-afe7-acad8efc6711","","714","
                <div class=""stimulus-container"">
                    <img src=""images/causal_sequence/saving_a_cat_causal/saving_a_cat_causal_7.png"" class=""exp-image"">
                    <div class=""question-area"">
                        <p style=""font-size: 20px; font-weight: bold; margin: 0;"">Is there a person in this image?</p>
                    </div>
                </div>","0","main_experiment_trial","7","saving_a_cat_causal","causal_sequence","chronological","","","","","","",""
"","","","","","html-keyboard-response","31","362573","0.0-31.0","FE313B9D50C84BAFBE18D1622E268C73","019cfc80-48fd-717e-a1fb-e6dffc6b2446","019cfc7b-6c7b-7b1b-afe7-acad8efc6711","","null","
                <div class=""stimulus-container"">
                    <img src=""images/causal_sequence/saving_a_cat_causal/saving_a_cat_causal_8.png"" class=""exp-image"">
                    <div class=""question-area""></div> 
                </div>","null","","","","","","","","","","","",""
"","","","","","html-button-response","32","365251","0.0-32.0","FE313B9D50C84BAFBE18D1622E268C73","019cfc80-48fd-717e-a1fb-e6dffc6b2446","019cfc7b-6c7b-7b1b-afe7-acad8efc6711","","2677","
                <div class=""stimulus-container"">
                    <img src=""images/causal_sequence/saving_a_cat_causal/saving_a_cat_causal_8.png"" class=""exp-image"">
                    <div class=""question-area"">
                        <p style=""font-size: 20px; font-weight: bold; margin: 0;"">Is there a person in this image?</p>
                    </div>
                </div>","0","main_experiment_trial","8","saving_a_cat_causal","causal_sequence","chronological","","","","","","",""
"","","","","","html-keyboard-response","33","370252","0.0-33.0","FE313B9D50C84BAFBE18D1622E268C73","019cfc80-48fd-717e-a1fb-e6dffc6b2446","019cfc7b-6c7b-7b1b-afe7-acad8efc6711","","null","
                <div class=""stimulus-container"">
                    <img src=""images/causal_sequence/saving_a_cat_causal/saving_a_cat_causal_9.png"" class=""exp-image"">
                    <div class=""question-area""></div> 
                </div>","null","","","","","","","","","","","",""
"","","","","","html-button-response","34","371028","0.0-34.0","FE313B9D50C84BAFBE18D1622E268C73","019cfc80-48fd-717e-a1fb-e6dffc6b2446","019cfc7b-6c7b-7b1b-afe7-acad8efc6711","","775","
                <div class=""stimulus-container"">
                    <img src=""images/causal_sequence/saving_a_cat_causal/saving_a_cat_causal_9.png"" class=""exp-image"">
                    <div class=""question-area"">
                        <p style=""font-size: 20px; font-weight: bold; margin: 0;"">Is there a person in this image?</p>
                    </div>
                </div>","0","main_experiment_trial","9","saving_a_cat_causal","causal_sequence","chronological","","","","","","",""
"","","","","","html-keyboard-response","35","376043","0.0-35.0","FE313B9D50C84BAFBE18D1622E268C73","019cfc80-48fd-717e-a1fb-e6dffc6b2446","019cfc7b-6c7b-7b1b-afe7-acad8efc6711","","null","
                <div class=""stimulus-container"">
                    <img src=""images/causal_sequence/saving_a_cat_causal/saving_a_cat_causal_ten.png"" class=""exp-image"">
                    <div class=""question-area""></div> 
                </div>","null","","","","","","","","","","","",""
"","","","","","html-button-response","36","376797","0.0-36.0","FE313B9D50C84BAFBE18D1622E268C73","019cfc80-48fd-717e-a1fb-e6dffc6b2446","019cfc7b-6c7b-7b1b-afe7-acad8efc6711","","754","
                <div class=""stimulus-container"">
                    <img src=""images/causal_sequence/saving_a_cat_causal/saving_a_cat_causal_ten.png"" class=""exp-image"">
                    <div class=""question-area"">
                        <p style=""font-size: 20px; font-weight: bold; margin: 0;"">Is there a person in this image?</p>
                    </div>
                </div>","0","main_experiment_trial","ten","saving_a_cat_causal","causal_sequence","chronological","","","","","","",""
"","","","","","html-keyboard-response","37","381799","0.0-37.0","FE313B9D50C84BAFBE18D1622E268C73","019cfc80-48fd-717e-a1fb-e6dffc6b2446","019cfc7b-6c7b-7b1b-afe7-acad8efc6711","","null","<div style=""background-color: white; width: 100vw; height: 100vh;""></div>","null","","","","","","","","","","","",""
"","","","","","html-keyboard-response","38","386813","0.0-38.0","FE313B9D50C84BAFBE18D1622E268C73","019cfc80-48fd-717e-a1fb-e6dffc6b2446","019cfc7b-6c7b-7b1b-afe7-acad8efc6711","","null","
                <div class=""stimulus-container"">
                    <img src=""images/causal_sequence/dog_causal/dog_causal_1.png"" class=""exp-image"">
                    <div class=""question-area""></div> 
                </div>","null","","","","","","","","","","","",""
"","","","","","html-button-response","39","387710","0.0-39.0","FE313B9D50C84BAFBE18D1622E268C73","019cfc80-48fd-717e-a1fb-e6dffc6b2446","019cfc7b-6c7b-7b1b-afe7-acad8efc6711","","895","
                <div class=""stimulus-container"">
                    <img src=""images/causal_sequence/dog_causal/dog_causal_1.png"" class=""exp-image"">
                    <div class=""question-area"">
                        <p style=""font-size: 20px; font-weight: bold; margin: 0;"">Is there a person in this image?</p>
                    </div>
                </div>","0","main_experiment_trial","1","dog_causal","causal_sequence","chronological","","","","","","",""
"","","","","","html-keyboard-response","40","392717","0.0-40.0","FE313B9D50C84BAFBE18D1622E268C73","019cfc80-48fd-717e-a1fb-e6dffc6b2446","019cfc7b-6c7b-7b1b-afe7-acad8efc6711","","null","
                <div class=""stimulus-container"">
                    <img src=""images/causal_sequence/dog_causal/dog_causal_2.png"" class=""exp-image"">
                    <div class=""question-area""></div> 
                </div>","null","","","","","","","","","","","",""
"","","","","","html-button-response","41","393415","0.0-41.0","FE313B9D50C84BAFBE18D1622E268C73","019cfc80-48fd-717e-a1fb-e6dffc6b2446","019cfc7b-6c7b-7b1b-afe7-acad8efc6711","","697","
                <div class=""stimulus-container"">
                    <img src=""images/causal_sequence/dog_causal/dog_causal_2.png"" class=""exp-image"">
                    <div class=""question-area"">
                        <p style=""font-size: 20px; font-weight: bold; margin: 0;"">Is there a person in this image?</p>
                    </div>
                </div>","0","main_experiment_trial","2","dog_causal","causal_sequence","chronological","","","","","","",""
"","","","","","html-keyboard-response","42","398416","0.0-42.0","FE313B9D50C84BAFBE18D1622E268C73","019cfc80-48fd-717e-a1fb-e6dffc6b2446","019cfc7b-6c7b-7b1b-afe7-acad8efc6711","","null","
                <div class=""stimulus-container"">
                    <img src=""images/causal_sequence/dog_causal/dog_causal_3.png"" class=""exp-image"">
                    <div class=""question-area""></div> 
                </div>","null","","","","","","","","","","","",""
"","","","","","html-button-response","43","399335","0.0-43.0","FE313B9D50C84BAFBE18D1622E268C73","019cfc80-48fd-717e-a1fb-e6dffc6b2446","019cfc7b-6c7b-7b1b-afe7-acad8efc6711","","919","
                <div class=""stimulus-container"">
                    <img src=""images/causal_sequence/dog_causal/dog_causal_3.png"" class=""exp-image"">
                    <div class=""question-area"">
                        <p style=""font-size: 20px; font-weight: bold; margin: 0;"">Is there a person in this image?</p>
                    </div>
                </div>","0","main_experiment_trial","3","dog_causal","causal_sequence","chronological","","","","","","",""
"","","","","","html-keyboard-response","44","404341","0.0-44.0","FE313B9D50C84BAFBE18D1622E268C73","019cfc80-48fd-717e-a1fb-e6dffc6b2446","019cfc7b-6c7b-7b1b-afe7-acad8efc6711","","null","
                <div class=""stimulus-container"">
                    <img src=""images/causal_sequence/dog_causal/dog_causal_4.png"" class=""exp-image"">
                    <div class=""question-area""></div> 
                </div>","null","","","","","","","","","","","",""
"","","","","","html-button-response","45","405305","0.0-45.0","FE313B9D50C84BAFBE18D1622E268C73","019cfc80-48fd-717e-a1fb-e6dffc6b2446","019cfc7b-6c7b-7b1b-afe7-acad8efc6711","","963","
                <div class=""stimulus-container"">
                    <img src=""images/causal_sequence/dog_causal/dog_causal_4.png"" class=""exp-image"">
                    <div class=""question-area"">
                        <p style=""font-size: 20px; font-weight: bold; margin: 0;"">Is there a person in this image?</p>
                    </div>
                </div>","0","main_experiment_trial","4","dog_causal","causal_sequence","chronological","","","","","","",""
"","","","","","html-keyboard-response","46","410313","0.0-46.0","FE313B9D50C84BAFBE18D1622E268C73","019cfc80-48fd-717e-a1fb-e6dffc6b2446","019cfc7b-6c7b-7b1b-afe7-acad8efc6711","","null","
                <div class=""stimulus-container"">
                    <img src=""images/causal_sequence/dog_causal/dog_causal_5.png"" class=""exp-image"">
                    <div class=""question-area""></div> 
                </div>","null","","","","","","","","","","","",""
"","","","","","html-button-response","47","411224","0.0-47.0","FE313B9D50C84BAFBE18D1622E268C73","019cfc80-48fd-717e-a1fb-e6dffc6b2446","019cfc7b-6c7b-7b1b-afe7-acad8efc6711","","910","
                <div class=""stimulus-container"">
                    <img src=""images/causal_sequence/dog_causal/dog_causal_5.png"" class=""exp-image"">
                    <div class=""question-area"">
                        <p style=""font-size: 20px; font-weight: bold; margin: 0;"">Is there a person in this image?</p>
                    </div>
                </div>","0","main_experiment_trial","5","dog_causal","causal_sequence","chronological","","","","","","",""
"","","","","","html-keyboard-response","48","416240","0.0-48.0","FE313B9D50C84BAFBE18D1622E268C73","019cfc80-48fd-717e-a1fb-e6dffc6b2446","019cfc7b-6c7b-7b1b-afe7-acad8efc6711","","null","
                <div class=""stimulus-container"">
                    <img src=""images/causal_sequence/dog_causal/dog_causal_6.png"" class=""exp-image"">
                    <div class=""question-area""></div> 
                </div>","null","","","","","","","","","","","",""
"","","","","","html-button-response","49","416827","0.0-49.0","FE313B9D50C84BAFBE18D1622E268C73","019cfc80-48fd-717e-a1fb-e6dffc6b2446","019cfc7b-6c7b-7b1b-afe7-acad8efc6711","","586","
                <div class=""stimulus-container"">
                    <img src=""images/causal_sequence/dog_causal/dog_causal_6.png"" class=""exp-image"">
                    <div class=""question-area"">
                        <p style=""font-size: 20px; font-weight: bold; margin: 0;"">Is there a person in this image?</p>
                    </div>
                </div>","0","main_experiment_trial","6","dog_causal","causal_sequence","chronological","","","","","","",""
"","","","","","html-keyboard-response","50","421829","0.0-50.0","FE313B9D50C84BAFBE18D1622E268C73","019cfc80-48fd-717e-a1fb-e6dffc6b2446","019cfc7b-6c7b-7b1b-afe7-acad8efc6711","","null","
                <div class=""stimulus-container"">
                    <img src=""images/causal_sequence/dog_causal/dog_causal_7.png"" class=""exp-image"">
                    <div class=""question-area""></div> 
                </div>","null","","","","","","","","","","","",""
"","","","","","html-button-response","51","422572","0.0-51.0","FE313B9D50C84BAFBE18D1622E268C73","019cfc80-48fd-717e-a1fb-e6dffc6b2446","019cfc7b-6c7b-7b1b-afe7-acad8efc6711","","741","
                <div class=""stimulus-container"">
                    <img src=""images/causal_sequence/dog_causal/dog_causal_7.png"" class=""exp-image"">
                    <div class=""question-area"">
                        <p style=""font-size: 20px; font-weight: bold; margin: 0;"">Is there a person in this image?</p>
                    </div>
                </div>","0","main_experiment_trial","7","dog_causal","causal_sequence","chronological","","","","","","",""
"","","","","","html-keyboard-response","52","427584","0.0-52.0","FE313B9D50C84BAFBE18D1622E268C73","019cfc80-48fd-717e-a1fb-e6dffc6b2446","019cfc7b-6c7b-7b1b-afe7-acad8efc6711","","null","
                <div class=""stimulus-container"">
                    <img src=""images/causal_sequence/dog_causal/dog_causal_8.png"" class=""exp-image"">
                    <div class=""question-area""></div> 
                </div>","null","","","","","","","","","","","",""
"","","","","","html-button-response","53","428164","0.0-53.0","FE313B9D50C84BAFBE18D1622E268C73","019cfc80-48fd-717e-a1fb-e6dffc6b2446","019cfc7b-6c7b-7b1b-afe7-acad8efc6711","","579","
                <div class=""stimulus-container"">
                    <img src=""images/causal_sequence/dog_causal/dog_causal_8.png"" class=""exp-image"">
                    <div class=""question-area"">
                        <p style=""font-size: 20px; font-weight: bold; margin: 0;"">Is there a person in this image?</p>
                    </div>
                </div>","0","main_experiment_trial","8","dog_causal","causal_sequence","chronological","","","","","","",""
"","","","","","html-keyboard-response","54","433169","0.0-54.0","FE313B9D50C84BAFBE18D1622E268C73","019cfc80-48fd-717e-a1fb-e6dffc6b2446","019cfc7b-6c7b-7b1b-afe7-acad8efc6711","","null","
                <div class=""stimulus-container"">
                    <img src=""images/causal_sequence/dog_causal/dog_causal_9.png"" class=""exp-image"">
                    <div class=""question-area""></div> 
                </div>","null","","","","","","","","","","","",""
"","","","","","html-button-response","55","433876","0.0-55.0","FE313B9D50C84BAFBE18D1622E268C73","019cfc80-48fd-717e-a1fb-e6dffc6b2446","019cfc7b-6c7b-7b1b-afe7-acad8efc6711","","706","
                <div class=""stimulus-container"">
                    <img src=""images/causal_sequence/dog_causal/dog_causal_9.png"" class=""exp-image"">
                    <div class=""question-area"">
                        <p style=""font-size: 20px; font-weight: bold; margin: 0;"">Is there a person in this image?</p>
                    </div>
                </div>","0","main_experiment_trial","9","dog_causal","causal_sequence","chronological","","","","","","",""
"","","","","","html-keyboard-response","56","438880","0.0-56.0","FE313B9D50C84BAFBE18D1622E268C73","019cfc80-48fd-717e-a1fb-e6dffc6b2446","019cfc7b-6c7b-7b1b-afe7-acad8efc6711","","null","
                <div class=""stimulus-container"">
                    <img src=""images/causal_sequence/dog_causal/dog_causal_ten.png"" class=""exp-image"">
                    <div class=""question-area""></div> 
                </div>","null","","","","","","","","","","","",""
"","","","","","html-button-response","57","439622","0.0-57.0","FE313B9D50C84BAFBE18D1622E268C73","019cfc80-48fd-717e-a1fb-e6dffc6b2446","019cfc7b-6c7b-7b1b-afe7-acad8efc6711","","740","
                <div class=""stimulus-container"">
                    <img src=""images/causal_sequence/dog_causal/dog_causal_ten.png"" class=""exp-image"">
                    <div class=""question-area"">
                        <p style=""font-size: 20px; font-weight: bold; margin: 0;"">Is there a person in this image?</p>
                    </div>
                </div>","0","main_experiment_trial","ten","dog_causal","causal_sequence","chronological","","","","","","",""
"","","","","","html-keyboard-response","58","444637","0.0-58.0","FE313B9D50C84BAFBE18D1622E268C73","019cfc80-48fd-717e-a1fb-e6dffc6b2446","019cfc7b-6c7b-7b1b-afe7-acad8efc6711","","null","<div style=""background-color: white; width: 100vw; height: 100vh;""></div>","null","","","","","","","","","","","",""
"","","","","","html-keyboard-response","59","449639","0.0-59.0","FE313B9D50C84BAFBE18D1622E268C73","019cfc80-48fd-717e-a1fb-e6dffc6b2446","019cfc7b-6c7b-7b1b-afe7-acad8efc6711","","null","
                <div class=""stimulus-container"">
                    <img src=""images/semantic_sequence/visiting_cities_semantic/visiting_cities_semantic_1.png"" class=""exp-image"">
                    <div class=""question-area""></div> 
                </div>","null","","","","","","","","","","","",""
"","","","","","html-button-response","60","451167","0.0-60.0","FE313B9D50C84BAFBE18D1622E268C73","019cfc80-48fd-717e-a1fb-e6dffc6b2446","019cfc7b-6c7b-7b1b-afe7-acad8efc6711","","1527","
                <div class=""stimulus-container"">
                    <img src=""images/semantic_sequence/visiting_cities_semantic/visiting_cities_semantic_1.png"" class=""exp-image"">
                    <div class=""question-area"">
                        <p style=""font-size: 20px; font-weight: bold; margin: 0;"">Is there a person in this image?</p>
                    </div>
                </div>","0","main_experiment_trial","1","visiting_cities_semantic","semantic_sequence","chronological","","","","","","",""
"","","","","","html-keyboard-response","61","456174","0.0-61.0","FE313B9D50C84BAFBE18D1622E268C73","019cfc80-48fd-717e-a1fb-e6dffc6b2446","019cfc7b-6c7b-7b1b-afe7-acad8efc6711","","null","
                <div class=""stimulus-container"">
                    <img src=""images/semantic_sequence/visiting_cities_semantic/visiting_cities_semantic_2.png"" class=""exp-image"">
                    <div class=""question-area""></div> 
                </div>","null","","","","","","","","","","","",""
"","","","","","html-button-response","62","457639","0.0-62.0","FE313B9D50C84BAFBE18D1622E268C73","019cfc80-48fd-717e-a1fb-e6dffc6b2446","019cfc7b-6c7b-7b1b-afe7-acad8efc6711","","1464","
                <div class=""stimulus-container"">
                    <img src=""images/semantic_sequence/visiting_cities_semantic/visiting_cities_semantic_2.png"" class=""exp-image"">
                    <div class=""question-area"">
                        <p style=""font-size: 20px; font-weight: bold; margin: 0;"">Is there a person in this image?</p>
                    </div>
                </div>","1","main_experiment_trial","2","visiting_cities_semantic","semantic_sequence","chronological","","","","","","",""
"","","","","","html-keyboard-response","63","462641","0.0-63.0","FE313B9D50C84BAFBE18D1622E268C73","019cfc80-48fd-717e-a1fb-e6dffc6b2446","019cfc7b-6c7b-7b1b-afe7-acad8efc6711","","null","
                <div class=""stimulus-container"">
                    <img src=""images/semantic_sequence/visiting_cities_semantic/visiting_cities_semantic_3.png"" class=""exp-image"">
                    <div class=""question-area""></div> 
                </div>","null","","","","","","","","","","","",""
"","","","","","html-button-response","64","464466","0.0-64.0","FE313B9D50C84BAFBE18D1622E268C73","019cfc80-48fd-717e-a1fb-e6dffc6b2446","019cfc7b-6c7b-7b1b-afe7-acad8efc6711","","1823","
                <div class=""stimulus-container"">
                    <img src=""images/semantic_sequence/visiting_cities_semantic/visiting_cities_semantic_3.png"" class=""exp-image"">
                    <div class=""question-area"">
                        <p style=""font-size: 20px; font-weight: bold; margin: 0;"">Is there a person in this image?</p>
                    </div>
                </div>","1","main_experiment_trial","3","visiting_cities_semantic","semantic_sequence","chronological","","","","","","",""
"","","","","","html-keyboard-response","65","469476","0.0-65.0","FE313B9D50C84BAFBE18D1622E268C73","019cfc80-48fd-717e-a1fb-e6dffc6b2446","019cfc7b-6c7b-7b1b-afe7-acad8efc6711","","null","
                <div class=""stimulus-container"">
                    <img src=""images/semantic_sequence/visiting_cities_semantic/visiting_cities_semantic_4.png"" class=""exp-image"">
                    <div class=""question-area""></div> 
                </div>","null","","","","","","","","","","","",""
"","","","","","html-button-response","66","472481","0.0-66.0","FE313B9D50C84BAFBE18D1622E268C73","019cfc80-48fd-717e-a1fb-e6dffc6b2446","019cfc7b-6c7b-7b1b-afe7-acad8efc6711","","null","
                <div class=""stimulus-container"">
                    <img src=""images/semantic_sequence/visiting_cities_semantic/visiting_cities_semantic_4.png"" class=""exp-image"">
                    <div class=""question-area"">
                        <p style=""font-size: 20px; font-weight: bold; margin: 0;"">Is there a person in this image?</p>
                    </div>
                </div>","null","main_experiment_trial","4","visiting_cities_semantic","semantic_sequence","chronological","","","","","","",""
"","","","","","html-keyboard-response","67","477488","0.0-67.0","FE313B9D50C84BAFBE18D1622E268C73","019cfc80-48fd-717e-a1fb-e6dffc6b2446","019cfc7b-6c7b-7b1b-afe7-acad8efc6711","","null","
                <div class=""stimulus-container"">
                    <img src=""images/semantic_sequence/visiting_cities_semantic/visiting_cities_semantic_5.png"" class=""exp-image"">
                    <div class=""question-area""></div> 
                </div>","null","","","","","","","","","","","",""
"","","","","","html-button-response","68","478178","0.0-68.0","FE313B9D50C84BAFBE18D1622E268C73","019cfc80-48fd-717e-a1fb-e6dffc6b2446","019cfc7b-6c7b-7b1b-afe7-acad8efc6711","","690","
                <div class=""stimulus-container"">
                    <img src=""images/semantic_sequence/visiting_cities_semantic/visiting_cities_semantic_5.png"" class=""exp-image"">
                    <div class=""question-area"">
                        <p style=""font-size: 20px; font-weight: bold; margin: 0;"">Is there a person in this image?</p>
                    </div>
                </div>","1","main_experiment_trial","5","visiting_cities_semantic","semantic_sequence","chronological","","","","","","",""
"","","","","","html-keyboard-response","69","483187","0.0-69.0","FE313B9D50C84BAFBE18D1622E268C73","019cfc80-48fd-717e-a1fb-e6dffc6b2446","019cfc7b-6c7b-7b1b-afe7-acad8efc6711","","null","
                <div class=""stimulus-container"">
                    <img src=""images/semantic_sequence/visiting_cities_semantic/visiting_cities_semantic_6.png"" class=""exp-image"">
                    <div class=""question-area""></div> 
                </div>","null","","","","","","","","","","","",""
"","","","","","html-button-response","70","483778","0.0-70.0","FE313B9D50C84BAFBE18D1622E268C73","019cfc80-48fd-717e-a1fb-e6dffc6b2446","019cfc7b-6c7b-7b1b-afe7-acad8efc6711","","591","
                <div class=""stimulus-container"">
                    <img src=""images/semantic_sequence/visiting_cities_semantic/visiting_cities_semantic_6.png"" class=""exp-image"">
                    <div class=""question-area"">
                        <p style=""font-size: 20px; font-weight: bold; margin: 0;"">Is there a person in this image?</p>
                    </div>
                </div>","1","main_experiment_trial","6","visiting_cities_semantic","semantic_sequence","chronological","","","","","","",""
"","","","","","html-keyboard-response","71","488780","0.0-71.0","FE313B9D50C84BAFBE18D1622E268C73","019cfc80-48fd-717e-a1fb-e6dffc6b2446","019cfc7b-6c7b-7b1b-afe7-acad8efc6711","","null","
                <div class=""stimulus-container"">
                    <img src=""images/semantic_sequence/visiting_cities_semantic/visiting_cities_semantic_7.png"" class=""exp-image"">
                    <div class=""question-area""></div> 
                </div>","null","","","","","","","","","","","",""
"","","","","","html-button-response","72","490092","0.0-72.0","FE313B9D50C84BAFBE18D1622E268C73","019cfc80-48fd-717e-a1fb-e6dffc6b2446","019cfc7b-6c7b-7b1b-afe7-acad8efc6711","","1311","
                <div class=""stimulus-container"">
                    <img src=""images/semantic_sequence/visiting_cities_semantic/visiting_cities_semantic_7.png"" class=""exp-image"">
                    <div class=""question-area"">
                        <p style=""font-size: 20px; font-weight: bold; margin: 0;"">Is there a person in this image?</p>
                    </div>
                </div>","0","main_experiment_trial","7","visiting_cities_semantic","semantic_sequence","chronological","","","","","","",""
"","","","","","html-keyboard-response","73","495096","0.0-73.0","FE313B9D50C84BAFBE18D1622E268C73","019cfc80-48fd-717e-a1fb-e6dffc6b2446","019cfc7b-6c7b-7b1b-afe7-acad8efc6711","","null","
                <div class=""stimulus-container"">
                    <img src=""images/semantic_sequence/visiting_cities_semantic/visiting_cities_semantic_8.png"" class=""exp-image"">
                    <div class=""question-area""></div> 
                </div>","null","","","","","","","","","","","",""
"","","","","","html-button-response","74","496004","0.0-74.0","FE313B9D50C84BAFBE18D1622E268C73","019cfc80-48fd-717e-a1fb-e6dffc6b2446","019cfc7b-6c7b-7b1b-afe7-acad8efc6711","","908","
                <div class=""stimulus-container"">
                    <img src=""images/semantic_sequence/visiting_cities_semantic/visiting_cities_semantic_8.png"" class=""exp-image"">
                    <div class=""question-area"">
                        <p style=""font-size: 20px; font-weight: bold; margin: 0;"">Is there a person in this image?</p>
                    </div>
                </div>","1","main_experiment_trial","8","visiting_cities_semantic","semantic_sequence","chronological","","","","","","",""
"","","","","","html-keyboard-response","75","501006","0.0-75.0","FE313B9D50C84BAFBE18D1622E268C73","019cfc80-48fd-717e-a1fb-e6dffc6b2446","019cfc7b-6c7b-7b1b-afe7-acad8efc6711","","null","
                <div class=""stimulus-container"">
                    <img src=""images/semantic_sequence/visiting_cities_semantic/visiting_cities_semantic_9.png"" class=""exp-image"">
                    <div class=""question-area""></div> 
                </div>","null","","","","","","","","","","","",""
"","","","","","html-button-response","76","502854","0.0-76.0","FE313B9D50C84BAFBE18D1622E268C73","019cfc80-48fd-717e-a1fb-e6dffc6b2446","019cfc7b-6c7b-7b1b-afe7-acad8efc6711","","1846","
                <div class=""stimulus-container"">
                    <img src=""images/semantic_sequence/visiting_cities_semantic/visiting_cities_semantic_9.png"" class=""exp-image"">
                    <div class=""question-area"">
                        <p style=""font-size: 20px; font-weight: bold; margin: 0;"">Is there a person in this image?</p>
                    </div>
                </div>","1","main_experiment_trial","9","visiting_cities_semantic","semantic_sequence","chronological","","","","","","",""
"","","","","","html-keyboard-response","77","507866","0.0-77.0","FE313B9D50C84BAFBE18D1622E268C73","019cfc80-48fd-717e-a1fb-e6dffc6b2446","019cfc7b-6c7b-7b1b-afe7-acad8efc6711","","null","
                <div class=""stimulus-container"">
                    <img src=""images/semantic_sequence/visiting_cities_semantic/visiting_cities_semantic_ten.png"" class=""exp-image"">
                    <div class=""question-area""></div> 
                </div>","null","","","","","","","","","","","",""
"","","","","","html-button-response","78","508935","0.0-78.0","FE313B9D50C84BAFBE18D1622E268C73","019cfc80-48fd-717e-a1fb-e6dffc6b2446","019cfc7b-6c7b-7b1b-afe7-acad8efc6711","","1068","
                <div class=""stimulus-container"">
                    <img src=""images/semantic_sequence/visiting_cities_semantic/visiting_cities_semantic_ten.png"" class=""exp-image"">
                    <div class=""question-area"">
                        <p style=""font-size: 20px; font-weight: bold; margin: 0;"">Is there a person in this image?</p>
                    </div>
                </div>","1","main_experiment_trial","ten","visiting_cities_semantic","semantic_sequence","chronological","","","","","","",""
"","","","","","html-keyboard-response","79","513939","0.0-79.0","FE313B9D50C84BAFBE18D1622E268C73","019cfc80-48fd-717e-a1fb-e6dffc6b2446","019cfc7b-6c7b-7b1b-afe7-acad8efc6711","","null","<div style=""background-color: white; width: 100vw; height: 100vh;""></div>","null","","","","","","","","","","","",""
"","","","","","html-keyboard-response","80","518941","0.0-80.0","FE313B9D50C84BAFBE18D1622E268C73","019cfc80-48fd-717e-a1fb-e6dffc6b2446","019cfc7b-6c7b-7b1b-afe7-acad8efc6711","","null","
                <div class=""stimulus-container"">
                    <img src=""images/causal_sequence/museum_causal/museum_causal_1.png"" class=""exp-image"">
                    <div class=""question-area""></div> 
                </div>","null","","","","","","","","","","","",""
"","","","","","html-button-response","81","520000","0.0-81.0","FE313B9D50C84BAFBE18D1622E268C73","019cfc80-48fd-717e-a1fb-e6dffc6b2446","019cfc7b-6c7b-7b1b-afe7-acad8efc6711","","1058","
                <div class=""stimulus-container"">
                    <img src=""images/causal_sequence/museum_causal/museum_causal_1.png"" class=""exp-image"">
                    <div class=""question-area"">
                        <p style=""font-size: 20px; font-weight: bold; margin: 0;"">Is there a person in this image?</p>
                    </div>
                </div>","0","main_experiment_trial","1","museum_causal","causal_sequence","chronological","","","","","","",""
"","","","","","html-keyboard-response","82","525016","0.0-82.0","FE313B9D50C84BAFBE18D1622E268C73","019cfc80-48fd-717e-a1fb-e6dffc6b2446","019cfc7b-6c7b-7b1b-afe7-acad8efc6711","","null","
                <div class=""stimulus-container"">
                    <img src=""images/causal_sequence/museum_causal/museum_causal_2.png"" class=""exp-image"">
                    <div class=""question-area""></div> 
                </div>","null","","","","","","","","","","","",""
"","","","","","html-button-response","83","525809","0.0-83.0","FE313B9D50C84BAFBE18D1622E268C73","019cfc80-48fd-717e-a1fb-e6dffc6b2446","019cfc7b-6c7b-7b1b-afe7-acad8efc6711","","792","
                <div class=""stimulus-container"">
                    <img src=""images/causal_sequence/museum_causal/museum_causal_2.png"" class=""exp-image"">
                    <div class=""question-area"">
                        <p style=""font-size: 20px; font-weight: bold; margin: 0;"">Is there a person in this image?</p>
                    </div>
                </div>","1","main_experiment_trial","2","museum_causal","causal_sequence","chronological","","","","","","",""
"","","","","","html-keyboard-response","84","530822","0.0-84.0","FE313B9D50C84BAFBE18D1622E268C73","019cfc80-48fd-717e-a1fb-e6dffc6b2446","019cfc7b-6c7b-7b1b-afe7-acad8efc6711","","null","
                <div class=""stimulus-container"">
                    <img src=""images/causal_sequence/museum_causal/museum_causal_3.png"" class=""exp-image"">
                    <div class=""question-area""></div> 
                </div>","null","","","","","","","","","","","",""
"","","","","","html-button-response","85","531737","0.0-85.0","FE313B9D50C84BAFBE18D1622E268C73","019cfc80-48fd-717e-a1fb-e6dffc6b2446","019cfc7b-6c7b-7b1b-afe7-acad8efc6711","","914","
                <div class=""stimulus-container"">
                    <img src=""images/causal_sequence/museum_causal/museum_causal_3.png"" class=""exp-image"">
                    <div class=""question-area"">
                        <p style=""font-size: 20px; font-weight: bold; margin: 0;"">Is there a person in this image?</p>
                    </div>
                </div>","0","main_experiment_trial","3","museum_causal","causal_sequence","chronological","","","","","","",""
"","","","","","html-keyboard-response","86","536752","0.0-86.0","FE313B9D50C84BAFBE18D1622E268C73","019cfc80-48fd-717e-a1fb-e6dffc6b2446","019cfc7b-6c7b-7b1b-afe7-acad8efc6711","","null","
                <div class=""stimulus-container"">
                    <img src=""images/causal_sequence/museum_causal/museum_causal_4.png"" class=""exp-image"">
                    <div class=""question-area""></div> 
                </div>","null","","","","","","","","","","","",""
"","","","","","html-button-response","87","537570","0.0-87.0","FE313B9D50C84BAFBE18D1622E268C73","019cfc80-48fd-717e-a1fb-e6dffc6b2446","019cfc7b-6c7b-7b1b-afe7-acad8efc6711","","817","
                <div class=""stimulus-container"">
                    <img src=""images/causal_sequence/museum_causal/museum_causal_4.png"" class=""exp-image"">
                    <div class=""question-area"">
                        <p style=""font-size: 20px; font-weight: bold; margin: 0;"">Is there a person in this image?</p>
                    </div>
                </div>","1","main_experiment_trial","4","museum_causal","causal_sequence","chronological","","","","","","",""
"","","","","","html-keyboard-response","88","542584","0.0-88.0","FE313B9D50C84BAFBE18D1622E268C73","019cfc80-48fd-717e-a1fb-e6dffc6b2446","019cfc7b-6c7b-7b1b-afe7-acad8efc6711","","null","
                <div class=""stimulus-container"">
                    <img src=""images/causal_sequence/museum_causal/museum_causal_5.png"" class=""exp-image"">
                    <div class=""question-area""></div> 
                </div>","null","","","","","","","","","","","",""
"","","","","","html-button-response","89","543571","0.0-89.0","FE313B9D50C84BAFBE18D1622E268C73","019cfc80-48fd-717e-a1fb-e6dffc6b2446","019cfc7b-6c7b-7b1b-afe7-acad8efc6711","","986","
                <div class=""stimulus-container"">
                    <img src=""images/causal_sequence/museum_causal/museum_causal_5.png"" class=""exp-image"">
                    <div class=""question-area"">
                        <p style=""font-size: 20px; font-weight: bold; margin: 0;"">Is there a person in this image?</p>
                    </div>
                </div>","0","main_experiment_trial","5","museum_causal","causal_sequence","chronological","","","","","","",""
"","","","","","html-keyboard-response","90","548587","0.0-90.0","FE313B9D50C84BAFBE18D1622E268C73","019cfc80-48fd-717e-a1fb-e6dffc6b2446","019cfc7b-6c7b-7b1b-afe7-acad8efc6711","","null","
                <div class=""stimulus-container"">
                    <img src=""images/causal_sequence/museum_causal/museum_causal_6.png"" class=""exp-image"">
                    <div class=""question-area""></div> 
                </div>","null","","","","","","","","","","","",""
"","","","","","html-button-response","91","549675","0.0-91.0","FE313B9D50C84BAFBE18D1622E268C73","019cfc80-48fd-717e-a1fb-e6dffc6b2446","019cfc7b-6c7b-7b1b-afe7-acad8efc6711","","1087","
                <div class=""stimulus-container"">
                    <img src=""images/causal_sequence/museum_causal/museum_causal_6.png"" class=""exp-image"">
                    <div class=""question-area"">
                        <p style=""font-size: 20px; font-weight: bold; margin: 0;"">Is there a person in this image?</p>
                    </div>
                </div>","0","main_experiment_trial","6","museum_causal","causal_sequence","chronological","","","","","","",""
"","","","","","html-keyboard-response","92","554680","0.0-92.0","FE313B9D50C84BAFBE18D1622E268C73","019cfc80-48fd-717e-a1fb-e6dffc6b2446","019cfc7b-6c7b-7b1b-afe7-acad8efc6711","","null","
                <div class=""stimulus-container"">
                    <img src=""images/causal_sequence/museum_causal/museum_causal_7.png"" class=""exp-image"">
                    <div class=""question-area""></div> 
                </div>","null","","","","","","","","","","","",""
"","","","","","html-button-response","93","556124","0.0-93.0","FE313B9D50C84BAFBE18D1622E268C73","019cfc80-48fd-717e-a1fb-e6dffc6b2446","019cfc7b-6c7b-7b1b-afe7-acad8efc6711","","1443","
                <div class=""stimulus-container"">
                    <img src=""images/causal_sequence/museum_causal/museum_causal_7.png"" class=""exp-image"">
                    <div class=""question-area"">
                        <p style=""font-size: 20px; font-weight: bold; margin: 0;"">Is there a person in this image?</p>
                    </div>
                </div>","1","main_experiment_trial","7","museum_causal","causal_sequence","chronological","","","","","","",""
"","","","","","html-keyboard-response","94","561136","0.0-94.0","FE313B9D50C84BAFBE18D1622E268C73","019cfc80-48fd-717e-a1fb-e6dffc6b2446","019cfc7b-6c7b-7b1b-afe7-acad8efc6711","","null","
                <div class=""stimulus-container"">
                    <img src=""images/causal_sequence/museum_causal/museum_causal_8.png"" class=""exp-image"">
                    <div class=""question-area""></div> 
                </div>","null","","","","","","","","","","","",""
"","","","","","html-button-response","95","562046","0.0-95.0","FE313B9D50C84BAFBE18D1622E268C73","019cfc80-48fd-717e-a1fb-e6dffc6b2446","019cfc7b-6c7b-7b1b-afe7-acad8efc6711","","909","
                <div class=""stimulus-container"">
                    <img src=""images/causal_sequence/museum_causal/museum_causal_8.png"" class=""exp-image"">
                    <div class=""question-area"">
                        <p style=""font-size: 20px; font-weight: bold; margin: 0;"">Is there a person in this image?</p>
                    </div>
                </div>","0","main_experiment_trial","8","museum_causal","causal_sequence","chronological","","","","","","",""
"","","","","","html-keyboard-response","96","567058","0.0-96.0","FE313B9D50C84BAFBE18D1622E268C73","019cfc80-48fd-717e-a1fb-e6dffc6b2446","019cfc7b-6c7b-7b1b-afe7-acad8efc6711","","null","
                <div class=""stimulus-container"">
                    <img src=""images/causal_sequence/museum_causal/museum_causal_9.png"" class=""exp-image"">
                    <div class=""question-area""></div> 
                </div>","null","","","","","","","","","","","",""
"","","","","","html-button-response","97","567958","0.0-97.0","FE313B9D50C84BAFBE18D1622E268C73","019cfc80-48fd-717e-a1fb-e6dffc6b2446","019cfc7b-6c7b-7b1b-afe7-acad8efc6711","","899","
                <div class=""stimulus-container"">
                    <img src=""images/causal_sequence/museum_causal/museum_causal_9.png"" class=""exp-image"">
                    <div class=""question-area"">
                        <p style=""font-size: 20px; font-weight: bold; margin: 0;"">Is there a person in this image?</p>
                    </div>
                </div>","1","main_experiment_trial","9","museum_causal","causal_sequence","chronological","","","","","","",""
"","","","","","html-keyboard-response","98","572971","0.0-98.0","FE313B9D50C84BAFBE18D1622E268C73","019cfc80-48fd-717e-a1fb-e6dffc6b2446","019cfc7b-6c7b-7b1b-afe7-acad8efc6711","","null","
                <div class=""stimulus-container"">
                    <img src=""images/causal_sequence/museum_causal/museum_causal_ten.png"" class=""exp-image"">
                    <div class=""question-area""></div> 
                </div>","null","","","","","","","","","","","",""
"","","","","","html-button-response","99","573799","0.0-99.0","FE313B9D50C84BAFBE18D1622E268C73","019cfc80-48fd-717e-a1fb-e6dffc6b2446","019cfc7b-6c7b-7b1b-afe7-acad8efc6711","","827","
                <div class=""stimulus-container"">
                    <img src=""images/causal_sequence/museum_causal/museum_causal_ten.png"" class=""exp-image"">
                    <div class=""question-area"">
                        <p style=""font-size: 20px; font-weight: bold; margin: 0;"">Is there a person in this image?</p>
                    </div>
                </div>","0","main_experiment_trial","ten","museum_causal","causal_sequence","chronological","","","","","","",""
"","","","","","html-keyboard-response","100","578801","0.0-100.0","FE313B9D50C84BAFBE18D1622E268C73","019cfc80-48fd-717e-a1fb-e6dffc6b2446","019cfc7b-6c7b-7b1b-afe7-acad8efc6711","","null","<div style=""background-color: white; width: 100vw; height: 100vh;""></div>","null","","","","","","","","","","","",""
"","","","","","html-keyboard-response","101","583802","0.0-101.0","FE313B9D50C84BAFBE18D1622E268C73","019cfc80-48fd-717e-a1fb-e6dffc6b2446","019cfc7b-6c7b-7b1b-afe7-acad8efc6711","","null","
                <div class=""stimulus-container"">
                    <img src=""images/schematic_sequence/flight_scheme/flight_scheme_1.png"" class=""exp-image"">
                    <div class=""question-area""></div> 
                </div>","null","","","","","","","","","","","",""
"","","","","","html-button-response","102","585016","0.0-102.0","FE313B9D50C84BAFBE18D1622E268C73","019cfc80-48fd-717e-a1fb-e6dffc6b2446","019cfc7b-6c7b-7b1b-afe7-acad8efc6711","","1213","
                <div class=""stimulus-container"">
                    <img src=""images/schematic_sequence/flight_scheme/flight_scheme_1.png"" class=""exp-image"">
                    <div class=""question-area"">
                        <p style=""font-size: 20px; font-weight: bold; margin: 0;"">Is there a person in this image?</p>
                    </div>
                </div>","0","main_experiment_trial","1","flight_scheme","schematic_sequence","chronological","","","","","","",""
"","","","","","html-keyboard-response","103","590028","0.0-103.0","FE313B9D50C84BAFBE18D1622E268C73","019cfc80-48fd-717e-a1fb-e6dffc6b2446","019cfc7b-6c7b-7b1b-afe7-acad8efc6711","","null","
                <div class=""stimulus-container"">
                    <img src=""images/schematic_sequence/flight_scheme/flight_scheme_2.png"" class=""exp-image"">
                    <div class=""question-area""></div> 
                </div>","null","","","","","","","","","","","",""
"","","","","","html-button-response","104","591536","0.0-104.0","FE313B9D50C84BAFBE18D1622E268C73","019cfc80-48fd-717e-a1fb-e6dffc6b2446","019cfc7b-6c7b-7b1b-afe7-acad8efc6711","","1508","
                <div class=""stimulus-container"">
                    <img src=""images/schematic_sequence/flight_scheme/flight_scheme_2.png"" class=""exp-image"">
                    <div class=""question-area"">
                        <p style=""font-size: 20px; font-weight: bold; margin: 0;"">Is there a person in this image?</p>
                    </div>
                </div>","1","main_experiment_trial","2","flight_scheme","schematic_sequence","chronological","","","","","","",""
"","","","","","html-keyboard-response","105","596538","0.0-105.0","FE313B9D50C84BAFBE18D1622E268C73","019cfc80-48fd-717e-a1fb-e6dffc6b2446","019cfc7b-6c7b-7b1b-afe7-acad8efc6711","","null","
                <div class=""stimulus-container"">
                    <img src=""images/schematic_sequence/flight_scheme/flight_scheme_3.png"" class=""exp-image"">
                    <div class=""question-area""></div> 
                </div>","null","","","","","","","","","","","",""
"","","","","","html-button-response","106","597284","0.0-106.0","FE313B9D50C84BAFBE18D1622E268C73","019cfc80-48fd-717e-a1fb-e6dffc6b2446","019cfc7b-6c7b-7b1b-afe7-acad8efc6711","","745","
                <div class=""stimulus-container"">
                    <img src=""images/schematic_sequence/flight_scheme/flight_scheme_3.png"" class=""exp-image"">
                    <div class=""question-area"">
                        <p style=""font-size: 20px; font-weight: bold; margin: 0;"">Is there a person in this image?</p>
                    </div>
                </div>","0","main_experiment_trial","3","flight_scheme","schematic_sequence","chronological","","","","","","",""
"","","","","","html-keyboard-response","107","602298","0.0-107.0","FE313B9D50C84BAFBE18D1622E268C73","019cfc80-48fd-717e-a1fb-e6dffc6b2446","019cfc7b-6c7b-7b1b-afe7-acad8efc6711","","null","
                <div class=""stimulus-container"">
                    <img src=""images/schematic_sequence/flight_scheme/flight_scheme_4.png"" class=""exp-image"">
                    <div class=""question-area""></div> 
                </div>","null","","","","","","","","","","","",""
"","","","","","html-button-response","108","603403","0.0-108.0","FE313B9D50C84BAFBE18D1622E268C73","019cfc80-48fd-717e-a1fb-e6dffc6b2446","019cfc7b-6c7b-7b1b-afe7-acad8efc6711","","1104","
                <div class=""stimulus-container"">
                    <img src=""images/schematic_sequence/flight_scheme/flight_scheme_4.png"" class=""exp-image"">
                    <div class=""question-area"">
                        <p style=""font-size: 20px; font-weight: bold; margin: 0;"">Is there a person in this image?</p>
                    </div>
                </div>","0","main_experiment_trial","4","flight_scheme","schematic_sequence","chronological","","","","","","",""
"","","","","","html-keyboard-response","109","608404","0.0-109.0","FE313B9D50C84BAFBE18D1622E268C73","019cfc80-48fd-717e-a1fb-e6dffc6b2446","019cfc7b-6c7b-7b1b-afe7-acad8efc6711","","null","
                <div class=""stimulus-container"">
                    <img src=""images/schematic_sequence/flight_scheme/flight_scheme_5.png"" class=""exp-image"">
                    <div class=""question-area""></div> 
                </div>","null","","","","","","","","","","","",""
"","","","","","html-button-response","110","610038","0.0-110.0","FE313B9D50C84BAFBE18D1622E268C73","019cfc80-48fd-717e-a1fb-e6dffc6b2446","019cfc7b-6c7b-7b1b-afe7-acad8efc6711","","1632","
                <div class=""stimulus-container"">
                    <img src=""images/schematic_sequence/flight_scheme/flight_scheme_5.png"" class=""exp-image"">
                    <div class=""question-area"">
                        <p style=""font-size: 20px; font-weight: bold; margin: 0;"">Is there a person in this image?</p>
                    </div>
                </div>","0","main_experiment_trial","5","flight_scheme","schematic_sequence","chronological","","","","","","",""
"","","","","","html-keyboard-response","111","615051","0.0-111.0","FE313B9D50C84BAFBE18D1622E268C73","019cfc80-48fd-717e-a1fb-e6dffc6b2446","019cfc7b-6c7b-7b1b-afe7-acad8efc6711","","null","
                <div class=""stimulus-container"">
                    <img src=""images/schematic_sequence/flight_scheme/flight_scheme_6.png"" class=""exp-image"">
                    <div class=""question-area""></div> 
                </div>","null","","","","","","","","","","","",""
"","","","","","html-button-response","112","616273","0.0-112.0","FE313B9D50C84BAFBE18D1622E268C73","019cfc80-48fd-717e-a1fb-e6dffc6b2446","019cfc7b-6c7b-7b1b-afe7-acad8efc6711","","1221","
                <div class=""stimulus-container"">
                    <img src=""images/schematic_sequence/flight_scheme/flight_scheme_6.png"" class=""exp-image"">
                    <div class=""question-area"">
                        <p style=""font-size: 20px; font-weight: bold; margin: 0;"">Is there a person in this image?</p>
                    </div>
                </div>","1","main_experiment_trial","6","flight_scheme","schematic_sequence","chronological","","","","","","",""
"","","","","","html-keyboard-response","113","621282","0.0-113.0","FE313B9D50C84BAFBE18D1622E268C73","019cfc80-48fd-717e-a1fb-e6dffc6b2446","019cfc7b-6c7b-7b1b-afe7-acad8efc6711","","null","
                <div class=""stimulus-container"">
                    <img src=""images/schematic_sequence/flight_scheme/flight_scheme_7.png"" class=""exp-image"">
                    <div class=""question-area""></div> 
                </div>","null","","","","","","","","","","","",""
"","","","","","html-button-response","114","624153","0.0-114.0","FE313B9D50C84BAFBE18D1622E268C73","019cfc80-48fd-717e-a1fb-e6dffc6b2446","019cfc7b-6c7b-7b1b-afe7-acad8efc6711","","2870","
                <div class=""stimulus-container"">
                    <img src=""images/schematic_sequence/flight_scheme/flight_scheme_7.png"" class=""exp-image"">
                    <div class=""question-area"">
                        <p style=""font-size: 20px; font-weight: bold; margin: 0;"">Is there a person in this image?</p>
                    </div>
                </div>","0","main_experiment_trial","7","flight_scheme","schematic_sequence","chronological","","","","","","",""
"","","","","","html-keyboard-response","115","629157","0.0-115.0","FE313B9D50C84BAFBE18D1622E268C73","019cfc80-48fd-717e-a1fb-e6dffc6b2446","019cfc7b-6c7b-7b1b-afe7-acad8efc6711","","null","
                <div class=""stimulus-container"">
                    <img src=""images/schematic_sequence/flight_scheme/flight_scheme_8.png"" class=""exp-image"">
                    <div class=""question-area""></div> 
                </div>","null","","","","","","","","","","","",""
"","","","","","html-button-response","116","629946","0.0-116.0","FE313B9D50C84BAFBE18D1622E268C73","019cfc80-48fd-717e-a1fb-e6dffc6b2446","019cfc7b-6c7b-7b1b-afe7-acad8efc6711","","788","
                <div class=""stimulus-container"">
                    <img src=""images/schematic_sequence/flight_scheme/flight_scheme_8.png"" class=""exp-image"">
                    <div class=""question-area"">
                        <p style=""font-size: 20px; font-weight: bold; margin: 0;"">Is there a person in this image?</p>
                    </div>
                </div>","1","main_experiment_trial","8","flight_scheme","schematic_sequence","chronological","","","","","","",""
"","","","","","html-keyboard-response","117","634960","0.0-117.0","FE313B9D50C84BAFBE18D1622E268C73","019cfc80-48fd-717e-a1fb-e6dffc6b2446","019cfc7b-6c7b-7b1b-afe7-acad8efc6711","","null","
                <div class=""stimulus-container"">
                    <img src=""images/schematic_sequence/flight_scheme/flight_scheme_9.png"" class=""exp-image"">
                    <div class=""question-area""></div> 
                </div>","null","","","","","","","","","","","",""
"","","","","","html-button-response","118","636331","0.0-118.0","FE313B9D50C84BAFBE18D1622E268C73","019cfc80-48fd-717e-a1fb-e6dffc6b2446","019cfc7b-6c7b-7b1b-afe7-acad8efc6711","","1370","
                <div class=""stimulus-container"">
                    <img src=""images/schematic_sequence/flight_scheme/flight_scheme_9.png"" class=""exp-image"">
                    <div class=""question-area"">
                        <p style=""font-size: 20px; font-weight: bold; margin: 0;"">Is there a person in this image?</p>
                    </div>
                </div>","0","main_experiment_trial","9","flight_scheme","schematic_sequence","chronological","","","","","","",""
"","","","","","html-keyboard-response","119","641332","0.0-119.0","FE313B9D50C84BAFBE18D1622E268C73","019cfc80-48fd-717e-a1fb-e6dffc6b2446","019cfc7b-6c7b-7b1b-afe7-acad8efc6711","","null","
                <div class=""stimulus-container"">
                    <img src=""images/schematic_sequence/flight_scheme/flight_scheme_ten.png"" class=""exp-image"">
                    <div class=""question-area""></div> 
                </div>","null","","","","","","","","","","","",""
"","","","","","html-button-response","120","642228","0.0-120.0","FE313B9D50C84BAFBE18D1622E268C73","019cfc80-48fd-717e-a1fb-e6dffc6b2446","019cfc7b-6c7b-7b1b-afe7-acad8efc6711","","895","
                <div class=""stimulus-container"">
                    <img src=""images/schematic_sequence/flight_scheme/flight_scheme_ten.png"" class=""exp-image"">
                    <div class=""question-area"">
                        <p style=""font-size: 20px; font-weight: bold; margin: 0;"">Is there a person in this image?</p>
                    </div>
                </div>","0","main_experiment_trial","ten","flight_scheme","schematic_sequence","chronological","","","","","","",""
"","","","","","html-keyboard-response","121","647245","0.0-121.0","FE313B9D50C84BAFBE18D1622E268C73","019cfc80-48fd-717e-a1fb-e6dffc6b2446","019cfc7b-6c7b-7b1b-afe7-acad8efc6711","","null","<div style=""background-color: white; width: 100vw; height: 100vh;""></div>","null","","","","","","","","","","","",""
"","","","","","html-keyboard-response","122","652259","0.0-122.0","FE313B9D50C84BAFBE18D1622E268C73","019cfc80-48fd-717e-a1fb-e6dffc6b2446","019cfc7b-6c7b-7b1b-afe7-acad8efc6711","","null","
                <div class=""stimulus-container"">
                    <img src=""images/causal_sequence/package_causal/package_causal_1.png"" class=""exp-image"">
                    <div class=""question-area""></div> 
                </div>","null","","","","","","","","","","","",""
"","","","","","html-button-response","123","653174","0.0-123.0","FE313B9D50C84BAFBE18D1622E268C73","019cfc80-48fd-717e-a1fb-e6dffc6b2446","019cfc7b-6c7b-7b1b-afe7-acad8efc6711","","914","
                <div class=""stimulus-container"">
                    <img src=""images/causal_sequence/package_causal/package_causal_1.png"" class=""exp-image"">
                    <div class=""question-area"">
                        <p style=""font-size: 20px; font-weight: bold; margin: 0;"">Is there a person in this image?</p>
                    </div>
                </div>","0","main_experiment_trial","1","package_causal","causal_sequence","chronological","","","","","","",""
"","","","","","html-keyboard-response","124","658178","0.0-124.0","FE313B9D50C84BAFBE18D1622E268C73","019cfc80-48fd-717e-a1fb-e6dffc6b2446","019cfc7b-6c7b-7b1b-afe7-acad8efc6711","","null","
                <div class=""stimulus-container"">
                    <img src=""images/causal_sequence/package_causal/package_causal_2.png"" class=""exp-image"">
                    <div class=""question-area""></div> 
                </div>","null","","","","","","","","","","","",""
"","","","","","html-button-response","125","659391","0.0-125.0","FE313B9D50C84BAFBE18D1622E268C73","019cfc80-48fd-717e-a1fb-e6dffc6b2446","019cfc7b-6c7b-7b1b-afe7-acad8efc6711","","1213","
                <div class=""stimulus-container"">
                    <img src=""images/causal_sequence/package_causal/package_causal_2.png"" class=""exp-image"">
                    <div class=""question-area"">
                        <p style=""font-size: 20px; font-weight: bold; margin: 0;"">Is there a person in this image?</p>
                    </div>
                </div>","0","main_experiment_trial","2","package_causal","causal_sequence","chronological","","","","","","",""
"","","","","","html-keyboard-response","126","664399","0.0-126.0","FE313B9D50C84BAFBE18D1622E268C73","019cfc80-48fd-717e-a1fb-e6dffc6b2446","019cfc7b-6c7b-7b1b-afe7-acad8efc6711","","null","
                <div class=""stimulus-container"">
                    <img src=""images/causal_sequence/package_causal/package_causal_3.png"" class=""exp-image"">
                    <div class=""question-area""></div> 
                </div>","null","","","","","","","","","","","",""
"","","","","","html-button-response","127","665600","0.0-127.0","FE313B9D50C84BAFBE18D1622E268C73","019cfc80-48fd-717e-a1fb-e6dffc6b2446","019cfc7b-6c7b-7b1b-afe7-acad8efc6711","","1200","
                <div class=""stimulus-container"">
                    <img src=""images/causal_sequence/package_causal/package_causal_3.png"" class=""exp-image"">
                    <div class=""question-area"">
                        <p style=""font-size: 20px; font-weight: bold; margin: 0;"">Is there a person in this image?</p>
                    </div>
                </div>","0","main_experiment_trial","3","package_causal","causal_sequence","chronological","","","","","","",""
"","","","","","html-keyboard-response","128","670603","0.0-128.0","FE313B9D50C84BAFBE18D1622E268C73","019cfc80-48fd-717e-a1fb-e6dffc6b2446","019cfc7b-6c7b-7b1b-afe7-acad8efc6711","","null","
                <div class=""stimulus-container"">
                    <img src=""images/causal_sequence/package_causal/package_causal_4.png"" class=""exp-image"">
                    <div class=""question-area""></div> 
                </div>","null","","","","","","","","","","","",""
"","","","","","html-button-response","129","671568","0.0-129.0","FE313B9D50C84BAFBE18D1622E268C73","019cfc80-48fd-717e-a1fb-e6dffc6b2446","019cfc7b-6c7b-7b1b-afe7-acad8efc6711","","963","
                <div class=""stimulus-container"">
                    <img src=""images/causal_sequence/package_causal/package_causal_4.png"" class=""exp-image"">
                    <div class=""question-area"">
                        <p style=""font-size: 20px; font-weight: bold; margin: 0;"">Is there a person in this image?</p>
                    </div>
                </div>","1","main_experiment_trial","4","package_causal","causal_sequence","chronological","","","","","","",""
"","","","","","html-keyboard-response","130","676570","0.0-130.0","FE313B9D50C84BAFBE18D1622E268C73","019cfc80-48fd-717e-a1fb-e6dffc6b2446","019cfc7b-6c7b-7b1b-afe7-acad8efc6711","","null","
                <div class=""stimulus-container"">
                    <img src=""images/causal_sequence/package_causal/package_causal_5.png"" class=""exp-image"">
                    <div class=""question-area""></div> 
                </div>","null","","","","","","","","","","","",""
"","","","","","html-button-response","131","677402","0.0-131.0","FE313B9D50C84BAFBE18D1622E268C73","019cfc80-48fd-717e-a1fb-e6dffc6b2446","019cfc7b-6c7b-7b1b-afe7-acad8efc6711","","831","
                <div class=""stimulus-container"">
                    <img src=""images/causal_sequence/package_causal/package_causal_5.png"" class=""exp-image"">
                    <div class=""question-area"">
                        <p style=""font-size: 20px; font-weight: bold; margin: 0;"">Is there a person in this image?</p>
                    </div>
                </div>","0","main_experiment_trial","5","package_causal","causal_sequence","chronological","","","","","","",""
"","","","","","html-keyboard-response","132","682416","0.0-132.0","FE313B9D50C84BAFBE18D1622E268C73","019cfc80-48fd-717e-a1fb-e6dffc6b2446","019cfc7b-6c7b-7b1b-afe7-acad8efc6711","","null","
                <div class=""stimulus-container"">
                    <img src=""images/causal_sequence/package_causal/package_causal_6.png"" class=""exp-image"">
                    <div class=""question-area""></div> 
                </div>","null","","","","","","","","","","","",""
"","","","","","html-button-response","133","683690","0.0-133.0","FE313B9D50C84BAFBE18D1622E268C73","019cfc80-48fd-717e-a1fb-e6dffc6b2446","019cfc7b-6c7b-7b1b-afe7-acad8efc6711","","1273","
                <div class=""stimulus-container"">
                    <img src=""images/causal_sequence/package_causal/package_causal_6.png"" class=""exp-image"">
                    <div class=""question-area"">
                        <p style=""font-size: 20px; font-weight: bold; margin: 0;"">Is there a person in this image?</p>
                    </div>
                </div>","0","main_experiment_trial","6","package_causal","causal_sequence","chronological","","","","","","",""
"","","","","","html-keyboard-response","134","688705","0.0-134.0","FE313B9D50C84BAFBE18D1622E268C73","019cfc80-48fd-717e-a1fb-e6dffc6b2446","019cfc7b-6c7b-7b1b-afe7-acad8efc6711","","null","
                <div class=""stimulus-container"">
                    <img src=""images/causal_sequence/package_causal/package_causal_7.png"" class=""exp-image"">
                    <div class=""question-area""></div> 
                </div>","null","","","","","","","","","","","",""
"","","","","","html-button-response","135","689898","0.0-135.0","FE313B9D50C84BAFBE18D1622E268C73","019cfc80-48fd-717e-a1fb-e6dffc6b2446","019cfc7b-6c7b-7b1b-afe7-acad8efc6711","","1193","
                <div class=""stimulus-container"">
                    <img src=""images/causal_sequence/package_causal/package_causal_7.png"" class=""exp-image"">
                    <div class=""question-area"">
                        <p style=""font-size: 20px; font-weight: bold; margin: 0;"">Is there a person in this image?</p>
                    </div>
                </div>","0","main_experiment_trial","7","package_causal","causal_sequence","chronological","","","","","","",""
"","","","","","html-keyboard-response","136","694914","0.0-136.0","FE313B9D50C84BAFBE18D1622E268C73","019cfc80-48fd-717e-a1fb-e6dffc6b2446","019cfc7b-6c7b-7b1b-afe7-acad8efc6711","","null","
                <div class=""stimulus-container"">
                    <img src=""images/causal_sequence/package_causal/package_causal_8.png"" class=""exp-image"">
                    <div class=""question-area""></div> 
                </div>","null","","","","","","","","","","","",""
"","","","","","html-button-response","137","696707","0.0-137.0","FE313B9D50C84BAFBE18D1622E268C73","019cfc80-48fd-717e-a1fb-e6dffc6b2446","019cfc7b-6c7b-7b1b-afe7-acad8efc6711","","1792","
                <div class=""stimulus-container"">
                    <img src=""images/causal_sequence/package_causal/package_causal_8.png"" class=""exp-image"">
                    <div class=""question-area"">
                        <p style=""font-size: 20px; font-weight: bold; margin: 0;"">Is there a person in this image?</p>
                    </div>
                </div>","0","main_experiment_trial","8","package_causal","causal_sequence","chronological","","","","","","",""
"","","","","","html-keyboard-response","138","701718","0.0-138.0","FE313B9D50C84BAFBE18D1622E268C73","019cfc80-48fd-717e-a1fb-e6dffc6b2446","019cfc7b-6c7b-7b1b-afe7-acad8efc6711","","null","
                <div class=""stimulus-container"">
                    <img src=""images/causal_sequence/package_causal/package_causal_9.png"" class=""exp-image"">
                    <div class=""question-area""></div> 
                </div>","null","","","","","","","","","","","",""
"","","","","","html-button-response","139","702516","0.0-139.0","FE313B9D50C84BAFBE18D1622E268C73","019cfc80-48fd-717e-a1fb-e6dffc6b2446","019cfc7b-6c7b-7b1b-afe7-acad8efc6711","","797","
                <div class=""stimulus-container"">
                    <img src=""images/causal_sequence/package_causal/package_causal_9.png"" class=""exp-image"">
                    <div class=""question-area"">
                        <p style=""font-size: 20px; font-weight: bold; margin: 0;"">Is there a person in this image?</p>
                    </div>
                </div>","0","main_experiment_trial","9","package_causal","causal_sequence","chronological","","","","","","",""
"","","","","","html-keyboard-response","140","707530","0.0-140.0","FE313B9D50C84BAFBE18D1622E268C73","019cfc80-48fd-717e-a1fb-e6dffc6b2446","019cfc7b-6c7b-7b1b-afe7-acad8efc6711","","null","
                <div class=""stimulus-container"">
                    <img src=""images/causal_sequence/package_causal/package_causal_ten.png"" class=""exp-image"">
                    <div class=""question-area""></div> 
                </div>","null","","","","","","","","","","","",""
"","","","","","html-button-response","141","708268","0.0-141.0","FE313B9D50C84BAFBE18D1622E268C73","019cfc80-48fd-717e-a1fb-e6dffc6b2446","019cfc7b-6c7b-7b1b-afe7-acad8efc6711","","737","
                <div class=""stimulus-container"">
                    <img src=""images/causal_sequence/package_causal/package_causal_ten.png"" class=""exp-image"">
                    <div class=""question-area"">
                        <p style=""font-size: 20px; font-weight: bold; margin: 0;"">Is there a person in this image?</p>
                    </div>
                </div>","0","main_experiment_trial","ten","package_causal","causal_sequence","chronological","","","","","","",""
"","","","","","html-keyboard-response","142","713275","0.0-142.0","FE313B9D50C84BAFBE18D1622E268C73","019cfc80-48fd-717e-a1fb-e6dffc6b2446","019cfc7b-6c7b-7b1b-afe7-acad8efc6711","","null","<div style=""background-color: white; width: 100vw; height: 100vh;""></div>","null","","","","","","","","","","","",""
"","","","","","html-keyboard-response","143","718286","0.0-143.0","FE313B9D50C84BAFBE18D1622E268C73","019cfc80-48fd-717e-a1fb-e6dffc6b2446","019cfc7b-6c7b-7b1b-afe7-acad8efc6711","","null","
                <div class=""stimulus-container"">
                    <img src=""images/semantic_sequence/kitchen_operations_semantic/kitchen_operations_semantic_1.png"" class=""exp-image"">
                    <div class=""question-area""></div> 
                </div>","null","","","","","","","","","","","",""
"","","","","","html-button-response","144","719143","0.0-144.0","FE313B9D50C84BAFBE18D1622E268C73","019cfc80-48fd-717e-a1fb-e6dffc6b2446","019cfc7b-6c7b-7b1b-afe7-acad8efc6711","","856","
                <div class=""stimulus-container"">
                    <img src=""images/semantic_sequence/kitchen_operations_semantic/kitchen_operations_semantic_1.png"" class=""exp-image"">
                    <div class=""question-area"">
                        <p style=""font-size: 20px; font-weight: bold; margin: 0;"">Is there a person in this image?</p>
                    </div>
                </div>","0","main_experiment_trial","1","kitchen_operations_semantic","semantic_sequence","chronological","","","","","","",""
"","","","","","html-keyboard-response","145","724156","0.0-145.0","FE313B9D50C84BAFBE18D1622E268C73","019cfc80-48fd-717e-a1fb-e6dffc6b2446","019cfc7b-6c7b-7b1b-afe7-acad8efc6711","","null","
                <div class=""stimulus-container"">
                    <img src=""images/semantic_sequence/kitchen_operations_semantic/kitchen_operations_semantic_2.png"" class=""exp-image"">
                    <div class=""question-area""></div> 
                </div>","null","","","","","","","","","","","",""
"","","","","","html-button-response","146","725382","0.0-146.0","FE313B9D50C84BAFBE18D1622E268C73","019cfc80-48fd-717e-a1fb-e6dffc6b2446","019cfc7b-6c7b-7b1b-afe7-acad8efc6711","","1225","
                <div class=""stimulus-container"">
                    <img src=""images/semantic_sequence/kitchen_operations_semantic/kitchen_operations_semantic_2.png"" class=""exp-image"">
                    <div class=""question-area"">
                        <p style=""font-size: 20px; font-weight: bold; margin: 0;"">Is there a person in this image?</p>
                    </div>
                </div>","0","main_experiment_trial","2","kitchen_operations_semantic","semantic_sequence","chronological","","","","","","",""
"","","","","","html-keyboard-response","147","730392","0.0-147.0","FE313B9D50C84BAFBE18D1622E268C73","019cfc80-48fd-717e-a1fb-e6dffc6b2446","019cfc7b-6c7b-7b1b-afe7-acad8efc6711","","null","
                <div class=""stimulus-container"">
                    <img src=""images/semantic_sequence/kitchen_operations_semantic/kitchen_operations_semantic_3.png"" class=""exp-image"">
                    <div class=""question-area""></div> 
                </div>","null","","","","","","","","","","","",""
"","","","","","html-button-response","148","731168","0.0-148.0","FE313B9D50C84BAFBE18D1622E268C73","019cfc80-48fd-717e-a1fb-e6dffc6b2446","019cfc7b-6c7b-7b1b-afe7-acad8efc6711","","776","
                <div class=""stimulus-container"">
                    <img src=""images/semantic_sequence/kitchen_operations_semantic/kitchen_operations_semantic_3.png"" class=""exp-image"">
                    <div class=""question-area"">
                        <p style=""font-size: 20px; font-weight: bold; margin: 0;"">Is there a person in this image?</p>
                    </div>
                </div>","0","main_experiment_trial","3","kitchen_operations_semantic","semantic_sequence","chronological","","","","","","",""
"","","","","","html-keyboard-response","149","736170","0.0-149.0","FE313B9D50C84BAFBE18D1622E268C73","019cfc80-48fd-717e-a1fb-e6dffc6b2446","019cfc7b-6c7b-7b1b-afe7-acad8efc6711","","null","
                <div class=""stimulus-container"">
                    <img src=""images/semantic_sequence/kitchen_operations_semantic/kitchen_operations_semantic_4.png"" class=""exp-image"">
                    <div class=""question-area""></div> 
                </div>","null","","","","","","","","","","","",""
"","","","","","html-button-response","150","737000","0.0-150.0","FE313B9D50C84BAFBE18D1622E268C73","019cfc80-48fd-717e-a1fb-e6dffc6b2446","019cfc7b-6c7b-7b1b-afe7-acad8efc6711","","829","
                <div class=""stimulus-container"">
                    <img src=""images/semantic_sequence/kitchen_operations_semantic/kitchen_operations_semantic_4.png"" class=""exp-image"">
                    <div class=""question-area"">
                        <p style=""font-size: 20px; font-weight: bold; margin: 0;"">Is there a person in this image?</p>
                    </div>
                </div>","0","main_experiment_trial","4","kitchen_operations_semantic","semantic_sequence","chronological","","","","","","",""
"","","","","","html-keyboard-response","151","742013","0.0-151.0","FE313B9D50C84BAFBE18D1622E268C73","019cfc80-48fd-717e-a1fb-e6dffc6b2446","019cfc7b-6c7b-7b1b-afe7-acad8efc6711","","null","
                <div class=""stimulus-container"">
                    <img src=""images/semantic_sequence/kitchen_operations_semantic/kitchen_operations_semantic_5.png"" class=""exp-image"">
                    <div class=""question-area""></div> 
                </div>","null","","","","","","","","","","","",""
"","","","","","html-button-response","152","743473","0.0-152.0","FE313B9D50C84BAFBE18D1622E268C73","019cfc80-48fd-717e-a1fb-e6dffc6b2446","019cfc7b-6c7b-7b1b-afe7-acad8efc6711","","1459","
                <div class=""stimulus-container"">
                    <img src=""images/semantic_sequence/kitchen_operations_semantic/kitchen_operations_semantic_5.png"" class=""exp-image"">
                    <div class=""question-area"">
                        <p style=""font-size: 20px; font-weight: bold; margin: 0;"">Is there a person in this image?</p>
                    </div>
                </div>","0","main_experiment_trial","5","kitchen_operations_semantic","semantic_sequence","chronological","","","","","","",""
"","","","","","html-keyboard-response","153","748486","0.0-153.0","FE313B9D50C84BAFBE18D1622E268C73","019cfc80-48fd-717e-a1fb-e6dffc6b2446","019cfc7b-6c7b-7b1b-afe7-acad8efc6711","","null","
                <div class=""stimulus-container"">
                    <img src=""images/semantic_sequence/kitchen_operations_semantic/kitchen_operations_semantic_6.png"" class=""exp-image"">
                    <div class=""question-area""></div> 
                </div>","null","","","","","","","","","","","",""
"","","","","","html-button-response","154","749417","0.0-154.0","FE313B9D50C84BAFBE18D1622E268C73","019cfc80-48fd-717e-a1fb-e6dffc6b2446","019cfc7b-6c7b-7b1b-afe7-acad8efc6711","","931","
                <div class=""stimulus-container"">
                    <img src=""images/semantic_sequence/kitchen_operations_semantic/kitchen_operations_semantic_6.png"" class=""exp-image"">
                    <div class=""question-area"">
                        <p style=""font-size: 20px; font-weight: bold; margin: 0;"">Is there a person in this image?</p>
                    </div>
                </div>","0","main_experiment_trial","6","kitchen_operations_semantic","semantic_sequence","chronological","","","","","","",""
"","","","","","html-keyboard-response","155","754419","0.0-155.0","FE313B9D50C84BAFBE18D1622E268C73","019cfc80-48fd-717e-a1fb-e6dffc6b2446","019cfc7b-6c7b-7b1b-afe7-acad8efc6711","","null","
                <div class=""stimulus-container"">
                    <img src=""images/semantic_sequence/kitchen_operations_semantic/kitchen_operations_semantic_7.png"" class=""exp-image"">
                    <div class=""question-area""></div> 
                </div>","null","","","","","","","","","","","",""
"","","","","","html-button-response","156","755611","0.0-156.0","FE313B9D50C84BAFBE18D1622E268C73","019cfc80-48fd-717e-a1fb-e6dffc6b2446","019cfc7b-6c7b-7b1b-afe7-acad8efc6711","","1191","
                <div class=""stimulus-container"">
                    <img src=""images/semantic_sequence/kitchen_operations_semantic/kitchen_operations_semantic_7.png"" class=""exp-image"">
                    <div class=""question-area"">
                        <p style=""font-size: 20px; font-weight: bold; margin: 0;"">Is there a person in this image?</p>
                    </div>
                </div>","0","main_experiment_trial","7","kitchen_operations_semantic","semantic_sequence","chronological","","","","","","",""
"","","","","","html-keyboard-response","157","760621","0.0-157.0","FE313B9D50C84BAFBE18D1622E268C73","019cfc80-48fd-717e-a1fb-e6dffc6b2446","019cfc7b-6c7b-7b1b-afe7-acad8efc6711","","null","
                <div class=""stimulus-container"">
                    <img src=""images/semantic_sequence/kitchen_operations_semantic/kitchen_operations_semantic_8.png"" class=""exp-image"">
                    <div class=""question-area""></div> 
                </div>","null","","","","","","","","","","","",""
"","","","","","html-button-response","158","761699","0.0-158.0","FE313B9D50C84BAFBE18D1622E268C73","019cfc80-48fd-717e-a1fb-e6dffc6b2446","019cfc7b-6c7b-7b1b-afe7-acad8efc6711","","1078","
                <div class=""stimulus-container"">
                    <img src=""images/semantic_sequence/kitchen_operations_semantic/kitchen_operations_semantic_8.png"" class=""exp-image"">
                    <div class=""question-area"">
                        <p style=""font-size: 20px; font-weight: bold; margin: 0;"">Is there a person in this image?</p>
                    </div>
                </div>","0","main_experiment_trial","8","kitchen_operations_semantic","semantic_sequence","chronological","","","","","","",""
"","","","","","html-keyboard-response","159","766705","0.0-159.0","FE313B9D50C84BAFBE18D1622E268C73","019cfc80-48fd-717e-a1fb-e6dffc6b2446","019cfc7b-6c7b-7b1b-afe7-acad8efc6711","","null","
                <div class=""stimulus-container"">
                    <img src=""images/semantic_sequence/kitchen_operations_semantic/kitchen_operations_semantic_9.png"" class=""exp-image"">
                    <div class=""question-area""></div> 
                </div>","null","","","","","","","","","","","",""
"","","","","","html-button-response","160","767549","0.0-160.0","FE313B9D50C84BAFBE18D1622E268C73","019cfc80-48fd-717e-a1fb-e6dffc6b2446","019cfc7b-6c7b-7b1b-afe7-acad8efc6711","","843","
                <div class=""stimulus-container"">
                    <img src=""images/semantic_sequence/kitchen_operations_semantic/kitchen_operations_semantic_9.png"" class=""exp-image"">
                    <div class=""question-area"">
                        <p style=""font-size: 20px; font-weight: bold; margin: 0;"">Is there a person in this image?</p>
                    </div>
                </div>","0","main_experiment_trial","9","kitchen_operations_semantic","semantic_sequence","chronological","","","","","","",""
"","","","","","html-keyboard-response","161","772560","0.0-161.0","FE313B9D50C84BAFBE18D1622E268C73","019cfc80-48fd-717e-a1fb-e6dffc6b2446","019cfc7b-6c7b-7b1b-afe7-acad8efc6711","","null","
                <div class=""stimulus-container"">
                    <img src=""images/semantic_sequence/kitchen_operations_semantic/kitchen_operations_semantic_ten.png"" class=""exp-image"">
                    <div class=""question-area""></div> 
                </div>","null","","","","","","","","","","","",""
"","","","","","html-button-response","162","773374","0.0-162.0","FE313B9D50C84BAFBE18D1622E268C73","019cfc80-48fd-717e-a1fb-e6dffc6b2446","019cfc7b-6c7b-7b1b-afe7-acad8efc6711","","813","
                <div class=""stimulus-container"">
                    <img src=""images/semantic_sequence/kitchen_operations_semantic/kitchen_operations_semantic_ten.png"" class=""exp-image"">
                    <div class=""question-area"">
                        <p style=""font-size: 20px; font-weight: bold; margin: 0;"">Is there a person in this image?</p>
                    </div>
                </div>","0","main_experiment_trial","ten","kitchen_operations_semantic","semantic_sequence","chronological","","","","","","",""
"","","","","","html-keyboard-response","163","778387","0.0-163.0","FE313B9D50C84BAFBE18D1622E268C73","019cfc80-48fd-717e-a1fb-e6dffc6b2446","019cfc7b-6c7b-7b1b-afe7-acad8efc6711","","null","<div style=""background-color: white; width: 100vw; height: 100vh;""></div>","null","","","","","","","","","","","",""
"","","","","","html-keyboard-response","164","783401","0.0-164.0","FE313B9D50C84BAFBE18D1622E268C73","019cfc80-48fd-717e-a1fb-e6dffc6b2446","019cfc7b-6c7b-7b1b-afe7-acad8efc6711","","null","
                <div class=""stimulus-container"">
                    <img src=""images/schematic_sequence/hotel_scheme/hotel_scheme_1.png"" class=""exp-image"">
                    <div class=""question-area""></div> 
                </div>","null","","","","","","","","","","","",""
"","","","","","html-button-response","165","785327","0.0-165.0","FE313B9D50C84BAFBE18D1622E268C73","019cfc80-48fd-717e-a1fb-e6dffc6b2446","019cfc7b-6c7b-7b1b-afe7-acad8efc6711","","1924","
                <div class=""stimulus-container"">
                    <img src=""images/schematic_sequence/hotel_scheme/hotel_scheme_1.png"" class=""exp-image"">
                    <div class=""question-area"">
                        <p style=""font-size: 20px; font-weight: bold; margin: 0;"">Is there a person in this image?</p>
                    </div>
                </div>","1","main_experiment_trial","1","hotel_scheme","schematic_sequence","chronological","","","","","","",""
"","","","","","html-keyboard-response","166","790337","0.0-166.0","FE313B9D50C84BAFBE18D1622E268C73","019cfc80-48fd-717e-a1fb-e6dffc6b2446","019cfc7b-6c7b-7b1b-afe7-acad8efc6711","","null","
                <div class=""stimulus-container"">
                    <img src=""images/schematic_sequence/hotel_scheme/hotel_scheme_2.png"" class=""exp-image"">
                    <div class=""question-area""></div> 
                </div>","null","","","","","","","","","","","",""
"","","","","","html-button-response","167","791256","0.0-167.0","FE313B9D50C84BAFBE18D1622E268C73","019cfc80-48fd-717e-a1fb-e6dffc6b2446","019cfc7b-6c7b-7b1b-afe7-acad8efc6711","","918","
                <div class=""stimulus-container"">
                    <img src=""images/schematic_sequence/hotel_scheme/hotel_scheme_2.png"" class=""exp-image"">
                    <div class=""question-area"">
                        <p style=""font-size: 20px; font-weight: bold; margin: 0;"">Is there a person in this image?</p>
                    </div>
                </div>","0","main_experiment_trial","2","hotel_scheme","schematic_sequence","chronological","","","","","","",""
"","","","","","html-keyboard-response","168","796269","0.0-168.0","FE313B9D50C84BAFBE18D1622E268C73","019cfc80-48fd-717e-a1fb-e6dffc6b2446","019cfc7b-6c7b-7b1b-afe7-acad8efc6711","","null","
                <div class=""stimulus-container"">
                    <img src=""images/schematic_sequence/hotel_scheme/hotel_scheme_3.png"" class=""exp-image"">
                    <div class=""question-area""></div> 
                </div>","null","","","","","","","","","","","",""
"","","","","","html-button-response","169","797297","0.0-169.0","FE313B9D50C84BAFBE18D1622E268C73","019cfc80-48fd-717e-a1fb-e6dffc6b2446","019cfc7b-6c7b-7b1b-afe7-acad8efc6711","","1027","
                <div class=""stimulus-container"">
                    <img src=""images/schematic_sequence/hotel_scheme/hotel_scheme_3.png"" class=""exp-image"">
                    <div class=""question-area"">
                        <p style=""font-size: 20px; font-weight: bold; margin: 0;"">Is there a person in this image?</p>
                    </div>
                </div>","0","main_experiment_trial","3","hotel_scheme","schematic_sequence","chronological","","","","","","",""
"","","","","","html-keyboard-response","170","802310","0.0-170.0","FE313B9D50C84BAFBE18D1622E268C73","019cfc80-48fd-717e-a1fb-e6dffc6b2446","019cfc7b-6c7b-7b1b-afe7-acad8efc6711","","null","
                <div class=""stimulus-container"">
                    <img src=""images/schematic_sequence/hotel_scheme/hotel_scheme_4.png"" class=""exp-image"">
                    <div class=""question-area""></div> 
                </div>","null","","","","","","","","","","","",""
"","","","","","html-button-response","171","803170","0.0-171.0","FE313B9D50C84BAFBE18D1622E268C73","019cfc80-48fd-717e-a1fb-e6dffc6b2446","019cfc7b-6c7b-7b1b-afe7-acad8efc6711","","859","
                <div class=""stimulus-container"">
                    <img src=""images/schematic_sequence/hotel_scheme/hotel_scheme_4.png"" class=""exp-image"">
                    <div class=""question-area"">
                        <p style=""font-size: 20px; font-weight: bold; margin: 0;"">Is there a person in this image?</p>
                    </div>
                </div>","1","main_experiment_trial","4","hotel_scheme","schematic_sequence","chronological","","","","","","",""
"","","","","","html-keyboard-response","172","808171","0.0-172.0","FE313B9D50C84BAFBE18D1622E268C73","019cfc80-48fd-717e-a1fb-e6dffc6b2446","019cfc7b-6c7b-7b1b-afe7-acad8efc6711","","null","
                <div class=""stimulus-container"">
                    <img src=""images/schematic_sequence/hotel_scheme/hotel_scheme_5.png"" class=""exp-image"">
                    <div class=""question-area""></div> 
                </div>","null","","","","","","","","","","","",""
"","","","","","html-button-response","173","809162","0.0-173.0","FE313B9D50C84BAFBE18D1622E268C73","019cfc80-48fd-717e-a1fb-e6dffc6b2446","019cfc7b-6c7b-7b1b-afe7-acad8efc6711","","990","
                <div class=""stimulus-container"">
                    <img src=""images/schematic_sequence/hotel_scheme/hotel_scheme_5.png"" class=""exp-image"">
                    <div class=""question-area"">
                        <p style=""font-size: 20px; font-weight: bold; margin: 0;"">Is there a person in this image?</p>
                    </div>
                </div>","0","main_experiment_trial","5","hotel_scheme","schematic_sequence","chronological","","","","","","",""
"","","","","","html-keyboard-response","174","814169","0.0-174.0","FE313B9D50C84BAFBE18D1622E268C73","019cfc80-48fd-717e-a1fb-e6dffc6b2446","019cfc7b-6c7b-7b1b-afe7-acad8efc6711","","null","
                <div class=""stimulus-container"">
                    <img src=""images/schematic_sequence/hotel_scheme/hotel_scheme_6.png"" class=""exp-image"">
                    <div class=""question-area""></div> 
                </div>","null","","","","","","","","","","","",""
"","","","","","html-button-response","175","815875","0.0-175.0","FE313B9D50C84BAFBE18D1622E268C73","019cfc80-48fd-717e-a1fb-e6dffc6b2446","019cfc7b-6c7b-7b1b-afe7-acad8efc6711","","1705","
                <div class=""stimulus-container"">
                    <img src=""images/schematic_sequence/hotel_scheme/hotel_scheme_6.png"" class=""exp-image"">
                    <div class=""question-area"">
                        <p style=""font-size: 20px; font-weight: bold; margin: 0;"">Is there a person in this image?</p>
                    </div>
                </div>","0","main_experiment_trial","6","hotel_scheme","schematic_sequence","chronological","","","","","","",""
"","","","","","html-keyboard-response","176","820884","0.0-176.0","FE313B9D50C84BAFBE18D1622E268C73","019cfc80-48fd-717e-a1fb-e6dffc6b2446","019cfc7b-6c7b-7b1b-afe7-acad8efc6711","","null","
                <div class=""stimulus-container"">
                    <img src=""images/schematic_sequence/hotel_scheme/hotel_scheme_7.png"" class=""exp-image"">
                    <div class=""question-area""></div> 
                </div>","null","","","","","","","","","","","",""
"","","","","","html-button-response","177","822059","0.0-177.0","FE313B9D50C84BAFBE18D1622E268C73","019cfc80-48fd-717e-a1fb-e6dffc6b2446","019cfc7b-6c7b-7b1b-afe7-acad8efc6711","","1175","
                <div class=""stimulus-container"">
                    <img src=""images/schematic_sequence/hotel_scheme/hotel_scheme_7.png"" class=""exp-image"">
                    <div class=""question-area"">
                        <p style=""font-size: 20px; font-weight: bold; margin: 0;"">Is there a person in this image?</p>
                    </div>
                </div>","0","main_experiment_trial","7","hotel_scheme","schematic_sequence","chronological","","","","","","",""
"","","","","","html-keyboard-response","178","827065","0.0-178.0","FE313B9D50C84BAFBE18D1622E268C73","019cfc80-48fd-717e-a1fb-e6dffc6b2446","019cfc7b-6c7b-7b1b-afe7-acad8efc6711","","null","
                <div class=""stimulus-container"">
