"success","timeout","failed_images","failed_audio","failed_video","trial_type","trial_index","time_elapsed","internal_node_id","subject_id","study_id","session_id","view_history","rt","stimulus","response","task","image_index","folder","sequence_type","presentation_order","valuable_image_index","reward_type","chosen_image_index","target_X","correct_choice"
"true","false","[]","[]","[]","preload","0","27214","0.0-0.0","A467D381F0E04680A94280A67BCAA70E","019cf9a2-14d9-70e6-8ea5-db867a20bd2d","019cf99d-e445-78ae-88d0-91fe39b758eb","","","","","","","","","","","","","",""
"","","","","","instructions","1","31372","0.0-1.0","A467D381F0E04680A94280A67BCAA70E","019cf9a2-14d9-70e6-8ea5-db867a20bd2d","019cf99d-e445-78ae-88d0-91fe39b758eb","[{""page_index"":0,""viewing_time"":4156}]","4157","","","","","","","","","","","",""
"","","","","","instructions","2","34088","0.0-2.0","A467D381F0E04680A94280A67BCAA70E","019cf9a2-14d9-70e6-8ea5-db867a20bd2d","019cf99d-e445-78ae-88d0-91fe39b758eb","[{""page_index"":0,""viewing_time"":2716}]","2716","","","","","","","","","","","",""
"true","","","","","fullscreen","3","36257","0.0-3.0","A467D381F0E04680A94280A67BCAA70E","019cf9a2-14d9-70e6-8ea5-db867a20bd2d","019cf99d-e445-78ae-88d0-91fe39b758eb","","1150","","","","","","","","","","","",""
"","","","","","instructions","4","44690","0.0-4.0","A467D381F0E04680A94280A67BCAA70E","019cf9a2-14d9-70e6-8ea5-db867a20bd2d","019cf99d-e445-78ae-88d0-91fe39b758eb","[{""page_index"":0,""viewing_time"":8432}]","8432","","","","","","","","","","","",""
"","","","","","instructions","5","49073","0.0-5.0","A467D381F0E04680A94280A67BCAA70E","019cf9a2-14d9-70e6-8ea5-db867a20bd2d","019cf99d-e445-78ae-88d0-91fe39b758eb","[{""page_index"":0,""viewing_time"":4382}]","4382","","","","","","","","","","","",""
"","","","","","html-keyboard-response","6","53086","0.0-6.0","A467D381F0E04680A94280A67BCAA70E","019cf9a2-14d9-70e6-8ea5-db867a20bd2d","019cf99d-e445-78ae-88d0-91fe39b758eb","","null","
                <div class=""stimulus-container"">
                    <img src=""images/instructions/movie_1.png"" class=""exp-image"">
                    <div class=""question-area""></div> 
                </div>","null","","","","","","","","","",""
"","","","","","html-button-response","7","55606","0.0-7.0","A467D381F0E04680A94280A67BCAA70E","019cf9a2-14d9-70e6-8ea5-db867a20bd2d","019cf99d-e445-78ae-88d0-91fe39b758eb","","2518","
                <div class=""stimulus-container"">
                    <img src=""images/instructions/movie_1.png"" class=""exp-image"">
                    <div class=""question-area"">
                        <p style=""font-size: 20px; font-weight: bold; margin: 0;"">Was there a person in this image?</p>
                    </div>
                </div>","0","example_question","1","","","","","","","",""
"","","","","","html-keyboard-response","8","59615","0.0-8.0","A467D381F0E04680A94280A67BCAA70E","019cf9a2-14d9-70e6-8ea5-db867a20bd2d","019cf99d-e445-78ae-88d0-91fe39b758eb","","null","
                <div class=""stimulus-container"">
                    <img src=""images/instructions/movie_2.png"" class=""exp-image"">
                    <div class=""question-area""></div> 
                </div>","null","","","","","","","","","",""
"","","","","","html-button-response","9","60953","0.0-9.0","A467D381F0E04680A94280A67BCAA70E","019cf9a2-14d9-70e6-8ea5-db867a20bd2d","019cf99d-e445-78ae-88d0-91fe39b758eb","","1337","
                <div class=""stimulus-container"">
                    <img src=""images/instructions/movie_2.png"" class=""exp-image"">
                    <div class=""question-area"">
                        <p style=""font-size: 20px; font-weight: bold; margin: 0;"">Was there a person in this image?</p>
                    </div>
                </div>","1","example_question","2","","","","","","","",""
"","","","","","html-keyboard-response","10","64963","0.0-10.0","A467D381F0E04680A94280A67BCAA70E","019cf9a2-14d9-70e6-8ea5-db867a20bd2d","019cf99d-e445-78ae-88d0-91fe39b758eb","","null","
                <div class=""stimulus-container"">
                    <img src=""images/instructions/movie_3.png"" class=""exp-image"">
                    <div class=""question-area""></div> 
                </div>","null","","","","","","","","","",""
"","","","","","html-button-response","11","67968","0.0-11.0","A467D381F0E04680A94280A67BCAA70E","019cf9a2-14d9-70e6-8ea5-db867a20bd2d","019cf99d-e445-78ae-88d0-91fe39b758eb","","null","
                <div class=""stimulus-container"">
                    <img src=""images/instructions/movie_3.png"" class=""exp-image"">
                    <div class=""question-area"">
                        <p style=""font-size: 20px; font-weight: bold; margin: 0;"">Was there a person in this image?</p>
                    </div>
                </div>","null","example_question","3","","","","","","","",""
"","","","","","html-keyboard-response","12","71972","0.0-12.0","A467D381F0E04680A94280A67BCAA70E","019cf9a2-14d9-70e6-8ea5-db867a20bd2d","019cf99d-e445-78ae-88d0-91fe39b758eb","","null","
                <div class=""stimulus-container"">
                    <img src=""images/instructions/movie_4.png"" class=""exp-image"">
                    <div class=""question-area""></div> 
                </div>","null","","","","","","","","","",""
"","","","","","html-button-response","13","73674","0.0-13.0","A467D381F0E04680A94280A67BCAA70E","019cf9a2-14d9-70e6-8ea5-db867a20bd2d","019cf99d-e445-78ae-88d0-91fe39b758eb","","1700","
                <div class=""stimulus-container"">
                    <img src=""images/instructions/movie_4.png"" class=""exp-image"">
                    <div class=""question-area"">
                        <p style=""font-size: 20px; font-weight: bold; margin: 0;"">Was there a person in this image?</p>
                    </div>
                </div>","0","example_question","4","","","","","","","",""
"","","","","","instructions","14","76507","0.0-14.0","A467D381F0E04680A94280A67BCAA70E","019cf9a2-14d9-70e6-8ea5-db867a20bd2d","019cf99d-e445-78ae-88d0-91fe39b758eb","[{""page_index"":0,""viewing_time"":2832}]","2832","","","","","","","","","","","",""
"","","","","","instructions","15","79358","0.0-15.0","A467D381F0E04680A94280A67BCAA70E","019cf9a2-14d9-70e6-8ea5-db867a20bd2d","019cf99d-e445-78ae-88d0-91fe39b758eb","[{""page_index"":0,""viewing_time"":2851}]","2851","","","","","","","","","","","",""
"","","","","","html-keyboard-response","16","84362","0.0-16.0","A467D381F0E04680A94280A67BCAA70E","019cf9a2-14d9-70e6-8ea5-db867a20bd2d","019cf99d-e445-78ae-88d0-91fe39b758eb","","null","<div style=""background-color: white; width: 100vw; height: 100vh;""></div>","null","","","","","","","","","",""
"","","","","","html-keyboard-response","17","85373","0.0-17.0","A467D381F0E04680A94280A67BCAA70E","019cf9a2-14d9-70e6-8ea5-db867a20bd2d","019cf99d-e445-78ae-88d0-91fe39b758eb","","null","
                <div class=""stimulus-container"">
                    <img src=""images/causal_sequence/museum_causal/museum_causal_8.png"" class=""exp-image"">
                    <div class=""question-area""></div> 
                </div>","null","","","","","","","","","",""
"","","","","","html-button-response","18","86790","0.0-18.0","A467D381F0E04680A94280A67BCAA70E","019cf9a2-14d9-70e6-8ea5-db867a20bd2d","019cf99d-e445-78ae-88d0-91fe39b758eb","","1416","
                <div class=""stimulus-container"">
                    <img src=""images/causal_sequence/museum_causal/museum_causal_8.png"" class=""exp-image"">
                    <div class=""question-area"">
                        <p style=""font-size: 20px; font-weight: bold; margin: 0;"">Is there a person in this image?</p>
                    </div>
                </div>","0","main_experiment_trial","8","museum_causal","causal_sequence","randomized","","","","",""
"","","","","","html-keyboard-response","19","87800","0.0-19.0","A467D381F0E04680A94280A67BCAA70E","019cf9a2-14d9-70e6-8ea5-db867a20bd2d","019cf99d-e445-78ae-88d0-91fe39b758eb","","null","
                <div class=""stimulus-container"">
                    <img src=""images/causal_sequence/museum_causal/museum_causal_5.png"" class=""exp-image"">
                    <div class=""question-area""></div> 
                </div>","null","","","","","","","","","",""
"","","","","","html-button-response","20","88709","0.0-20.0","A467D381F0E04680A94280A67BCAA70E","019cf9a2-14d9-70e6-8ea5-db867a20bd2d","019cf99d-e445-78ae-88d0-91fe39b758eb","","907","
                <div class=""stimulus-container"">
                    <img src=""images/causal_sequence/museum_causal/museum_causal_5.png"" class=""exp-image"">
                    <div class=""question-area"">
                        <p style=""font-size: 20px; font-weight: bold; margin: 0;"">Is there a person in this image?</p>
                    </div>
                </div>","0","main_experiment_trial","5","museum_causal","causal_sequence","randomized","","","","",""
"","","","","","html-keyboard-response","21","89713","0.0-21.0","A467D381F0E04680A94280A67BCAA70E","019cf9a2-14d9-70e6-8ea5-db867a20bd2d","019cf99d-e445-78ae-88d0-91fe39b758eb","","null","
                <div class=""stimulus-container"">
                    <img src=""images/causal_sequence/museum_causal/museum_causal_9.png"" class=""exp-image"">
                    <div class=""question-area""></div> 
                </div>","null","","","","","","","","","",""
"","","","","","html-button-response","22","90238","0.0-22.0","A467D381F0E04680A94280A67BCAA70E","019cf9a2-14d9-70e6-8ea5-db867a20bd2d","019cf99d-e445-78ae-88d0-91fe39b758eb","","524","
                <div class=""stimulus-container"">
                    <img src=""images/causal_sequence/museum_causal/museum_causal_9.png"" class=""exp-image"">
                    <div class=""question-area"">
                        <p style=""font-size: 20px; font-weight: bold; margin: 0;"">Is there a person in this image?</p>
                    </div>
                </div>","1","main_experiment_trial","9","museum_causal","causal_sequence","randomized","","","","",""
"","","","","","html-keyboard-response","23","91253","0.0-23.0","A467D381F0E04680A94280A67BCAA70E","019cf9a2-14d9-70e6-8ea5-db867a20bd2d","019cf99d-e445-78ae-88d0-91fe39b758eb","","null","
                <div class=""stimulus-container"">
                    <img src=""images/causal_sequence/museum_causal/museum_causal_4.png"" class=""exp-image"">
                    <div class=""question-area""></div> 
                </div>","null","","","","","","","","","",""
"","","","","","html-button-response","24","91709","0.0-24.0","A467D381F0E04680A94280A67BCAA70E","019cf9a2-14d9-70e6-8ea5-db867a20bd2d","019cf99d-e445-78ae-88d0-91fe39b758eb","","455","
                <div class=""stimulus-container"">
                    <img src=""images/causal_sequence/museum_causal/museum_causal_4.png"" class=""exp-image"">
                    <div class=""question-area"">
                        <p style=""font-size: 20px; font-weight: bold; margin: 0;"">Is there a person in this image?</p>
                    </div>
                </div>","1","main_experiment_trial","4","museum_causal","causal_sequence","randomized","","","","",""
"","","","","","html-keyboard-response","25","92718","0.0-25.0","A467D381F0E04680A94280A67BCAA70E","019cf9a2-14d9-70e6-8ea5-db867a20bd2d","019cf99d-e445-78ae-88d0-91fe39b758eb","","null","
                <div class=""stimulus-container"">
                    <img src=""images/causal_sequence/museum_causal/museum_causal_6.png"" class=""exp-image"">
                    <div class=""question-area""></div> 
                </div>","null","","","","","","","","","",""
"","","","","","html-button-response","26","93208","0.0-26.0","A467D381F0E04680A94280A67BCAA70E","019cf9a2-14d9-70e6-8ea5-db867a20bd2d","019cf99d-e445-78ae-88d0-91fe39b758eb","","489","
                <div class=""stimulus-container"">
                    <img src=""images/causal_sequence/museum_causal/museum_causal_6.png"" class=""exp-image"">
                    <div class=""question-area"">
                        <p style=""font-size: 20px; font-weight: bold; margin: 0;"">Is there a person in this image?</p>
                    </div>
                </div>","0","main_experiment_trial","6","museum_causal","causal_sequence","randomized","","","","",""
"","","","","","html-keyboard-response","27","94212","0.0-27.0","A467D381F0E04680A94280A67BCAA70E","019cf9a2-14d9-70e6-8ea5-db867a20bd2d","019cf99d-e445-78ae-88d0-91fe39b758eb","","null","
                <div class=""stimulus-container"">
                    <img src=""images/causal_sequence/museum_causal/museum_causal_1.png"" class=""exp-image"">
                    <div class=""question-area""></div> 
                </div>","null","","","","","","","","","",""
"","","","","","html-button-response","28","94824","0.0-28.0","A467D381F0E04680A94280A67BCAA70E","019cf9a2-14d9-70e6-8ea5-db867a20bd2d","019cf99d-e445-78ae-88d0-91fe39b758eb","","610","
                <div class=""stimulus-container"">
                    <img src=""images/causal_sequence/museum_causal/museum_causal_1.png"" class=""exp-image"">
                    <div class=""question-area"">
                        <p style=""font-size: 20px; font-weight: bold; margin: 0;"">Is there a person in this image?</p>
                    </div>
                </div>","0","main_experiment_trial","1","museum_causal","causal_sequence","randomized","","","","",""
"","","","","","html-keyboard-response","29","95831","0.0-29.0","A467D381F0E04680A94280A67BCAA70E","019cf9a2-14d9-70e6-8ea5-db867a20bd2d","019cf99d-e445-78ae-88d0-91fe39b758eb","","null","
                <div class=""stimulus-container"">
                    <img src=""images/causal_sequence/museum_causal/museum_causal_3.png"" class=""exp-image"">
                    <div class=""question-area""></div> 
                </div>","null","","","","","","","","","",""
"","","","","","html-button-response","30","98476","0.0-30.0","A467D381F0E04680A94280A67BCAA70E","019cf9a2-14d9-70e6-8ea5-db867a20bd2d","019cf99d-e445-78ae-88d0-91fe39b758eb","","2644","
                <div class=""stimulus-container"">
                    <img src=""images/causal_sequence/museum_causal/museum_causal_3.png"" class=""exp-image"">
                    <div class=""question-area"">
                        <p style=""font-size: 20px; font-weight: bold; margin: 0;"">Is there a person in this image?</p>
                    </div>
                </div>","0","main_experiment_trial","3","museum_causal","causal_sequence","randomized","","","","",""
"","","","","","html-keyboard-response","31","99490","0.0-31.0","A467D381F0E04680A94280A67BCAA70E","019cf9a2-14d9-70e6-8ea5-db867a20bd2d","019cf99d-e445-78ae-88d0-91fe39b758eb","","null","
                <div class=""stimulus-container"">
                    <img src=""images/causal_sequence/museum_causal/museum_causal_2.png"" class=""exp-image"">
                    <div class=""question-area""></div> 
                </div>","null","","","","","","","","","",""
"","","","","","html-button-response","32","102503","0.0-32.0","A467D381F0E04680A94280A67BCAA70E","019cf9a2-14d9-70e6-8ea5-db867a20bd2d","019cf99d-e445-78ae-88d0-91fe39b758eb","","null","
                <div class=""stimulus-container"">
                    <img src=""images/causal_sequence/museum_causal/museum_causal_2.png"" class=""exp-image"">
                    <div class=""question-area"">
                        <p style=""font-size: 20px; font-weight: bold; margin: 0;"">Is there a person in this image?</p>
                    </div>
                </div>","null","main_experiment_trial","2","museum_causal","causal_sequence","randomized","","","","",""
"","","","","","html-keyboard-response","33","103515","0.0-33.0","A467D381F0E04680A94280A67BCAA70E","019cf9a2-14d9-70e6-8ea5-db867a20bd2d","019cf99d-e445-78ae-88d0-91fe39b758eb","","null","
                <div class=""stimulus-container"">
                    <img src=""images/causal_sequence/museum_causal/museum_causal_7.png"" class=""exp-image"">
                    <div class=""question-area""></div> 
                </div>","null","","","","","","","","","",""
"","","","","","html-button-response","34","104324","0.0-34.0","A467D381F0E04680A94280A67BCAA70E","019cf9a2-14d9-70e6-8ea5-db867a20bd2d","019cf99d-e445-78ae-88d0-91fe39b758eb","","807","
                <div class=""stimulus-container"">
                    <img src=""images/causal_sequence/museum_causal/museum_causal_7.png"" class=""exp-image"">
                    <div class=""question-area"">
                        <p style=""font-size: 20px; font-weight: bold; margin: 0;"">Is there a person in this image?</p>
                    </div>
                </div>","1","main_experiment_trial","7","museum_causal","causal_sequence","randomized","","","","",""
"","","","","","html-keyboard-response","35","105337","0.0-35.0","A467D381F0E04680A94280A67BCAA70E","019cf9a2-14d9-70e6-8ea5-db867a20bd2d","019cf99d-e445-78ae-88d0-91fe39b758eb","","null","
                <div class=""stimulus-container"">
                    <img src=""images/causal_sequence/museum_causal/museum_causal_ten.png"" class=""exp-image"">
                    <div class=""question-area""></div> 
                </div>","null","","","","","","","","","",""
"","","","","","html-button-response","36","105828","0.0-36.0","A467D381F0E04680A94280A67BCAA70E","019cf9a2-14d9-70e6-8ea5-db867a20bd2d","019cf99d-e445-78ae-88d0-91fe39b758eb","","490","
                <div class=""stimulus-container"">
                    <img src=""images/causal_sequence/museum_causal/museum_causal_ten.png"" class=""exp-image"">
                    <div class=""question-area"">
                        <p style=""font-size: 20px; font-weight: bold; margin: 0;"">Is there a person in this image?</p>
                    </div>
                </div>","0","main_experiment_trial","ten","museum_causal","causal_sequence","randomized","","","","",""
"","","","","","html-keyboard-response","37","110833","0.0-37.0","A467D381F0E04680A94280A67BCAA70E","019cf9a2-14d9-70e6-8ea5-db867a20bd2d","019cf99d-e445-78ae-88d0-91fe39b758eb","","null","<div style=""background-color: white; width: 100vw; height: 100vh;""></div>","null","","","","","","","","","",""
"","","","","","html-keyboard-response","38","111847","0.0-38.0","A467D381F0E04680A94280A67BCAA70E","019cf9a2-14d9-70e6-8ea5-db867a20bd2d","019cf99d-e445-78ae-88d0-91fe39b758eb","","null","
                <div class=""stimulus-container"">
                    <img src=""images/semantic_sequence/kitchen_operations_semantic/kitchen_operations_semantic_7.png"" class=""exp-image"">
                    <div class=""question-area""></div> 
                </div>","null","","","","","","","","","",""
"","","","","","html-button-response","39","112659","0.0-39.0","A467D381F0E04680A94280A67BCAA70E","019cf9a2-14d9-70e6-8ea5-db867a20bd2d","019cf99d-e445-78ae-88d0-91fe39b758eb","","811","
                <div class=""stimulus-container"">
                    <img src=""images/semantic_sequence/kitchen_operations_semantic/kitchen_operations_semantic_7.png"" class=""exp-image"">
                    <div class=""question-area"">
                        <p style=""font-size: 20px; font-weight: bold; margin: 0;"">Is there a person in this image?</p>
                    </div>
                </div>","0","main_experiment_trial","7","kitchen_operations_semantic","semantic_sequence","randomized","","","","",""
"","","","","","html-keyboard-response","40","113666","0.0-40.0","A467D381F0E04680A94280A67BCAA70E","019cf9a2-14d9-70e6-8ea5-db867a20bd2d","019cf99d-e445-78ae-88d0-91fe39b758eb","","null","
                <div class=""stimulus-container"">
                    <img src=""images/semantic_sequence/kitchen_operations_semantic/kitchen_operations_semantic_8.png"" class=""exp-image"">
                    <div class=""question-area""></div> 
                </div>","null","","","","","","","","","",""
"","","","","","html-button-response","41","114271","0.0-41.0","A467D381F0E04680A94280A67BCAA70E","019cf9a2-14d9-70e6-8ea5-db867a20bd2d","019cf99d-e445-78ae-88d0-91fe39b758eb","","604","
                <div class=""stimulus-container"">
                    <img src=""images/semantic_sequence/kitchen_operations_semantic/kitchen_operations_semantic_8.png"" class=""exp-image"">
                    <div class=""question-area"">
                        <p style=""font-size: 20px; font-weight: bold; margin: 0;"">Is there a person in this image?</p>
                    </div>
                </div>","0","main_experiment_trial","8","kitchen_operations_semantic","semantic_sequence","randomized","","","","",""
"","","","","","html-keyboard-response","42","115284","0.0-42.0","A467D381F0E04680A94280A67BCAA70E","019cf9a2-14d9-70e6-8ea5-db867a20bd2d","019cf99d-e445-78ae-88d0-91fe39b758eb","","null","
                <div class=""stimulus-container"">
                    <img src=""images/semantic_sequence/kitchen_operations_semantic/kitchen_operations_semantic_1.png"" class=""exp-image"">
                    <div class=""question-area""></div> 
                </div>","null","","","","","","","","","",""
"","","","","","html-button-response","43","115957","0.0-43.0","A467D381F0E04680A94280A67BCAA70E","019cf9a2-14d9-70e6-8ea5-db867a20bd2d","019cf99d-e445-78ae-88d0-91fe39b758eb","","672","
                <div class=""stimulus-container"">
                    <img src=""images/semantic_sequence/kitchen_operations_semantic/kitchen_operations_semantic_1.png"" class=""exp-image"">
                    <div class=""question-area"">
                        <p style=""font-size: 20px; font-weight: bold; margin: 0;"">Is there a person in this image?</p>
                    </div>
                </div>","0","main_experiment_trial","1","kitchen_operations_semantic","semantic_sequence","randomized","","","","",""
"","","","","","html-keyboard-response","44","116962","0.0-44.0","A467D381F0E04680A94280A67BCAA70E","019cf9a2-14d9-70e6-8ea5-db867a20bd2d","019cf99d-e445-78ae-88d0-91fe39b758eb","","null","
                <div class=""stimulus-container"">
                    <img src=""images/semantic_sequence/kitchen_operations_semantic/kitchen_operations_semantic_5.png"" class=""exp-image"">
                    <div class=""question-area""></div> 
                </div>","null","","","","","","","","","",""
"","","","","","html-button-response","45","117826","0.0-45.0","A467D381F0E04680A94280A67BCAA70E","019cf9a2-14d9-70e6-8ea5-db867a20bd2d","019cf99d-e445-78ae-88d0-91fe39b758eb","","863","
                <div class=""stimulus-container"">
                    <img src=""images/semantic_sequence/kitchen_operations_semantic/kitchen_operations_semantic_5.png"" class=""exp-image"">
                    <div class=""question-area"">
                        <p style=""font-size: 20px; font-weight: bold; margin: 0;"">Is there a person in this image?</p>
                    </div>
                </div>","0","main_experiment_trial","5","kitchen_operations_semantic","semantic_sequence","randomized","","","","",""
"","","","","","html-keyboard-response","46","118836","0.0-46.0","A467D381F0E04680A94280A67BCAA70E","019cf9a2-14d9-70e6-8ea5-db867a20bd2d","019cf99d-e445-78ae-88d0-91fe39b758eb","","null","
                <div class=""stimulus-container"">
                    <img src=""images/semantic_sequence/kitchen_operations_semantic/kitchen_operations_semantic_9.png"" class=""exp-image"">
                    <div class=""question-area""></div> 
                </div>","null","","","","","","","","","",""
"","","","","","html-button-response","47","119690","0.0-47.0","A467D381F0E04680A94280A67BCAA70E","019cf9a2-14d9-70e6-8ea5-db867a20bd2d","019cf99d-e445-78ae-88d0-91fe39b758eb","","853","
                <div class=""stimulus-container"">
                    <img src=""images/semantic_sequence/kitchen_operations_semantic/kitchen_operations_semantic_9.png"" class=""exp-image"">
                    <div class=""question-area"">
                        <p style=""font-size: 20px; font-weight: bold; margin: 0;"">Is there a person in this image?</p>
                    </div>
                </div>","0","main_experiment_trial","9","kitchen_operations_semantic","semantic_sequence","randomized","","","","",""
"","","","","","html-keyboard-response","48","120698","0.0-48.0","A467D381F0E04680A94280A67BCAA70E","019cf9a2-14d9-70e6-8ea5-db867a20bd2d","019cf99d-e445-78ae-88d0-91fe39b758eb","","null","
                <div class=""stimulus-container"">
                    <img src=""images/semantic_sequence/kitchen_operations_semantic/kitchen_operations_semantic_ten.png"" class=""exp-image"">
                    <div class=""question-area""></div> 
                </div>","null","","","","","","","","","",""
"","","","","","html-button-response","49","121137","0.0-49.0","A467D381F0E04680A94280A67BCAA70E","019cf9a2-14d9-70e6-8ea5-db867a20bd2d","019cf99d-e445-78ae-88d0-91fe39b758eb","","439","
                <div class=""stimulus-container"">
                    <img src=""images/semantic_sequence/kitchen_operations_semantic/kitchen_operations_semantic_ten.png"" class=""exp-image"">
                    <div class=""question-area"">
                        <p style=""font-size: 20px; font-weight: bold; margin: 0;"">Is there a person in this image?</p>
                    </div>
                </div>","0","main_experiment_trial","ten","kitchen_operations_semantic","semantic_sequence","randomized","","","","",""
"","","","","","html-keyboard-response","50","122150","0.0-50.0","A467D381F0E04680A94280A67BCAA70E","019cf9a2-14d9-70e6-8ea5-db867a20bd2d","019cf99d-e445-78ae-88d0-91fe39b758eb","","null","
                <div class=""stimulus-container"">
                    <img src=""images/semantic_sequence/kitchen_operations_semantic/kitchen_operations_semantic_2.png"" class=""exp-image"">
                    <div class=""question-area""></div> 
                </div>","null","","","","","","","","","",""
"","","","","","html-button-response","51","122508","0.0-51.0","A467D381F0E04680A94280A67BCAA70E","019cf9a2-14d9-70e6-8ea5-db867a20bd2d","019cf99d-e445-78ae-88d0-91fe39b758eb","","357","
                <div class=""stimulus-container"">
                    <img src=""images/semantic_sequence/kitchen_operations_semantic/kitchen_operations_semantic_2.png"" class=""exp-image"">
                    <div class=""question-area"">
                        <p style=""font-size: 20px; font-weight: bold; margin: 0;"">Is there a person in this image?</p>
                    </div>
                </div>","0","main_experiment_trial","2","kitchen_operations_semantic","semantic_sequence","randomized","","","","",""
"","","","","","html-keyboard-response","52","123523","0.0-52.0","A467D381F0E04680A94280A67BCAA70E","019cf9a2-14d9-70e6-8ea5-db867a20bd2d","019cf99d-e445-78ae-88d0-91fe39b758eb","","null","
                <div class=""stimulus-container"">
                    <img src=""images/semantic_sequence/kitchen_operations_semantic/kitchen_operations_semantic_3.png"" class=""exp-image"">
                    <div class=""question-area""></div> 
                </div>","null","","","","","","","","","",""
"","","","","","html-button-response","53","123921","0.0-53.0","A467D381F0E04680A94280A67BCAA70E","019cf9a2-14d9-70e6-8ea5-db867a20bd2d","019cf99d-e445-78ae-88d0-91fe39b758eb","","398","
                <div class=""stimulus-container"">
                    <img src=""images/semantic_sequence/kitchen_operations_semantic/kitchen_operations_semantic_3.png"" class=""exp-image"">
                    <div class=""question-area"">
                        <p style=""font-size: 20px; font-weight: bold; margin: 0;"">Is there a person in this image?</p>
                    </div>
                </div>","0","main_experiment_trial","3","kitchen_operations_semantic","semantic_sequence","randomized","","","","",""
"","","","","","html-keyboard-response","54","124935","0.0-54.0","A467D381F0E04680A94280A67BCAA70E","019cf9a2-14d9-70e6-8ea5-db867a20bd2d","019cf99d-e445-78ae-88d0-91fe39b758eb","","null","
                <div class=""stimulus-container"">
                    <img src=""images/semantic_sequence/kitchen_operations_semantic/kitchen_operations_semantic_6.png"" class=""exp-image"">
                    <div class=""question-area""></div> 
                </div>","null","","","","","","","","","",""
"","","","","","html-button-response","55","125340","0.0-55.0","A467D381F0E04680A94280A67BCAA70E","019cf9a2-14d9-70e6-8ea5-db867a20bd2d","019cf99d-e445-78ae-88d0-91fe39b758eb","","404","
                <div class=""stimulus-container"">
                    <img src=""images/semantic_sequence/kitchen_operations_semantic/kitchen_operations_semantic_6.png"" class=""exp-image"">
                    <div class=""question-area"">
                        <p style=""font-size: 20px; font-weight: bold; margin: 0;"">Is there a person in this image?</p>
                    </div>
                </div>","0","main_experiment_trial","6","kitchen_operations_semantic","semantic_sequence","randomized","","","","",""
"","","","","","html-keyboard-response","56","126355","0.0-56.0","A467D381F0E04680A94280A67BCAA70E","019cf9a2-14d9-70e6-8ea5-db867a20bd2d","019cf99d-e445-78ae-88d0-91fe39b758eb","","null","
                <div class=""stimulus-container"">
                    <img src=""images/semantic_sequence/kitchen_operations_semantic/kitchen_operations_semantic_4.png"" class=""exp-image"">
                    <div class=""question-area""></div> 
                </div>","null","","","","","","","","","",""
"","","","","","html-button-response","57","126726","0.0-57.0","A467D381F0E04680A94280A67BCAA70E","019cf9a2-14d9-70e6-8ea5-db867a20bd2d","019cf99d-e445-78ae-88d0-91fe39b758eb","","370","
                <div class=""stimulus-container"">
                    <img src=""images/semantic_sequence/kitchen_operations_semantic/kitchen_operations_semantic_4.png"" class=""exp-image"">
                    <div class=""question-area"">
                        <p style=""font-size: 20px; font-weight: bold; margin: 0;"">Is there a person in this image?</p>
                    </div>
                </div>","0","main_experiment_trial","4","kitchen_operations_semantic","semantic_sequence","randomized","","","","",""
"","","","","","html-keyboard-response","58","131740","0.0-58.0","A467D381F0E04680A94280A67BCAA70E","019cf9a2-14d9-70e6-8ea5-db867a20bd2d","019cf99d-e445-78ae-88d0-91fe39b758eb","","null","<div style=""background-color: white; width: 100vw; height: 100vh;""></div>","null","","","","","","","","","",""
"","","","","","html-keyboard-response","59","132741","0.0-59.0","A467D381F0E04680A94280A67BCAA70E","019cf9a2-14d9-70e6-8ea5-db867a20bd2d","019cf99d-e445-78ae-88d0-91fe39b758eb","","null","
                <div class=""stimulus-container"">
                    <img src=""images/semantic_sequence/creative_activities_semantic/creative_activities_semantic_4.png"" class=""exp-image"">
                    <div class=""question-area""></div> 
                </div>","null","","","","","","","","","",""
"","","","","","html-button-response","60","133225","0.0-60.0","A467D381F0E04680A94280A67BCAA70E","019cf9a2-14d9-70e6-8ea5-db867a20bd2d","019cf99d-e445-78ae-88d0-91fe39b758eb","","483","
                <div class=""stimulus-container"">
                    <img src=""images/semantic_sequence/creative_activities_semantic/creative_activities_semantic_4.png"" class=""exp-image"">
                    <div class=""question-area"">
                        <p style=""font-size: 20px; font-weight: bold; margin: 0;"">Is there a person in this image?</p>
                    </div>
                </div>","0","main_experiment_trial","4","creative_activities_semantic","semantic_sequence","randomized","","","","",""
"","","","","","html-keyboard-response","61","134232","0.0-61.0","A467D381F0E04680A94280A67BCAA70E","019cf9a2-14d9-70e6-8ea5-db867a20bd2d","019cf99d-e445-78ae-88d0-91fe39b758eb","","null","
                <div class=""stimulus-container"">
                    <img src=""images/semantic_sequence/creative_activities_semantic/creative_activities_semantic_9.png"" class=""exp-image"">
                    <div class=""question-area""></div> 
                </div>","null","","","","","","","","","",""
"","","","","","html-button-response","62","134623","0.0-62.0","A467D381F0E04680A94280A67BCAA70E","019cf9a2-14d9-70e6-8ea5-db867a20bd2d","019cf99d-e445-78ae-88d0-91fe39b758eb","","390","
                <div class=""stimulus-container"">
                    <img src=""images/semantic_sequence/creative_activities_semantic/creative_activities_semantic_9.png"" class=""exp-image"">
                    <div class=""question-area"">
                        <p style=""font-size: 20px; font-weight: bold; margin: 0;"">Is there a person in this image?</p>
                    </div>
                </div>","0","main_experiment_trial","9","creative_activities_semantic","semantic_sequence","randomized","","","","",""
"","","","","","html-keyboard-response","63","135636","0.0-63.0","A467D381F0E04680A94280A67BCAA70E","019cf9a2-14d9-70e6-8ea5-db867a20bd2d","019cf99d-e445-78ae-88d0-91fe39b758eb","","null","
                <div class=""stimulus-container"">
                    <img src=""images/semantic_sequence/creative_activities_semantic/creative_activities_semantic_8.png"" class=""exp-image"">
                    <div class=""question-area""></div> 
                </div>","null","","","","","","","","","",""
"","","","","","html-button-response","64","136025","0.0-64.0","A467D381F0E04680A94280A67BCAA70E","019cf9a2-14d9-70e6-8ea5-db867a20bd2d","019cf99d-e445-78ae-88d0-91fe39b758eb","","388","
                <div class=""stimulus-container"">
                    <img src=""images/semantic_sequence/creative_activities_semantic/creative_activities_semantic_8.png"" class=""exp-image"">
                    <div class=""question-area"">
                        <p style=""font-size: 20px; font-weight: bold; margin: 0;"">Is there a person in this image?</p>
                    </div>
                </div>","0","main_experiment_trial","8","creative_activities_semantic","semantic_sequence","randomized","","","","",""
"","","","","","html-keyboard-response","65","137039","0.0-65.0","A467D381F0E04680A94280A67BCAA70E","019cf9a2-14d9-70e6-8ea5-db867a20bd2d","019cf99d-e445-78ae-88d0-91fe39b758eb","","null","
                <div class=""stimulus-container"">
                    <img src=""images/semantic_sequence/creative_activities_semantic/creative_activities_semantic_3.png"" class=""exp-image"">
                    <div class=""question-area""></div> 
                </div>","null","","","","","","","","","",""
"","","","","","html-button-response","66","137391","0.0-66.0","A467D381F0E04680A94280A67BCAA70E","019cf9a2-14d9-70e6-8ea5-db867a20bd2d","019cf99d-e445-78ae-88d0-91fe39b758eb","","351","
                <div class=""stimulus-container"">
                    <img src=""images/semantic_sequence/creative_activities_semantic/creative_activities_semantic_3.png"" class=""exp-image"">
                    <div class=""question-area"">
                        <p style=""font-size: 20px; font-weight: bold; margin: 0;"">Is there a person in this image?</p>
                    </div>
                </div>","0","main_experiment_trial","3","creative_activities_semantic","semantic_sequence","randomized","","","","",""
"","","","","","html-keyboard-response","67","138393","0.0-67.0","A467D381F0E04680A94280A67BCAA70E","019cf9a2-14d9-70e6-8ea5-db867a20bd2d","019cf99d-e445-78ae-88d0-91fe39b758eb","","null","
                <div class=""stimulus-container"">
                    <img src=""images/semantic_sequence/creative_activities_semantic/creative_activities_semantic_7.png"" class=""exp-image"">
                    <div class=""question-area""></div> 
                </div>","null","","","","","","","","","",""
"","","","","","html-button-response","68","138725","0.0-68.0","A467D381F0E04680A94280A67BCAA70E","019cf9a2-14d9-70e6-8ea5-db867a20bd2d","019cf99d-e445-78ae-88d0-91fe39b758eb","","331","
                <div class=""stimulus-container"">
                    <img src=""images/semantic_sequence/creative_activities_semantic/creative_activities_semantic_7.png"" class=""exp-image"">
                    <div class=""question-area"">
                        <p style=""font-size: 20px; font-weight: bold; margin: 0;"">Is there a person in this image?</p>
                    </div>
                </div>","0","main_experiment_trial","7","creative_activities_semantic","semantic_sequence","randomized","","","","",""
"","","","","","html-keyboard-response","69","139734","0.0-69.0","A467D381F0E04680A94280A67BCAA70E","019cf9a2-14d9-70e6-8ea5-db867a20bd2d","019cf99d-e445-78ae-88d0-91fe39b758eb","","null","
                <div class=""stimulus-container"">
                    <img src=""images/semantic_sequence/creative_activities_semantic/creative_activities_semantic_ten.png"" class=""exp-image"">
                    <div class=""question-area""></div> 
                </div>","null","","","","","","","","","",""
"","","","","","html-button-response","70","140060","0.0-70.0","A467D381F0E04680A94280A67BCAA70E","019cf9a2-14d9-70e6-8ea5-db867a20bd2d","019cf99d-e445-78ae-88d0-91fe39b758eb","","324","
                <div class=""stimulus-container"">
                    <img src=""images/semantic_sequence/creative_activities_semantic/creative_activities_semantic_ten.png"" class=""exp-image"">
                    <div class=""question-area"">
                        <p style=""font-size: 20px; font-weight: bold; margin: 0;"">Is there a person in this image?</p>
                    </div>
                </div>","0","main_experiment_trial","ten","creative_activities_semantic","semantic_sequence","randomized","","","","",""
"","","","","","html-keyboard-response","71","141074","0.0-71.0","A467D381F0E04680A94280A67BCAA70E","019cf9a2-14d9-70e6-8ea5-db867a20bd2d","019cf99d-e445-78ae-88d0-91fe39b758eb","","null","
                <div class=""stimulus-container"">
                    <img src=""images/semantic_sequence/creative_activities_semantic/creative_activities_semantic_6.png"" class=""exp-image"">
                    <div class=""question-area""></div> 
                </div>","null","","","","","","","","","",""
"","","","","","html-button-response","72","141443","0.0-72.0","A467D381F0E04680A94280A67BCAA70E","019cf9a2-14d9-70e6-8ea5-db867a20bd2d","019cf99d-e445-78ae-88d0-91fe39b758eb","","367","
                <div class=""stimulus-container"">
                    <img src=""images/semantic_sequence/creative_activities_semantic/creative_activities_semantic_6.png"" class=""exp-image"">
                    <div class=""question-area"">
                        <p style=""font-size: 20px; font-weight: bold; margin: 0;"">Is there a person in this image?</p>
                    </div>
                </div>","0","main_experiment_trial","6","creative_activities_semantic","semantic_sequence","randomized","","","","",""
"","","","","","html-keyboard-response","73","142458","0.0-73.0","A467D381F0E04680A94280A67BCAA70E","019cf9a2-14d9-70e6-8ea5-db867a20bd2d","019cf99d-e445-78ae-88d0-91fe39b758eb","","null","
                <div class=""stimulus-container"">
                    <img src=""images/semantic_sequence/creative_activities_semantic/creative_activities_semantic_5.png"" class=""exp-image"">
                    <div class=""question-area""></div> 
                </div>","null","","","","","","","","","",""
"","","","","","html-button-response","74","142592","0.0-74.0","A467D381F0E04680A94280A67BCAA70E","019cf9a2-14d9-70e6-8ea5-db867a20bd2d","019cf99d-e445-78ae-88d0-91fe39b758eb","","133","
                <div class=""stimulus-container"">
                    <img src=""images/semantic_sequence/creative_activities_semantic/creative_activities_semantic_5.png"" class=""exp-image"">
                    <div class=""question-area"">
                        <p style=""font-size: 20px; font-weight: bold; margin: 0;"">Is there a person in this image?</p>
                    </div>
                </div>","0","main_experiment_trial","5","creative_activities_semantic","semantic_sequence","randomized","","","","",""
"","","","","","html-keyboard-response","75","143597","0.0-75.0","A467D381F0E04680A94280A67BCAA70E","019cf9a2-14d9-70e6-8ea5-db867a20bd2d","019cf99d-e445-78ae-88d0-91fe39b758eb","","null","
                <div class=""stimulus-container"">
                    <img src=""images/semantic_sequence/creative_activities_semantic/creative_activities_semantic_1.png"" class=""exp-image"">
                    <div class=""question-area""></div> 
                </div>","null","","","","","","","","","",""
"","","","","","html-button-response","76","143940","0.0-76.0","A467D381F0E04680A94280A67BCAA70E","019cf9a2-14d9-70e6-8ea5-db867a20bd2d","019cf99d-e445-78ae-88d0-91fe39b758eb","","342","
                <div class=""stimulus-container"">
                    <img src=""images/semantic_sequence/creative_activities_semantic/creative_activities_semantic_1.png"" class=""exp-image"">
                    <div class=""question-area"">
                        <p style=""font-size: 20px; font-weight: bold; margin: 0;"">Is there a person in this image?</p>
                    </div>
                </div>","0","main_experiment_trial","1","creative_activities_semantic","semantic_sequence","randomized","","","","",""
"","","","","","html-keyboard-response","77","144953","0.0-77.0","A467D381F0E04680A94280A67BCAA70E","019cf9a2-14d9-70e6-8ea5-db867a20bd2d","019cf99d-e445-78ae-88d0-91fe39b758eb","","null","
                <div class=""stimulus-container"">
                    <img src=""images/semantic_sequence/creative_activities_semantic/creative_activities_semantic_2.png"" class=""exp-image"">
                    <div class=""question-area""></div> 
                </div>","null","","","","","","","","","",""
"","","","","","html-button-response","78","145174","0.0-78.0","A467D381F0E04680A94280A67BCAA70E","019cf9a2-14d9-70e6-8ea5-db867a20bd2d","019cf99d-e445-78ae-88d0-91fe39b758eb","","220","
                <div class=""stimulus-container"">
                    <img src=""images/semantic_sequence/creative_activities_semantic/creative_activities_semantic_2.png"" class=""exp-image"">
                    <div class=""question-area"">
                        <p style=""font-size: 20px; font-weight: bold; margin: 0;"">Is there a person in this image?</p>
                    </div>
                </div>","0","main_experiment_trial","2","creative_activities_semantic","semantic_sequence","randomized","","","","",""
"","","","","","html-keyboard-response","79","150188","0.0-79.0","A467D381F0E04680A94280A67BCAA70E","019cf9a2-14d9-70e6-8ea5-db867a20bd2d","019cf99d-e445-78ae-88d0-91fe39b758eb","","null","<div style=""background-color: white; width: 100vw; height: 100vh;""></div>","null","","","","","","","","","",""
"","","","","","html-keyboard-response","80","151203","0.0-80.0","A467D381F0E04680A94280A67BCAA70E","019cf9a2-14d9-70e6-8ea5-db867a20bd2d","019cf99d-e445-78ae-88d0-91fe39b758eb","","null","
                <div class=""stimulus-container"">
                    <img src=""images/semantic_sequence/market_semantic/market_semantic_3.png"" class=""exp-image"">
                    <div class=""question-area""></div> 
                </div>","null","","","","","","","","","",""
"","","","","","html-button-response","81","151792","0.0-81.0","A467D381F0E04680A94280A67BCAA70E","019cf9a2-14d9-70e6-8ea5-db867a20bd2d","019cf99d-e445-78ae-88d0-91fe39b758eb","","588","
                <div class=""stimulus-container"">
                    <img src=""images/semantic_sequence/market_semantic/market_semantic_3.png"" class=""exp-image"">
                    <div class=""question-area"">
                        <p style=""font-size: 20px; font-weight: bold; margin: 0;"">Is there a person in this image?</p>
                    </div>
                </div>","1","main_experiment_trial","3","market_semantic","semantic_sequence","randomized","","","","",""
"","","","","","html-keyboard-response","82","152797","0.0-82.0","A467D381F0E04680A94280A67BCAA70E","019cf9a2-14d9-70e6-8ea5-db867a20bd2d","019cf99d-e445-78ae-88d0-91fe39b758eb","","null","
                <div class=""stimulus-container"">
                    <img src=""images/semantic_sequence/market_semantic/market_semantic_5.png"" class=""exp-image"">
                    <div class=""question-area""></div> 
                </div>","null","","","","","","","","","",""
"","","","","","html-button-response","83","153144","0.0-83.0","A467D381F0E04680A94280A67BCAA70E","019cf9a2-14d9-70e6-8ea5-db867a20bd2d","019cf99d-e445-78ae-88d0-91fe39b758eb","","347","
                <div class=""stimulus-container"">
                    <img src=""images/semantic_sequence/market_semantic/market_semantic_5.png"" class=""exp-image"">
                    <div class=""question-area"">
                        <p style=""font-size: 20px; font-weight: bold; margin: 0;"">Is there a person in this image?</p>
                    </div>
                </div>","1","main_experiment_trial","5","market_semantic","semantic_sequence","randomized","","","","",""
"","","","","","html-keyboard-response","84","154153","0.0-84.0","A467D381F0E04680A94280A67BCAA70E","019cf9a2-14d9-70e6-8ea5-db867a20bd2d","019cf99d-e445-78ae-88d0-91fe39b758eb","","null","
                <div class=""stimulus-container"">
                    <img src=""images/semantic_sequence/market_semantic/market_semantic_ten.png"" class=""exp-image"">
                    <div class=""question-area""></div> 
                </div>","null","","","","","","","","","",""
"","","","","","html-button-response","85","154510","0.0-85.0","A467D381F0E04680A94280A67BCAA70E","019cf9a2-14d9-70e6-8ea5-db867a20bd2d","019cf99d-e445-78ae-88d0-91fe39b758eb","","356","
                <div class=""stimulus-container"">
                    <img src=""images/semantic_sequence/market_semantic/market_semantic_ten.png"" class=""exp-image"">
                    <div class=""question-area"">
                        <p style=""font-size: 20px; font-weight: bold; margin: 0;"">Is there a person in this image?</p>
                    </div>
                </div>","1","main_experiment_trial","ten","market_semantic","semantic_sequence","randomized","","","","",""
"","","","","","html-keyboard-response","86","155511","0.0-86.0","A467D381F0E04680A94280A67BCAA70E","019cf9a2-14d9-70e6-8ea5-db867a20bd2d","019cf99d-e445-78ae-88d0-91fe39b758eb","","null","
                <div class=""stimulus-container"">
                    <img src=""images/semantic_sequence/market_semantic/market_semantic_7.png"" class=""exp-image"">
                    <div class=""question-area""></div> 
                </div>","null","","","","","","","","","",""
"","","","","","html-button-response","87","155776","0.0-87.0","A467D381F0E04680A94280A67BCAA70E","019cf9a2-14d9-70e6-8ea5-db867a20bd2d","019cf99d-e445-78ae-88d0-91fe39b758eb","","264","
                <div class=""stimulus-container"">
                    <img src=""images/semantic_sequence/market_semantic/market_semantic_7.png"" class=""exp-image"">
                    <div class=""question-area"">
                        <p style=""font-size: 20px; font-weight: bold; margin: 0;"">Is there a person in this image?</p>
                    </div>
                </div>","0","main_experiment_trial","7","market_semantic","semantic_sequence","randomized","","","","",""
"","","","","","html-keyboard-response","88","156786","0.0-88.0","A467D381F0E04680A94280A67BCAA70E","019cf9a2-14d9-70e6-8ea5-db867a20bd2d","019cf99d-e445-78ae-88d0-91fe39b758eb","","null","
                <div class=""stimulus-container"">
                    <img src=""images/semantic_sequence/market_semantic/market_semantic_4.png"" class=""exp-image"">
                    <div class=""question-area""></div> 
                </div>","null","","","","","","","","","",""
"","","","","","html-button-response","89","157091","0.0-89.0","A467D381F0E04680A94280A67BCAA70E","019cf9a2-14d9-70e6-8ea5-db867a20bd2d","019cf99d-e445-78ae-88d0-91fe39b758eb","","304","
                <div class=""stimulus-container"">
                    <img src=""images/semantic_sequence/market_semantic/market_semantic_4.png"" class=""exp-image"">
                    <div class=""question-area"">
                        <p style=""font-size: 20px; font-weight: bold; margin: 0;"">Is there a person in this image?</p>
                    </div>
                </div>","0","main_experiment_trial","4","market_semantic","semantic_sequence","randomized","","","","",""
"","","","","","html-keyboard-response","90","158095","0.0-90.0","A467D381F0E04680A94280A67BCAA70E","019cf9a2-14d9-70e6-8ea5-db867a20bd2d","019cf99d-e445-78ae-88d0-91fe39b758eb","","null","
                <div class=""stimulus-container"">
                    <img src=""images/semantic_sequence/market_semantic/market_semantic_8.png"" class=""exp-image"">
                    <div class=""question-area""></div> 
                </div>","null","","","","","","","","","",""
"","","","","","html-button-response","91","158509","0.0-91.0","A467D381F0E04680A94280A67BCAA70E","019cf9a2-14d9-70e6-8ea5-db867a20bd2d","019cf99d-e445-78ae-88d0-91fe39b758eb","","414","
                <div class=""stimulus-container"">
                    <img src=""images/semantic_sequence/market_semantic/market_semantic_8.png"" class=""exp-image"">
                    <div class=""question-area"">
                        <p style=""font-size: 20px; font-weight: bold; margin: 0;"">Is there a person in this image?</p>
                    </div>
                </div>","0","main_experiment_trial","8","market_semantic","semantic_sequence","randomized","","","","",""
"","","","","","html-keyboard-response","92","159521","0.0-92.0","A467D381F0E04680A94280A67BCAA70E","019cf9a2-14d9-70e6-8ea5-db867a20bd2d","019cf99d-e445-78ae-88d0-91fe39b758eb","","null","
                <div class=""stimulus-container"">
                    <img src=""images/semantic_sequence/market_semantic/market_semantic_1.png"" class=""exp-image"">
                    <div class=""question-area""></div> 
                </div>","null","","","","","","","","","",""
"","","","","","html-button-response","93","159745","0.0-93.0","A467D381F0E04680A94280A67BCAA70E","019cf9a2-14d9-70e6-8ea5-db867a20bd2d","019cf99d-e445-78ae-88d0-91fe39b758eb","","223","
                <div class=""stimulus-container"">
                    <img src=""images/semantic_sequence/market_semantic/market_semantic_1.png"" class=""exp-image"">
                    <div class=""question-area"">
                        <p style=""font-size: 20px; font-weight: bold; margin: 0;"">Is there a person in this image?</p>
                    </div>
                </div>","1","main_experiment_trial","1","market_semantic","semantic_sequence","randomized","","","","",""
"","","","","","html-keyboard-response","94","160755","0.0-94.0","A467D381F0E04680A94280A67BCAA70E","019cf9a2-14d9-70e6-8ea5-db867a20bd2d","019cf99d-e445-78ae-88d0-91fe39b758eb","","null","
                <div class=""stimulus-container"">
                    <img src=""images/semantic_sequence/market_semantic/market_semantic_6.png"" class=""exp-image"">
                    <div class=""question-area""></div> 
                </div>","null","","","","","","","","","",""
"","","","","","html-button-response","95","161078","0.0-95.0","A467D381F0E04680A94280A67BCAA70E","019cf9a2-14d9-70e6-8ea5-db867a20bd2d","019cf99d-e445-78ae-88d0-91fe39b758eb","","322","
                <div class=""stimulus-container"">
                    <img src=""images/semantic_sequence/market_semantic/market_semantic_6.png"" class=""exp-image"">
                    <div class=""question-area"">
                        <p style=""font-size: 20px; font-weight: bold; margin: 0;"">Is there a person in this image?</p>
                    </div>
                </div>","1","main_experiment_trial","6","market_semantic","semantic_sequence","randomized","","","","",""
"","","","","","html-keyboard-response","96","162085","0.0-96.0","A467D381F0E04680A94280A67BCAA70E","019cf9a2-14d9-70e6-8ea5-db867a20bd2d","019cf99d-e445-78ae-88d0-91fe39b758eb","","null","
                <div class=""stimulus-container"">
                    <img src=""images/semantic_sequence/market_semantic/market_semantic_9.png"" class=""exp-image"">
                    <div class=""question-area""></div> 
                </div>","null","","","","","","","","","",""
"","","","","","html-button-response","97","162427","0.0-97.0","A467D381F0E04680A94280A67BCAA70E","019cf9a2-14d9-70e6-8ea5-db867a20bd2d","019cf99d-e445-78ae-88d0-91fe39b758eb","","341","
                <div class=""stimulus-container"">
                    <img src=""images/semantic_sequence/market_semantic/market_semantic_9.png"" class=""exp-image"">
                    <div class=""question-area"">
                        <p style=""font-size: 20px; font-weight: bold; margin: 0;"">Is there a person in this image?</p>
                    </div>
                </div>","1","main_experiment_trial","9","market_semantic","semantic_sequence","randomized","","","","",""
"","","","","","html-keyboard-response","98","163429","0.0-98.0","A467D381F0E04680A94280A67BCAA70E","019cf9a2-14d9-70e6-8ea5-db867a20bd2d","019cf99d-e445-78ae-88d0-91fe39b758eb","","null","
                <div class=""stimulus-container"">
                    <img src=""images/semantic_sequence/market_semantic/market_semantic_2.png"" class=""exp-image"">
                    <div class=""question-area""></div> 
                </div>","null","","","","","","","","","",""
"","","","","","html-button-response","99","163643","0.0-99.0","A467D381F0E04680A94280A67BCAA70E","019cf9a2-14d9-70e6-8ea5-db867a20bd2d","019cf99d-e445-78ae-88d0-91fe39b758eb","","213","
                <div class=""stimulus-container"">
                    <img src=""images/semantic_sequence/market_semantic/market_semantic_2.png"" class=""exp-image"">
                    <div class=""question-area"">
                        <p style=""font-size: 20px; font-weight: bold; margin: 0;"">Is there a person in this image?</p>
                    </div>
                </div>","1","main_experiment_trial","2","market_semantic","semantic_sequence","randomized","","","","",""
"","","","","","html-keyboard-response","100","168650","0.0-100.0","A467D381F0E04680A94280A67BCAA70E","019cf9a2-14d9-70e6-8ea5-db867a20bd2d","019cf99d-e445-78ae-88d0-91fe39b758eb","","null","<div style=""background-color: white; width: 100vw; height: 100vh;""></div>","null","","","","","","","","","",""
"","","","","","html-keyboard-response","101","169655","0.0-101.0","A467D381F0E04680A94280A67BCAA70E","019cf9a2-14d9-70e6-8ea5-db867a20bd2d","019cf99d-e445-78ae-88d0-91fe39b758eb","","null","
                <div class=""stimulus-container"">
                    <img src=""images/causal_sequence/dog_causal/dog_causal_3.png"" class=""exp-image"">
                    <div class=""question-area""></div> 
                </div>","null","","","","","","","","","",""
"","","","","","html-button-response","102","170277","0.0-102.0","A467D381F0E04680A94280A67BCAA70E","019cf9a2-14d9-70e6-8ea5-db867a20bd2d","019cf99d-e445-78ae-88d0-91fe39b758eb","","621","
                <div class=""stimulus-container"">
                    <img src=""images/causal_sequence/dog_causal/dog_causal_3.png"" class=""exp-image"">
                    <div class=""question-area"">
                        <p style=""font-size: 20px; font-weight: bold; margin: 0;"">Is there a person in this image?</p>
                    </div>
                </div>","0","main_experiment_trial","3","dog_causal","causal_sequence","randomized","","","","",""
"","","","","","html-keyboard-response","103","171293","0.0-103.0","A467D381F0E04680A94280A67BCAA70E","019cf9a2-14d9-70e6-8ea5-db867a20bd2d","019cf99d-e445-78ae-88d0-91fe39b758eb","","null","
                <div class=""stimulus-container"">
                    <img src=""images/causal_sequence/dog_causal/dog_causal_ten.png"" class=""exp-image"">
                    <div class=""question-area""></div> 
                </div>","null","","","","","","","","","",""
"","","","","","html-button-response","104","171708","0.0-104.0","A467D381F0E04680A94280A67BCAA70E","019cf9a2-14d9-70e6-8ea5-db867a20bd2d","019cf99d-e445-78ae-88d0-91fe39b758eb","","414","
                <div class=""stimulus-container"">
                    <img src=""images/causal_sequence/dog_causal/dog_causal_ten.png"" class=""exp-image"">
                    <div class=""question-area"">
                        <p style=""font-size: 20px; font-weight: bold; margin: 0;"">Is there a person in this image?</p>
                    </div>
                </div>","0","main_experiment_trial","ten","dog_causal","causal_sequence","randomized","","","","",""
"","","","","","html-keyboard-response","105","172720","0.0-105.0","A467D381F0E04680A94280A67BCAA70E","019cf9a2-14d9-70e6-8ea5-db867a20bd2d","019cf99d-e445-78ae-88d0-91fe39b758eb","","null","
                <div class=""stimulus-container"">
                    <img src=""images/causal_sequence/dog_causal/dog_causal_8.png"" class=""exp-image"">
                    <div class=""question-area""></div> 
                </div>","null","","","","","","","","","",""
"","","","","","html-button-response","106","173427","0.0-106.0","A467D381F0E04680A94280A67BCAA70E","019cf9a2-14d9-70e6-8ea5-db867a20bd2d","019cf99d-e445-78ae-88d0-91fe39b758eb","","706","
                <div class=""stimulus-container"">
                    <img src=""images/causal_sequence/dog_causal/dog_causal_8.png"" class=""exp-image"">
                    <div class=""question-area"">
                        <p style=""font-size: 20px; font-weight: bold; margin: 0;"">Is there a person in this image?</p>
                    </div>
                </div>","0","main_experiment_trial","8","dog_causal","causal_sequence","randomized","","","","",""
"","","","","","html-keyboard-response","107","174432","0.0-107.0","A467D381F0E04680A94280A67BCAA70E","019cf9a2-14d9-70e6-8ea5-db867a20bd2d","019cf99d-e445-78ae-88d0-91fe39b758eb","","null","
                <div class=""stimulus-container"">
                    <img src=""images/causal_sequence/dog_causal/dog_causal_4.png"" class=""exp-image"">
                    <div class=""question-area""></div> 
                </div>","null","","","","","","","","","",""
"","","","","","html-button-response","108","175227","0.0-108.0","A467D381F0E04680A94280A67BCAA70E","019cf9a2-14d9-70e6-8ea5-db867a20bd2d","019cf99d-e445-78ae-88d0-91fe39b758eb","","793","
                <div class=""stimulus-container"">
                    <img src=""images/causal_sequence/dog_causal/dog_causal_4.png"" class=""exp-image"">
                    <div class=""question-area"">
                        <p style=""font-size: 20px; font-weight: bold; margin: 0;"">Is there a person in this image?</p>
                    </div>
                </div>","0","main_experiment_trial","4","dog_causal","causal_sequence","randomized","","","","",""
"","","","","","html-keyboard-response","109","176235","0.0-109.0","A467D381F0E04680A94280A67BCAA70E","019cf9a2-14d9-70e6-8ea5-db867a20bd2d","019cf99d-e445-78ae-88d0-91fe39b758eb","","null","
                <div class=""stimulus-container"">
                    <img src=""images/causal_sequence/dog_causal/dog_causal_9.png"" class=""exp-image"">
                    <div class=""question-area""></div> 
                </div>","null","","","","","","","","","",""
"","","","","","html-button-response","110","177708","0.0-110.0","A467D381F0E04680A94280A67BCAA70E","019cf9a2-14d9-70e6-8ea5-db867a20bd2d","019cf99d-e445-78ae-88d0-91fe39b758eb","","1472","
                <div class=""stimulus-container"">
                    <img src=""images/causal_sequence/dog_causal/dog_causal_9.png"" class=""exp-image"">
                    <div class=""question-area"">
                        <p style=""font-size: 20px; font-weight: bold; margin: 0;"">Is there a person in this image?</p>
                    </div>
                </div>","0","main_experiment_trial","9","dog_causal","causal_sequence","randomized","","","","",""
"","","","","","html-keyboard-response","111","178713","0.0-111.0","A467D381F0E04680A94280A67BCAA70E","019cf9a2-14d9-70e6-8ea5-db867a20bd2d","019cf99d-e445-78ae-88d0-91fe39b758eb","","null","
                <div class=""stimulus-container"">
                    <img src=""images/causal_sequence/dog_causal/dog_causal_5.png"" class=""exp-image"">
                    <div class=""question-area""></div> 
                </div>","null","","","","","","","","","",""
"","","","","","html-button-response","112","179125","0.0-112.0","A467D381F0E04680A94280A67BCAA70E","019cf9a2-14d9-70e6-8ea5-db867a20bd2d","019cf99d-e445-78ae-88d0-91fe39b758eb","","412","
                <div class=""stimulus-container"">
                    <img src=""images/causal_sequence/dog_causal/dog_causal_5.png"" class=""exp-image"">
                    <div class=""question-area"">
                        <p style=""font-size: 20px; font-weight: bold; margin: 0;"">Is there a person in this image?</p>
                    </div>
                </div>","0","main_experiment_trial","5","dog_causal","causal_sequence","randomized","","","","",""
"","","","","","html-keyboard-response","113","180127","0.0-113.0","A467D381F0E04680A94280A67BCAA70E","019cf9a2-14d9-70e6-8ea5-db867a20bd2d","019cf99d-e445-78ae-88d0-91fe39b758eb","","null","
                <div class=""stimulus-container"">
                    <img src=""images/causal_sequence/dog_causal/dog_causal_2.png"" class=""exp-image"">
                    <div class=""question-area""></div> 
                </div>","null","","","","","","","","","",""
"","","","","","html-button-response","114","180509","0.0-114.0","A467D381F0E04680A94280A67BCAA70E","019cf9a2-14d9-70e6-8ea5-db867a20bd2d","019cf99d-e445-78ae-88d0-91fe39b758eb","","380","
                <div class=""stimulus-container"">
                    <img src=""images/causal_sequence/dog_causal/dog_causal_2.png"" class=""exp-image"">
                    <div class=""question-area"">
                        <p style=""font-size: 20px; font-weight: bold; margin: 0;"">Is there a person in this image?</p>
                    </div>
                </div>","0","main_experiment_trial","2","dog_causal","causal_sequence","randomized","","","","",""
"","","","","","html-keyboard-response","115","181510","0.0-115.0","A467D381F0E04680A94280A67BCAA70E","019cf9a2-14d9-70e6-8ea5-db867a20bd2d","019cf99d-e445-78ae-88d0-91fe39b758eb","","null","
                <div class=""stimulus-container"">
                    <img src=""images/causal_sequence/dog_causal/dog_causal_1.png"" class=""exp-image"">
                    <div class=""question-area""></div> 
                </div>","null","","","","","","","","","",""
"","","","","","html-button-response","116","181891","0.0-116.0","A467D381F0E04680A94280A67BCAA70E","019cf9a2-14d9-70e6-8ea5-db867a20bd2d","019cf99d-e445-78ae-88d0-91fe39b758eb","","380","
                <div class=""stimulus-container"">
                    <img src=""images/causal_sequence/dog_causal/dog_causal_1.png"" class=""exp-image"">
                    <div class=""question-area"">
                        <p style=""font-size: 20px; font-weight: bold; margin: 0;"">Is there a person in this image?</p>
                    </div>
                </div>","0","main_experiment_trial","1","dog_causal","causal_sequence","randomized","","","","",""
"","","","","","html-keyboard-response","117","182894","0.0-117.0","A467D381F0E04680A94280A67BCAA70E","019cf9a2-14d9-70e6-8ea5-db867a20bd2d","019cf99d-e445-78ae-88d0-91fe39b758eb","","null","
                <div class=""stimulus-container"">
                    <img src=""images/causal_sequence/dog_causal/dog_causal_6.png"" class=""exp-image"">
                    <div class=""question-area""></div> 
                </div>","null","","","","","","","","","",""
"","","","","","html-button-response","118","183291","0.0-118.0","A467D381F0E04680A94280A67BCAA70E","019cf9a2-14d9-70e6-8ea5-db867a20bd2d","019cf99d-e445-78ae-88d0-91fe39b758eb","","396","
                <div class=""stimulus-container"">
                    <img src=""images/causal_sequence/dog_causal/dog_causal_6.png"" class=""exp-image"">
                    <div class=""question-area"">
                        <p style=""font-size: 20px; font-weight: bold; margin: 0;"">Is there a person in this image?</p>
                    </div>
                </div>","0","main_experiment_trial","6","dog_causal","causal_sequence","randomized","","","","",""
"","","","","","html-keyboard-response","119","184300","0.0-119.0","A467D381F0E04680A94280A67BCAA70E","019cf9a2-14d9-70e6-8ea5-db867a20bd2d","019cf99d-e445-78ae-88d0-91fe39b758eb","","null","
                <div class=""stimulus-container"">
                    <img src=""images/causal_sequence/dog_causal/dog_causal_7.png"" class=""exp-image"">
                    <div class=""question-area""></div> 
                </div>","null","","","","","","","","","",""
"","","","","","html-button-response","120","184726","0.0-120.0","A467D381F0E04680A94280A67BCAA70E","019cf9a2-14d9-70e6-8ea5-db867a20bd2d","019cf99d-e445-78ae-88d0-91fe39b758eb","","425","
                <div class=""stimulus-container"">
                    <img src=""images/causal_sequence/dog_causal/dog_causal_7.png"" class=""exp-image"">
                    <div class=""question-area"">
                        <p style=""font-size: 20px; font-weight: bold; margin: 0;"">Is there a person in this image?</p>
                    </div>
                </div>","0","main_experiment_trial","7","dog_causal","causal_sequence","randomized","","","","",""
"","","","","","html-keyboard-response","121","189733","0.0-121.0","A467D381F0E04680A94280A67BCAA70E","019cf9a2-14d9-70e6-8ea5-db867a20bd2d","019cf99d-e445-78ae-88d0-91fe39b758eb","","null","<div style=""background-color: white; width: 100vw; height: 100vh;""></div>","null","","","","","","","","","",""
"","","","","","html-keyboard-response","122","190736","0.0-122.0","A467D381F0E04680A94280A67BCAA70E","019cf9a2-14d9-70e6-8ea5-db867a20bd2d","019cf99d-e445-78ae-88d0-91fe39b758eb","","null","
                <div class=""stimulus-container"">
                    <img src=""images/causal_sequence/package_causal/package_causal_2.png"" class=""exp-image"">
                    <div class=""question-area""></div> 
                </div>","null","","","","","","","","","",""
"","","","","","html-button-response","123","191708","0.0-123.0","A467D381F0E04680A94280A67BCAA70E","019cf9a2-14d9-70e6-8ea5-db867a20bd2d","019cf99d-e445-78ae-88d0-91fe39b758eb","","971","
                <div class=""stimulus-container"">
                    <img src=""images/causal_sequence/package_causal/package_causal_2.png"" class=""exp-image"">
                    <div class=""question-area"">
                        <p style=""font-size: 20px; font-weight: bold; margin: 0;"">Is there a person in this image?</p>
                    </div>
                </div>","0","main_experiment_trial","2","package_causal","causal_sequence","randomized","","","","",""
"","","","","","html-keyboard-response","124","192716","0.0-124.0","A467D381F0E04680A94280A67BCAA70E","019cf9a2-14d9-70e6-8ea5-db867a20bd2d","019cf99d-e445-78ae-88d0-91fe39b758eb","","null","
                <div class=""stimulus-container"">
                    <img src=""images/causal_sequence/package_causal/package_causal_4.png"" class=""exp-image"">
                    <div class=""question-area""></div> 
                </div>","null","","","","","","","","","",""
"","","","","","html-button-response","125","193395","0.0-125.0","A467D381F0E04680A94280A67BCAA70E","019cf9a2-14d9-70e6-8ea5-db867a20bd2d","019cf99d-e445-78ae-88d0-91fe39b758eb","","677","
                <div class=""stimulus-container"">
                    <img src=""images/causal_sequence/package_causal/package_causal_4.png"" class=""exp-image"">
                    <div class=""question-area"">
                        <p style=""font-size: 20px; font-weight: bold; margin: 0;"">Is there a person in this image?</p>
                    </div>
                </div>","1","main_experiment_trial","4","package_causal","causal_sequence","randomized","","","","",""
"","","","","","html-keyboard-response","126","194403","0.0-126.0","A467D381F0E04680A94280A67BCAA70E","019cf9a2-14d9-70e6-8ea5-db867a20bd2d","019cf99d-e445-78ae-88d0-91fe39b758eb","","null","
                <div class=""stimulus-container"">
                    <img src=""images/causal_sequence/package_causal/package_causal_3.png"" class=""exp-image"">
                    <div class=""question-area""></div> 
                </div>","null","","","","","","","","","",""
"","","","","","html-button-response","127","195426","0.0-127.0","A467D381F0E04680A94280A67BCAA70E","019cf9a2-14d9-70e6-8ea5-db867a20bd2d","019cf99d-e445-78ae-88d0-91fe39b758eb","","1022","
                <div class=""stimulus-container"">
                    <img src=""images/causal_sequence/package_causal/package_causal_3.png"" class=""exp-image"">
                    <div class=""question-area"">
                        <p style=""font-size: 20px; font-weight: bold; margin: 0;"">Is there a person in this image?</p>
                    </div>
                </div>","0","main_experiment_trial","3","package_causal","causal_sequence","randomized","","","","",""
"","","","","","html-keyboard-response","128","196428","0.0-128.0","A467D381F0E04680A94280A67BCAA70E","019cf9a2-14d9-70e6-8ea5-db867a20bd2d","019cf99d-e445-78ae-88d0-91fe39b758eb","","null","
                <div class=""stimulus-container"">
                    <img src=""images/causal_sequence/package_causal/package_causal_8.png"" class=""exp-image"">
                    <div class=""question-area""></div> 
                </div>","null","","","","","","","","","",""
"","","","","","html-button-response","129","197574","0.0-129.0","A467D381F0E04680A94280A67BCAA70E","019cf9a2-14d9-70e6-8ea5-db867a20bd2d","019cf99d-e445-78ae-88d0-91fe39b758eb","","1146","
                <div class=""stimulus-container"">
                    <img src=""images/causal_sequence/package_causal/package_causal_8.png"" class=""exp-image"">
                    <div class=""question-area"">
                        <p style=""font-size: 20px; font-weight: bold; margin: 0;"">Is there a person in this image?</p>
                    </div>
                </div>","0","main_experiment_trial","8","package_causal","causal_sequence","randomized","","","","",""
"","","","","","html-keyboard-response","130","198580","0.0-130.0","A467D381F0E04680A94280A67BCAA70E","019cf9a2-14d9-70e6-8ea5-db867a20bd2d","019cf99d-e445-78ae-88d0-91fe39b758eb","","null","
                <div class=""stimulus-container"">
                    <img src=""images/causal_sequence/package_causal/package_causal_7.png"" class=""exp-image"">
                    <div class=""question-area""></div> 
                </div>","null","","","","","","","","","",""
"","","","","","html-button-response","131","199373","0.0-131.0","A467D381F0E04680A94280A67BCAA70E","019cf9a2-14d9-70e6-8ea5-db867a20bd2d","019cf99d-e445-78ae-88d0-91fe39b758eb","","792","
                <div class=""stimulus-container"">
                    <img src=""images/causal_sequence/package_causal/package_causal_7.png"" class=""exp-image"">
                    <div class=""question-area"">
                        <p style=""font-size: 20px; font-weight: bold; margin: 0;"">Is there a person in this image?</p>
                    </div>
                </div>","0","main_experiment_trial","7","package_causal","causal_sequence","randomized","","","","",""
"","","","","","html-keyboard-response","132","200384","0.0-132.0","A467D381F0E04680A94280A67BCAA70E","019cf9a2-14d9-70e6-8ea5-db867a20bd2d","019cf99d-e445-78ae-88d0-91fe39b758eb","","null","
                <div class=""stimulus-container"">
                    <img src=""images/causal_sequence/package_causal/package_causal_5.png"" class=""exp-image"">
                    <div class=""question-area""></div> 
                </div>","null","","","","","","","","","",""
"","","","","","html-button-response","133","201076","0.0-133.0","A467D381F0E04680A94280A67BCAA70E","019cf9a2-14d9-70e6-8ea5-db867a20bd2d","019cf99d-e445-78ae-88d0-91fe39b758eb","","691","
                <div class=""stimulus-container"">
                    <img src=""images/causal_sequence/package_causal/package_causal_5.png"" class=""exp-image"">
                    <div class=""question-area"">
                        <p style=""font-size: 20px; font-weight: bold; margin: 0;"">Is there a person in this image?</p>
                    </div>
                </div>","0","main_experiment_trial","5","package_causal","causal_sequence","randomized","","","","",""
"","","","","","html-keyboard-response","134","202089","0.0-134.0","A467D381F0E04680A94280A67BCAA70E","019cf9a2-14d9-70e6-8ea5-db867a20bd2d","019cf99d-e445-78ae-88d0-91fe39b758eb","","null","
                <div class=""stimulus-container"">
                    <img src=""images/causal_sequence/package_causal/package_causal_ten.png"" class=""exp-image"">
                    <div class=""question-area""></div> 
                </div>","null","","","","","","","","","",""
"","","","","","html-button-response","135","202695","0.0-135.0","A467D381F0E04680A94280A67BCAA70E","019cf9a2-14d9-70e6-8ea5-db867a20bd2d","019cf99d-e445-78ae-88d0-91fe39b758eb","","605","
                <div class=""stimulus-container"">
                    <img src=""images/causal_sequence/package_causal/package_causal_ten.png"" class=""exp-image"">
                    <div class=""question-area"">
                        <p style=""font-size: 20px; font-weight: bold; margin: 0;"">Is there a person in this image?</p>
                    </div>
                </div>","0","main_experiment_trial","ten","package_causal","causal_sequence","randomized","","","","",""
"","","","","","html-keyboard-response","136","203706","0.0-136.0","A467D381F0E04680A94280A67BCAA70E","019cf9a2-14d9-70e6-8ea5-db867a20bd2d","019cf99d-e445-78ae-88d0-91fe39b758eb","","null","
                <div class=""stimulus-container"">
                    <img src=""images/causal_sequence/package_causal/package_causal_6.png"" class=""exp-image"">
                    <div class=""question-area""></div> 
                </div>","null","","","","","","","","","",""
"","","","","","html-button-response","137","204544","0.0-137.0","A467D381F0E04680A94280A67BCAA70E","019cf9a2-14d9-70e6-8ea5-db867a20bd2d","019cf99d-e445-78ae-88d0-91fe39b758eb","","836","
                <div class=""stimulus-container"">
                    <img src=""images/causal_sequence/package_causal/package_causal_6.png"" class=""exp-image"">
                    <div class=""question-area"">
                        <p style=""font-size: 20px; font-weight: bold; margin: 0;"">Is there a person in this image?</p>
                    </div>
                </div>","0","main_experiment_trial","6","package_causal","causal_sequence","randomized","","","","",""
"","","","","","html-keyboard-response","138","205545","0.0-138.0","A467D381F0E04680A94280A67BCAA70E","019cf9a2-14d9-70e6-8ea5-db867a20bd2d","019cf99d-e445-78ae-88d0-91fe39b758eb","","null","
                <div class=""stimulus-container"">
                    <img src=""images/causal_sequence/package_causal/package_causal_1.png"" class=""exp-image"">
                    <div class=""question-area""></div> 
                </div>","null","","","","","","","","","",""
"","","","","","html-button-response","139","206978","0.0-139.0","A467D381F0E04680A94280A67BCAA70E","019cf9a2-14d9-70e6-8ea5-db867a20bd2d","019cf99d-e445-78ae-88d0-91fe39b758eb","","1432","
                <div class=""stimulus-container"">
                    <img src=""images/causal_sequence/package_causal/package_causal_1.png"" class=""exp-image"">
                    <div class=""question-area"">
                        <p style=""font-size: 20px; font-weight: bold; margin: 0;"">Is there a person in this image?</p>
                    </div>
                </div>","0","main_experiment_trial","1","package_causal","causal_sequence","randomized","","","","",""
"","","","","","html-keyboard-response","140","207985","0.0-140.0","A467D381F0E04680A94280A67BCAA70E","019cf9a2-14d9-70e6-8ea5-db867a20bd2d","019cf99d-e445-78ae-88d0-91fe39b758eb","","null","
                <div class=""stimulus-container"">
                    <img src=""images/causal_sequence/package_causal/package_causal_9.png"" class=""exp-image"">
                    <div class=""question-area""></div> 
                </div>","null","","","","","","","","","",""
"","","","","","html-button-response","141","208577","0.0-141.0","A467D381F0E04680A94280A67BCAA70E","019cf9a2-14d9-70e6-8ea5-db867a20bd2d","019cf99d-e445-78ae-88d0-91fe39b758eb","","592","
                <div class=""stimulus-container"">
                    <img src=""images/causal_sequence/package_causal/package_causal_9.png"" class=""exp-image"">
                    <div class=""question-area"">
                        <p style=""font-size: 20px; font-weight: bold; margin: 0;"">Is there a person in this image?</p>
                    </div>
                </div>","0","main_experiment_trial","9","package_causal","causal_sequence","randomized","","","","",""
"","","","","","html-keyboard-response","142","213580","0.0-142.0","A467D381F0E04680A94280A67BCAA70E","019cf9a2-14d9-70e6-8ea5-db867a20bd2d","019cf99d-e445-78ae-88d0-91fe39b758eb","","null","<div style=""background-color: white; width: 100vw; height: 100vh;""></div>","null","","","","","","","","","",""
"","","","","","html-keyboard-response","143","214592","0.0-143.0","A467D381F0E04680A94280A67BCAA70E","019cf9a2-14d9-70e6-8ea5-db867a20bd2d","019cf99d-e445-78ae-88d0-91fe39b758eb","","null","
                <div class=""stimulus-container"">
                    <img src=""images/semantic_sequence/using_technology_semantic/using_technology_semantic_2.png"" class=""exp-image"">
                    <div class=""question-area""></div> 
                </div>","null","","","","","","","","","",""
"","","","","","html-button-response","144","216209","0.0-144.0","A467D381F0E04680A94280A67BCAA70E","019cf9a2-14d9-70e6-8ea5-db867a20bd2d","019cf99d-e445-78ae-88d0-91fe39b758eb","","1615","
                <div class=""stimulus-container"">
                    <img src=""images/semantic_sequence/using_technology_semantic/using_technology_semantic_2.png"" class=""exp-image"">
                    <div class=""question-area"">
                        <p style=""font-size: 20px; font-weight: bold; margin: 0;"">Is there a person in this image?</p>
                    </div>
                </div>","0","main_experiment_trial","2","using_technology_semantic","semantic_sequence","randomized","","","","",""
"","","","","","html-keyboard-response","145","217214","0.0-145.0","A467D381F0E04680A94280A67BCAA70E","019cf9a2-14d9-70e6-8ea5-db867a20bd2d","019cf99d-e445-78ae-88d0-91fe39b758eb","","null","
                <div class=""stimulus-container"">
                    <img src=""images/semantic_sequence/using_technology_semantic/using_technology_semantic_6.png"" class=""exp-image"">
                    <div class=""question-area""></div> 
                </div>","null","","","","","","","","","",""
"","","","","","html-button-response","146","218992","0.0-146.0","A467D381F0E04680A94280A67BCAA70E","019cf9a2-14d9-70e6-8ea5-db867a20bd2d","019cf99d-e445-78ae-88d0-91fe39b758eb","","1777","
                <div class=""stimulus-container"">
                    <img src=""images/semantic_sequence/using_technology_semantic/using_technology_semantic_6.png"" class=""exp-image"">
                    <div class=""question-area"">
                        <p style=""font-size: 20px; font-weight: bold; margin: 0;"">Is there a person in this image?</p>
                    </div>
                </div>","0","main_experiment_trial","6","using_technology_semantic","semantic_sequence","randomized","","","","",""
"","","","","","html-keyboard-response","147","219996","0.0-147.0","A467D381F0E04680A94280A67BCAA70E","019cf9a2-14d9-70e6-8ea5-db867a20bd2d","019cf99d-e445-78ae-88d0-91fe39b758eb","","null","
                <div class=""stimulus-container"">
                    <img src=""images/semantic_sequence/using_technology_semantic/using_technology_semantic_1.png"" class=""exp-image"">
                    <div class=""question-area""></div> 
                </div>","null","","","","","","","","","",""
"","","","","","html-button-response","148","220328","0.0-148.0","A467D381F0E04680A94280A67BCAA70E","019cf9a2-14d9-70e6-8ea5-db867a20bd2d","019cf99d-e445-78ae-88d0-91fe39b758eb","","331","
                <div class=""stimulus-container"">
                    <img src=""images/semantic_sequence/using_technology_semantic/using_technology_semantic_1.png"" class=""exp-image"">
                    <div class=""question-area"">
                        <p style=""font-size: 20px; font-weight: bold; margin: 0;"">Is there a person in this image?</p>
                    </div>
                </div>","0","main_experiment_trial","1","using_technology_semantic","semantic_sequence","randomized","","","","",""
"","","","","","html-keyboard-response","149","221340","0.0-149.0","A467D381F0E04680A94280A67BCAA70E","019cf9a2-14d9-70e6-8ea5-db867a20bd2d","019cf99d-e445-78ae-88d0-91fe39b758eb","","null","
                <div class=""stimulus-container"">
                    <img src=""images/semantic_sequence/using_technology_semantic/using_technology_semantic_8.png"" class=""exp-image"">
                    <div class=""question-area""></div> 
                </div>","null","","","","","","","","","",""
"","","","","","html-button-response","150","221661","0.0-150.0","A467D381F0E04680A94280A67BCAA70E","019cf9a2-14d9-70e6-8ea5-db867a20bd2d","019cf99d-e445-78ae-88d0-91fe39b758eb","","320","
                <div class=""stimulus-container"">
                    <img src=""images/semantic_sequence/using_technology_semantic/using_technology_semantic_8.png"" class=""exp-image"">
                    <div class=""question-area"">
                        <p style=""font-size: 20px; font-weight: bold; margin: 0;"">Is there a person in this image?</p>
                    </div>
                </div>","0","main_experiment_trial","8","using_technology_semantic","semantic_sequence","randomized","","","","",""
"","","","","","html-keyboard-response","151","222663","0.0-151.0","A467D381F0E04680A94280A67BCAA70E","019cf9a2-14d9-70e6-8ea5-db867a20bd2d","019cf99d-e445-78ae-88d0-91fe39b758eb","","null","
                <div class=""stimulus-container"">
                    <img src=""images/semantic_sequence/using_technology_semantic/using_technology_semantic_ten.png"" class=""exp-image"">
                    <div class=""question-area""></div> 
                </div>","null","","","","","","","","","",""
"","","","","","html-button-response","152","223378","0.0-152.0","A467D381F0E04680A94280A67BCAA70E","019cf9a2-14d9-70e6-8ea5-db867a20bd2d","019cf99d-e445-78ae-88d0-91fe39b758eb","","714","
                <div class=""stimulus-container"">
                    <img src=""images/semantic_sequence/using_technology_semantic/using_technology_semantic_ten.png"" class=""exp-image"">
                    <div class=""question-area"">
                        <p style=""font-size: 20px; font-weight: bold; margin: 0;"">Is there a person in this image?</p>
                    </div>
                </div>","0","main_experiment_trial","ten","using_technology_semantic","semantic_sequence","randomized","","","","",""
"","","","","","html-keyboard-response","153","224391","0.0-153.0","A467D381F0E04680A94280A67BCAA70E","019cf9a2-14d9-70e6-8ea5-db867a20bd2d","019cf99d-e445-78ae-88d0-91fe39b758eb","","null","
                <div class=""stimulus-container"">
                    <img src=""images/semantic_sequence/using_technology_semantic/using_technology_semantic_5.png"" class=""exp-image"">
                    <div class=""question-area""></div> 
                </div>","null","","","","","","","","","",""
"","","","","","html-button-response","154","225028","0.0-154.0","A467D381F0E04680A94280A67BCAA70E","019cf9a2-14d9-70e6-8ea5-db867a20bd2d","019cf99d-e445-78ae-88d0-91fe39b758eb","","636","
                <div class=""stimulus-container"">
                    <img src=""images/semantic_sequence/using_technology_semantic/using_technology_semantic_5.png"" class=""exp-image"">
                    <div class=""question-area"">
                        <p style=""font-size: 20px; font-weight: bold; margin: 0;"">Is there a person in this image?</p>
                    </div>
                </div>","0","main_experiment_trial","5","using_technology_semantic","semantic_sequence","randomized","","","","",""
"","","","","","html-keyboard-response","155","226039","0.0-155.0","A467D381F0E04680A94280A67BCAA70E","019cf9a2-14d9-70e6-8ea5-db867a20bd2d","019cf99d-e445-78ae-88d0-91fe39b758eb","","null","
                <div class=""stimulus-container"">
                    <img src=""images/semantic_sequence/using_technology_semantic/using_technology_semantic_7.png"" class=""exp-image"">
                    <div class=""question-area""></div> 
                </div>","null","","","","","","","","","",""
"","","","","","html-button-response","156","226610","0.0-156.0","A467D381F0E04680A94280A67BCAA70E","019cf9a2-14d9-70e6-8ea5-db867a20bd2d","019cf99d-e445-78ae-88d0-91fe39b758eb","","571","
                <div class=""stimulus-container"">
                    <img src=""images/semantic_sequence/using_technology_semantic/using_technology_semantic_7.png"" class=""exp-image"">
                    <div class=""question-area"">
                        <p style=""font-size: 20px; font-weight: bold; margin: 0;"">Is there a person in this image?</p>
                    </div>
                </div>","0","main_experiment_trial","7","using_technology_semantic","semantic_sequence","randomized","","","","",""
"","","","","","html-keyboard-response","157","227616","0.0-157.0","A467D381F0E04680A94280A67BCAA70E","019cf9a2-14d9-70e6-8ea5-db867a20bd2d","019cf99d-e445-78ae-88d0-91fe39b758eb","","null","
                <div class=""stimulus-container"">
                    <img src=""images/semantic_sequence/using_technology_semantic/using_technology_semantic_3.png"" class=""exp-image"">
                    <div class=""question-area""></div> 
                </div>","null","","","","","","","","","",""
"","","","","","html-button-response","158","229075","0.0-158.0","A467D381F0E04680A94280A67BCAA70E","019cf9a2-14d9-70e6-8ea5-db867a20bd2d","019cf99d-e445-78ae-88d0-91fe39b758eb","","1458","
                <div class=""stimulus-container"">
                    <img src=""images/semantic_sequence/using_technology_semantic/using_technology_semantic_3.png"" class=""exp-image"">
                    <div class=""question-area"">
                        <p style=""font-size: 20px; font-weight: bold; margin: 0;"">Is there a person in this image?</p>
                    </div>
                </div>","0","main_experiment_trial","3","using_technology_semantic","semantic_sequence","randomized","","","","",""
"","","","","","html-keyboard-response","159","230087","0.0-159.0","A467D381F0E04680A94280A67BCAA70E","019cf9a2-14d9-70e6-8ea5-db867a20bd2d","019cf99d-e445-78ae-88d0-91fe39b758eb","","null","
                <div class=""stimulus-container"">
                    <img src=""images/semantic_sequence/using_technology_semantic/using_technology_semantic_4.png"" class=""exp-image"">
                    <div class=""question-area""></div> 
                </div>","null","","","","","","","","","",""
"","","","","","html-button-response","160","230413","0.0-160.0","A467D381F0E04680A94280A67BCAA70E","019cf9a2-14d9-70e6-8ea5-db867a20bd2d","019cf99d-e445-78ae-88d0-91fe39b758eb","","325","
                <div class=""stimulus-container"">
                    <img src=""images/semantic_sequence/using_technology_semantic/using_technology_semantic_4.png"" class=""exp-image"">
                    <div class=""question-area"">
                        <p style=""font-size: 20px; font-weight: bold; margin: 0;"">Is there a person in this image?</p>
                    </div>
                </div>","0","main_experiment_trial","4","using_technology_semantic","semantic_sequence","randomized","","","","",""
"","","","","","html-keyboard-response","161","231427","0.0-161.0","A467D381F0E04680A94280A67BCAA70E","019cf9a2-14d9-70e6-8ea5-db867a20bd2d","019cf99d-e445-78ae-88d0-91fe39b758eb","","null","
                <div class=""stimulus-container"">
                    <img src=""images/semantic_sequence/using_technology_semantic/using_technology_semantic_9.png"" class=""exp-image"">
                    <div class=""question-area""></div> 
                </div>","null","","","","","","","","","",""
"","","","","","html-button-response","162","231859","0.0-162.0","A467D381F0E04680A94280A67BCAA70E","019cf9a2-14d9-70e6-8ea5-db867a20bd2d","019cf99d-e445-78ae-88d0-91fe39b758eb","","431","
                <div class=""stimulus-container"">
                    <img src=""images/semantic_sequence/using_technology_semantic/using_technology_semantic_9.png"" class=""exp-image"">
                    <div class=""question-area"">
                        <p style=""font-size: 20px; font-weight: bold; margin: 0;"">Is there a person in this image?</p>
                    </div>
                </div>","0","main_experiment_trial","9","using_technology_semantic","semantic_sequence","randomized","","","","",""
"","","","","","html-keyboard-response","163","236875","0.0-163.0","A467D381F0E04680A94280A67BCAA70E","019cf9a2-14d9-70e6-8ea5-db867a20bd2d","019cf99d-e445-78ae-88d0-91fe39b758eb","","null","<div style=""background-color: white; width: 100vw; height: 100vh;""></div>","null","","","","","","","","","",""
"","","","","","html-keyboard-response","164","237882","0.0-164.0","A467D381F0E04680A94280A67BCAA70E","019cf9a2-14d9-70e6-8ea5-db867a20bd2d","019cf99d-e445-78ae-88d0-91fe39b758eb","","null","
                <div class=""stimulus-container"">
                    <img src=""images/causal_sequence/the_performance_causal/the_performance_causal_3.png"" class=""exp-image"">
                    <div class=""question-area""></div> 
                </div>","null","","","","","","","","","",""
"","","","","","html-button-response","165","238394","0.0-165.0","A467D381F0E04680A94280A67BCAA70E","019cf9a2-14d9-70e6-8ea5-db867a20bd2d","019cf99d-e445-78ae-88d0-91fe39b758eb","","511","
                <div class=""stimulus-container"">
                    <img src=""images/causal_sequence/the_performance_causal/the_performance_causal_3.png"" class=""exp-image"">
                    <div class=""question-area"">
                        <p style=""font-size: 20px; font-weight: bold; margin: 0;"">Is there a person in this image?</p>
                    </div>
                </div>","0","main_experiment_trial","3","the_performance_causal","causal_sequence","randomized","","","","",""
"","","","","","html-keyboard-response","166","239397","0.0-166.0","A467D381F0E04680A94280A67BCAA70E","019cf9a2-14d9-70e6-8ea5-db867a20bd2d","019cf99d-e445-78ae-88d0-91fe39b758eb","","null","
                <div class=""stimulus-container"">
                    <img src=""images/causal_sequence/the_performance_causal/the_performance_causal_9.png"" class=""exp-image"">
                    <div class=""question-area""></div> 
                </div>","null","","","","","","","","","",""
"","","","","","html-button-response","167","239910","0.0-167.0","A467D381F0E04680A94280A67BCAA70E","019cf9a2-14d9-70e6-8ea5-db867a20bd2d","019cf99d-e445-78ae-88d0-91fe39b758eb","","513","
                <div class=""stimulus-container"">
                    <img src=""images/causal_sequence/the_performance_causal/the_performance_causal_9.png"" class=""exp-image"">
                    <div class=""question-area"">
                        <p style=""font-size: 20px; font-weight: bold; margin: 0;"">Is there a person in this image?</p>
                    </div>
                </div>","0","main_experiment_trial","9","the_performance_causal","causal_sequence","randomized","","","","",""
"","","","","","html-keyboard-response","168","240924","0.0-168.0","A467D381F0E04680A94280A67BCAA70E","019cf9a2-14d9-70e6-8ea5-db867a20bd2d","019cf99d-e445-78ae-88d0-91fe39b758eb","","null","
                <div class=""stimulus-container"">
                    <img src=""images/causal_sequence/the_performance_causal/the_performance_causal_4.png"" class=""exp-image"">
                    <div class=""question-area""></div> 
                </div>","null","","","","","","","","","",""
"","","","","","html-button-response","169","241528","0.0-169.0","A467D381F0E04680A94280A67BCAA70E","019cf9a2-14d9-70e6-8ea5-db867a20bd2d","019cf99d-e445-78ae-88d0-91fe39b758eb","","603","
                <div class=""stimulus-container"">
                    <img src=""images/causal_sequence/the_performance_causal/the_performance_causal_4.png"" class=""exp-image"">
                    <div class=""question-area"">
                        <p style=""font-size: 20px; font-weight: bold; margin: 0;"">Is there a person in this image?</p>
                    </div>
                </div>","0","main_experiment_trial","4","the_performance_causal","causal_sequence","randomized","","","","",""
"","","","","","html-keyboard-response","170","242535","0.0-170.0","A467D381F0E04680A94280A67BCAA70E","019cf9a2-14d9-70e6-8ea5-db867a20bd2d","019cf99d-e445-78ae-88d0-91fe39b758eb","","null","
                <div class=""stimulus-container"">
                    <img src=""images/causal_sequence/the_performance_causal/the_performance_causal_6.png"" class=""exp-image"">
                    <div class=""question-area""></div> 
                </div>","null","","","","","","","","","",""
"","","","","","html-button-response","171","243091","0.0-171.0","A467D381F0E04680A94280A67BCAA70E","019cf9a2-14d9-70e6-8ea5-db867a20bd2d","019cf99d-e445-78ae-88d0-91fe39b758eb","","555","
                <div class=""stimulus-container"">
                    <img src=""images/causal_sequence/the_performance_causal/the_performance_causal_6.png"" class=""exp-image"">
                    <div class=""question-area"">
                        <p style=""font-size: 20px; font-weight: bold; margin: 0;"">Is there a person in this image?</p>
                    </div>
                </div>","0","main_experiment_trial","6","the_performance_causal","causal_sequence","randomized","","","","",""
"","","","","","html-keyboard-response","172","244098","0.0-172.0","A467D381F0E04680A94280A67BCAA70E","019cf9a2-14d9-70e6-8ea5-db867a20bd2d","019cf99d-e445-78ae-88d0-91fe39b758eb","","null","
                <div class=""stimulus-container"">
                    <img src=""images/causal_sequence/the_performance_causal/the_performance_causal_8.png"" class=""exp-image"">
                    <div class=""question-area""></div> 
                </div>","null","","","","","","","","","",""
"","","","","","html-button-response","173","245295","0.0-173.0","A467D381F0E04680A94280A67BCAA70E","019cf9a2-14d9-70e6-8ea5-db867a20bd2d","019cf99d-e445-78ae-88d0-91fe39b758eb","","1196","
                <div class=""stimulus-container"">
                    <img src=""images/causal_sequence/the_performance_causal/the_performance_causal_8.png"" class=""exp-image"">
                    <div class=""question-area"">
                        <p style=""font-size: 20px; font-weight: bold; margin: 0;"">Is there a person in this image?</p>
                    </div>
                </div>","0","main_experiment_trial","8","the_performance_causal","causal_sequence","randomized","","","","",""
"","","","","","html-keyboard-response","174","246300","0.0-174.0","A467D381F0E04680A94280A67BCAA70E","019cf9a2-14d9-70e6-8ea5-db867a20bd2d","019cf99d-e445-78ae-88d0-91fe39b758eb","","null","
                <div class=""stimulus-container"">
                    <img src=""images/causal_sequence/the_performance_causal/the_performance_causal_7.png"" class=""exp-image"">
                    <div class=""question-area""></div> 
                </div>","null","","","","","","","","","",""
"","","","","","html-button-response","175","246877","0.0-175.0","A467D381F0E04680A94280A67BCAA70E","019cf9a2-14d9-70e6-8ea5-db867a20bd2d","019cf99d-e445-78ae-88d0-91fe39b758eb","","576","
                <div class=""stimulus-container"">
                    <img src=""images/causal_sequence/the_performance_causal/the_performance_causal_7.png"" class=""exp-image"">
                    <div class=""question-area"">
                        <p style=""font-size: 20px; font-weight: bold; margin: 0;"">Is there a person in this image?</p>
                    </div>
                </div>","0","main_experiment_trial","7","the_performance_causal","causal_sequence","randomized","","","","",""
"","","","","","html-keyboard-response","176","247891","0.0-176.0","A467D381F0E04680A94280A67BCAA70E","019cf9a2-14d9-70e6-8ea5-db867a20bd2d","019cf99d-e445-78ae-88d0-91fe39b758eb","","null","
                <div class=""stimulus-container"">
                    <img src=""images/causal_sequence/the_performance_causal/the_performance_causal_1.png"" class=""exp-image"">
                    <div class=""question-area""></div> 
                </div>","null","","","","","","","","","",""
"","","","","","html-button-response","177","248764","0.0-177.0","A467D381F0E04680A94280A67BCAA70E","019cf9a2-14d9-70e6-8ea5-db867a20bd2d","019cf99d-e445-78ae-88d0-91fe39b758eb","","872","
                <div class=""stimulus-container"">
                    <img src=""images/causal_sequence/the_performance_causal/the_performance_causal_1.png"" class=""exp-image"">
                    <div class=""question-area"">
                        <p style=""font-size: 20px; font-weight: bold; margin: 0;"">Is there a person in this image?</p>
                    </div>
                </div>","0","main_experiment_trial","1","the_performance_causal","causal_sequence","randomized","","","","",""
"","","","","","html-keyboard-response","178","249778","0.0-178.0","A467D381F0E04680A94280A67BCAA70E","019cf9a2-14d9-70e6-8ea5-db867a20bd2d","019cf99d-e445-78ae-88d0-91fe39b758eb","","null","
                <div class=""stimulus-container"">
                    <img src=""images/causal_sequence/the_performance_causal/the_performance_causal_5.png"" class=""exp-image"">
                    <div class=""question-area""></div> 
                </div>","null","","","","","","","","","",""
"","","","","","html-button-response","179","251144","0.0-179.0","A467D381F0E04680A94280A67BCAA70E","019cf9a2-14d9-70e6-8ea5-db867a20bd2d","019cf99d-e445-78ae-88d0-91fe39b758eb","","1365","
