"success","timeout","failed_images","failed_audio","failed_video","trial_type","trial_index","time_elapsed","internal_node_id","subject_id","study_id","session_id","view_history","rt","stimulus","response","task","image_index","folder","sequence_type","valuable_image_index","reward_type","correct_choice","chosen_image_index","target_X"
"true","false","[]","[]","[]","preload","0","8687","0.0-0.0","284B9D690EFE44F696E807D55C98299E","019cf526-07cd-742e-bafb-9586398b84c0","019cf509-e3f1-72d9-bf6b-e2f1118fdaab","","","","","","","","","","","","",""
"","","","","","instructions","1","13729","0.0-1.0","284B9D690EFE44F696E807D55C98299E","019cf526-07cd-742e-bafb-9586398b84c0","019cf509-e3f1-72d9-bf6b-e2f1118fdaab","[{""page_index"":0,""viewing_time"":5041}]","5041","","","","","","","","","","",""
"","","","","","instructions","2","19461","0.0-2.0","284B9D690EFE44F696E807D55C98299E","019cf526-07cd-742e-bafb-9586398b84c0","019cf509-e3f1-72d9-bf6b-e2f1118fdaab","[{""page_index"":0,""viewing_time"":5731}]","5731","","","","","","","","","","",""
"true","","","","","fullscreen","3","23314","0.0-3.0","284B9D690EFE44F696E807D55C98299E","019cf526-07cd-742e-bafb-9586398b84c0","019cf509-e3f1-72d9-bf6b-e2f1118fdaab","","2850","","","","","","","","","","",""
"","","","","","instructions","4","34575","0.0-4.0","284B9D690EFE44F696E807D55C98299E","019cf526-07cd-742e-bafb-9586398b84c0","019cf509-e3f1-72d9-bf6b-e2f1118fdaab","[{""page_index"":0,""viewing_time"":11260}]","11260","","","","","","","","","","",""
"","","","","","instructions","5","45430","0.0-5.0","284B9D690EFE44F696E807D55C98299E","019cf526-07cd-742e-bafb-9586398b84c0","019cf509-e3f1-72d9-bf6b-e2f1118fdaab","[{""page_index"":0,""viewing_time"":10855}]","10855","","","","","","","","","","",""
"","","","","","html-keyboard-response","6","49433","0.0-6.0","284B9D690EFE44F696E807D55C98299E","019cf526-07cd-742e-bafb-9586398b84c0","019cf509-e3f1-72d9-bf6b-e2f1118fdaab","","null","
                <div class=""stimulus-container"">
                    <img src=""images/instructions/movie_1.png"" class=""exp-image"">
                    <div class=""question-area""></div> 
                </div>","null","","","","","","","","",""
"","","","","","html-button-response","7","51945","0.0-7.0","284B9D690EFE44F696E807D55C98299E","019cf526-07cd-742e-bafb-9586398b84c0","019cf509-e3f1-72d9-bf6b-e2f1118fdaab","","2510","
                <div class=""stimulus-container"">
                    <img src=""images/instructions/movie_1.png"" class=""exp-image"">
                    <div class=""question-area"">
                        <p style=""font-size: 20px; font-weight: bold; margin: 0;"">Was there a person in this image?</p>
                    </div>
                </div>","0","example_question","1","","","","","","",""
"","","","","","html-keyboard-response","8","55947","0.0-8.0","284B9D690EFE44F696E807D55C98299E","019cf526-07cd-742e-bafb-9586398b84c0","019cf509-e3f1-72d9-bf6b-e2f1118fdaab","","null","
                <div class=""stimulus-container"">
                    <img src=""images/instructions/movie_2.png"" class=""exp-image"">
                    <div class=""question-area""></div> 
                </div>","null","","","","","","","","",""
"","","","","","html-button-response","9","57247","0.0-9.0","284B9D690EFE44F696E807D55C98299E","019cf526-07cd-742e-bafb-9586398b84c0","019cf509-e3f1-72d9-bf6b-e2f1118fdaab","","1298","
                <div class=""stimulus-container"">
                    <img src=""images/instructions/movie_2.png"" class=""exp-image"">
                    <div class=""question-area"">
                        <p style=""font-size: 20px; font-weight: bold; margin: 0;"">Was there a person in this image?</p>
                    </div>
                </div>","1","example_question","2","","","","","","",""
"","","","","","html-keyboard-response","10","61249","0.0-10.0","284B9D690EFE44F696E807D55C98299E","019cf526-07cd-742e-bafb-9586398b84c0","019cf509-e3f1-72d9-bf6b-e2f1118fdaab","","null","
                <div class=""stimulus-container"">
                    <img src=""images/instructions/movie_3.png"" class=""exp-image"">
                    <div class=""question-area""></div> 
                </div>","null","","","","","","","","",""
"","","","","","html-button-response","11","62328","0.0-11.0","284B9D690EFE44F696E807D55C98299E","019cf526-07cd-742e-bafb-9586398b84c0","019cf509-e3f1-72d9-bf6b-e2f1118fdaab","","1077","
                <div class=""stimulus-container"">
                    <img src=""images/instructions/movie_3.png"" class=""exp-image"">
                    <div class=""question-area"">
                        <p style=""font-size: 20px; font-weight: bold; margin: 0;"">Was there a person in this image?</p>
                    </div>
                </div>","0","example_question","3","","","","","","",""
"","","","","","html-keyboard-response","12","66331","0.0-12.0","284B9D690EFE44F696E807D55C98299E","019cf526-07cd-742e-bafb-9586398b84c0","019cf509-e3f1-72d9-bf6b-e2f1118fdaab","","null","
                <div class=""stimulus-container"">
                    <img src=""images/instructions/movie_4.png"" class=""exp-image"">
                    <div class=""question-area""></div> 
                </div>","null","","","","","","","","",""
"","","","","","html-button-response","13","67432","0.0-13.0","284B9D690EFE44F696E807D55C98299E","019cf526-07cd-742e-bafb-9586398b84c0","019cf509-e3f1-72d9-bf6b-e2f1118fdaab","","1100","
                <div class=""stimulus-container"">
                    <img src=""images/instructions/movie_4.png"" class=""exp-image"">
                    <div class=""question-area"">
                        <p style=""font-size: 20px; font-weight: bold; margin: 0;"">Was there a person in this image?</p>
                    </div>
                </div>","0","example_question","4","","","","","","",""
"","","","","","instructions","14","69689","0.0-14.0","284B9D690EFE44F696E807D55C98299E","019cf526-07cd-742e-bafb-9586398b84c0","019cf509-e3f1-72d9-bf6b-e2f1118fdaab","[{""page_index"":0,""viewing_time"":2257}]","2257","","","","","","","","","","",""
"","","","","","instructions","15","78422","0.0-15.0","284B9D690EFE44F696E807D55C98299E","019cf526-07cd-742e-bafb-9586398b84c0","019cf509-e3f1-72d9-bf6b-e2f1118fdaab","[{""page_index"":0,""viewing_time"":8732}]","8732","","","","","","","","","","",""
"","","","","","html-keyboard-response","16","79423","0.0-16.0","284B9D690EFE44F696E807D55C98299E","019cf526-07cd-742e-bafb-9586398b84c0","019cf509-e3f1-72d9-bf6b-e2f1118fdaab","","null","<div style=""background-color: white; width: 100vw; height: 100vh;""></div>","null","","","","","","","","",""
"","","","","","html-keyboard-response","17","84425","0.0-17.0","284B9D690EFE44F696E807D55C98299E","019cf526-07cd-742e-bafb-9586398b84c0","019cf509-e3f1-72d9-bf6b-e2f1118fdaab","","null","
                <div class=""stimulus-container"">
                    <img src=""images/schematic_sequence/restaurant_scheme/restaurant_scheme_1.png"" class=""exp-image"">
                    <div class=""question-area""></div> 
                </div>","null","","","","","","","","",""
"","","","","","html-button-response","18","85497","0.0-18.0","284B9D690EFE44F696E807D55C98299E","019cf526-07cd-742e-bafb-9586398b84c0","019cf509-e3f1-72d9-bf6b-e2f1118fdaab","","1071","
                <div class=""stimulus-container"">
                    <img src=""images/schematic_sequence/restaurant_scheme/restaurant_scheme_1.png"" class=""exp-image"">
                    <div class=""question-area"">
                        <p style=""font-size: 20px; font-weight: bold; margin: 0;"">Is there a person in this image?</p>
                    </div>
                </div>","0","main_experiment_trial","1","restaurant_scheme","schematic_sequence","","","","",""
"","","","","","html-keyboard-response","19","90499","0.0-19.0","284B9D690EFE44F696E807D55C98299E","019cf526-07cd-742e-bafb-9586398b84c0","019cf509-e3f1-72d9-bf6b-e2f1118fdaab","","null","
                <div class=""stimulus-container"">
                    <img src=""images/schematic_sequence/restaurant_scheme/restaurant_scheme_2.png"" class=""exp-image"">
                    <div class=""question-area""></div> 
                </div>","null","","","","","","","","",""
"","","","","","html-button-response","20","91511","0.0-20.0","284B9D690EFE44F696E807D55C98299E","019cf526-07cd-742e-bafb-9586398b84c0","019cf509-e3f1-72d9-bf6b-e2f1118fdaab","","1011","
                <div class=""stimulus-container"">
                    <img src=""images/schematic_sequence/restaurant_scheme/restaurant_scheme_2.png"" class=""exp-image"">
                    <div class=""question-area"">
                        <p style=""font-size: 20px; font-weight: bold; margin: 0;"">Is there a person in this image?</p>
                    </div>
                </div>","1","main_experiment_trial","2","restaurant_scheme","schematic_sequence","","","","",""
"","","","","","html-keyboard-response","21","96513","0.0-21.0","284B9D690EFE44F696E807D55C98299E","019cf526-07cd-742e-bafb-9586398b84c0","019cf509-e3f1-72d9-bf6b-e2f1118fdaab","","null","
                <div class=""stimulus-container"">
                    <img src=""images/schematic_sequence/restaurant_scheme/restaurant_scheme_3.png"" class=""exp-image"">
                    <div class=""question-area""></div> 
                </div>","null","","","","","","","","",""
"","","","","","html-button-response","22","97324","0.0-22.0","284B9D690EFE44F696E807D55C98299E","019cf526-07cd-742e-bafb-9586398b84c0","019cf509-e3f1-72d9-bf6b-e2f1118fdaab","","811","
                <div class=""stimulus-container"">
                    <img src=""images/schematic_sequence/restaurant_scheme/restaurant_scheme_3.png"" class=""exp-image"">
                    <div class=""question-area"">
                        <p style=""font-size: 20px; font-weight: bold; margin: 0;"">Is there a person in this image?</p>
                    </div>
                </div>","1","main_experiment_trial","3","restaurant_scheme","schematic_sequence","","","","",""
"","","","","","html-keyboard-response","23","102326","0.0-23.0","284B9D690EFE44F696E807D55C98299E","019cf526-07cd-742e-bafb-9586398b84c0","019cf509-e3f1-72d9-bf6b-e2f1118fdaab","","null","
                <div class=""stimulus-container"">
                    <img src=""images/schematic_sequence/restaurant_scheme/restaurant_scheme_4.png"" class=""exp-image"">
                    <div class=""question-area""></div> 
                </div>","null","","","","","","","","",""
"","","","","","html-button-response","24","103168","0.0-24.0","284B9D690EFE44F696E807D55C98299E","019cf526-07cd-742e-bafb-9586398b84c0","019cf509-e3f1-72d9-bf6b-e2f1118fdaab","","841","
                <div class=""stimulus-container"">
                    <img src=""images/schematic_sequence/restaurant_scheme/restaurant_scheme_4.png"" class=""exp-image"">
                    <div class=""question-area"">
                        <p style=""font-size: 20px; font-weight: bold; margin: 0;"">Is there a person in this image?</p>
                    </div>
                </div>","0","main_experiment_trial","4","restaurant_scheme","schematic_sequence","","","","",""
"","","","","","html-keyboard-response","25","108171","0.0-25.0","284B9D690EFE44F696E807D55C98299E","019cf526-07cd-742e-bafb-9586398b84c0","019cf509-e3f1-72d9-bf6b-e2f1118fdaab","","null","
                <div class=""stimulus-container"">
                    <img src=""images/schematic_sequence/restaurant_scheme/restaurant_scheme_5.png"" class=""exp-image"">
                    <div class=""question-area""></div> 
                </div>","null","","","","","","","","",""
"","","","","","html-button-response","26","109331","0.0-26.0","284B9D690EFE44F696E807D55C98299E","019cf526-07cd-742e-bafb-9586398b84c0","019cf509-e3f1-72d9-bf6b-e2f1118fdaab","","1159","
                <div class=""stimulus-container"">
                    <img src=""images/schematic_sequence/restaurant_scheme/restaurant_scheme_5.png"" class=""exp-image"">
                    <div class=""question-area"">
                        <p style=""font-size: 20px; font-weight: bold; margin: 0;"">Is there a person in this image?</p>
                    </div>
                </div>","0","main_experiment_trial","5","restaurant_scheme","schematic_sequence","","","","",""
"","","","","","html-keyboard-response","27","114334","0.0-27.0","284B9D690EFE44F696E807D55C98299E","019cf526-07cd-742e-bafb-9586398b84c0","019cf509-e3f1-72d9-bf6b-e2f1118fdaab","","null","
                <div class=""stimulus-container"">
                    <img src=""images/schematic_sequence/restaurant_scheme/restaurant_scheme_6.png"" class=""exp-image"">
                    <div class=""question-area""></div> 
                </div>","null","","","","","","","","",""
"","","","","","html-button-response","28","115252","0.0-28.0","284B9D690EFE44F696E807D55C98299E","019cf526-07cd-742e-bafb-9586398b84c0","019cf509-e3f1-72d9-bf6b-e2f1118fdaab","","917","
                <div class=""stimulus-container"">
                    <img src=""images/schematic_sequence/restaurant_scheme/restaurant_scheme_6.png"" class=""exp-image"">
                    <div class=""question-area"">
                        <p style=""font-size: 20px; font-weight: bold; margin: 0;"">Is there a person in this image?</p>
                    </div>
                </div>","1","main_experiment_trial","6","restaurant_scheme","schematic_sequence","","","","",""
"","","","","","html-keyboard-response","29","120254","0.0-29.0","284B9D690EFE44F696E807D55C98299E","019cf526-07cd-742e-bafb-9586398b84c0","019cf509-e3f1-72d9-bf6b-e2f1118fdaab","","null","
                <div class=""stimulus-container"">
                    <img src=""images/schematic_sequence/restaurant_scheme/restaurant_scheme_7.png"" class=""exp-image"">
                    <div class=""question-area""></div> 
                </div>","null","","","","","","","","",""
"","","","","","html-button-response","30","121196","0.0-30.0","284B9D690EFE44F696E807D55C98299E","019cf526-07cd-742e-bafb-9586398b84c0","019cf509-e3f1-72d9-bf6b-e2f1118fdaab","","941","
                <div class=""stimulus-container"">
                    <img src=""images/schematic_sequence/restaurant_scheme/restaurant_scheme_7.png"" class=""exp-image"">
                    <div class=""question-area"">
                        <p style=""font-size: 20px; font-weight: bold; margin: 0;"">Is there a person in this image?</p>
                    </div>
                </div>","1","main_experiment_trial","7","restaurant_scheme","schematic_sequence","","","","",""
"","","","","","html-keyboard-response","31","126198","0.0-31.0","284B9D690EFE44F696E807D55C98299E","019cf526-07cd-742e-bafb-9586398b84c0","019cf509-e3f1-72d9-bf6b-e2f1118fdaab","","null","
                <div class=""stimulus-container"">
                    <img src=""images/schematic_sequence/restaurant_scheme/restaurant_scheme_8.png"" class=""exp-image"">
                    <div class=""question-area""></div> 
                </div>","null","","","","","","","","",""
"","","","","","html-button-response","32","127635","0.0-32.0","284B9D690EFE44F696E807D55C98299E","019cf526-07cd-742e-bafb-9586398b84c0","019cf509-e3f1-72d9-bf6b-e2f1118fdaab","","1436","
                <div class=""stimulus-container"">
                    <img src=""images/schematic_sequence/restaurant_scheme/restaurant_scheme_8.png"" class=""exp-image"">
                    <div class=""question-area"">
                        <p style=""font-size: 20px; font-weight: bold; margin: 0;"">Is there a person in this image?</p>
                    </div>
                </div>","0","main_experiment_trial","8","restaurant_scheme","schematic_sequence","","","","",""
"","","","","","html-keyboard-response","33","132638","0.0-33.0","284B9D690EFE44F696E807D55C98299E","019cf526-07cd-742e-bafb-9586398b84c0","019cf509-e3f1-72d9-bf6b-e2f1118fdaab","","null","
                <div class=""stimulus-container"">
                    <img src=""images/schematic_sequence/restaurant_scheme/restaurant_scheme_9.png"" class=""exp-image"">
                    <div class=""question-area""></div> 
                </div>","null","","","","","","","","",""
"","","","","","html-button-response","34","133866","0.0-34.0","284B9D690EFE44F696E807D55C98299E","019cf526-07cd-742e-bafb-9586398b84c0","019cf509-e3f1-72d9-bf6b-e2f1118fdaab","","1227","
                <div class=""stimulus-container"">
                    <img src=""images/schematic_sequence/restaurant_scheme/restaurant_scheme_9.png"" class=""exp-image"">
                    <div class=""question-area"">
                        <p style=""font-size: 20px; font-weight: bold; margin: 0;"">Is there a person in this image?</p>
                    </div>
                </div>","0","main_experiment_trial","9","restaurant_scheme","schematic_sequence","","","","",""
"","","","","","html-keyboard-response","35","138869","0.0-35.0","284B9D690EFE44F696E807D55C98299E","019cf526-07cd-742e-bafb-9586398b84c0","019cf509-e3f1-72d9-bf6b-e2f1118fdaab","","null","
                <div class=""stimulus-container"">
                    <img src=""images/schematic_sequence/restaurant_scheme/restaurant_scheme_ten.png"" class=""exp-image"">
                    <div class=""question-area""></div> 
                </div>","null","","","","","","","","",""
"","","","","","html-button-response","36","139846","0.0-36.0","284B9D690EFE44F696E807D55C98299E","019cf526-07cd-742e-bafb-9586398b84c0","019cf509-e3f1-72d9-bf6b-e2f1118fdaab","","976","
                <div class=""stimulus-container"">
                    <img src=""images/schematic_sequence/restaurant_scheme/restaurant_scheme_ten.png"" class=""exp-image"">
                    <div class=""question-area"">
                        <p style=""font-size: 20px; font-weight: bold; margin: 0;"">Is there a person in this image?</p>
                    </div>
                </div>","0","main_experiment_trial","ten","restaurant_scheme","schematic_sequence","","","","",""
"","","","","","html-keyboard-response","37","140848","0.0-37.0","284B9D690EFE44F696E807D55C98299E","019cf526-07cd-742e-bafb-9586398b84c0","019cf509-e3f1-72d9-bf6b-e2f1118fdaab","","null","<div style=""background-color: white; width: 100vw; height: 100vh;""></div>","null","","","","","","","","",""
"","","","","","html-keyboard-response","38","145850","0.0-38.0","284B9D690EFE44F696E807D55C98299E","019cf526-07cd-742e-bafb-9586398b84c0","019cf509-e3f1-72d9-bf6b-e2f1118fdaab","","null","
                <div class=""stimulus-container"">
                    <img src=""images/causal_sequence/dog_causal/dog_causal_1.png"" class=""exp-image"">
                    <div class=""question-area""></div> 
                </div>","null","","","","","","","","",""
"","","","","","html-button-response","39","146832","0.0-39.0","284B9D690EFE44F696E807D55C98299E","019cf526-07cd-742e-bafb-9586398b84c0","019cf509-e3f1-72d9-bf6b-e2f1118fdaab","","981","
                <div class=""stimulus-container"">
                    <img src=""images/causal_sequence/dog_causal/dog_causal_1.png"" class=""exp-image"">
                    <div class=""question-area"">
                        <p style=""font-size: 20px; font-weight: bold; margin: 0;"">Is there a person in this image?</p>
                    </div>
                </div>","0","main_experiment_trial","1","dog_causal","causal_sequence","","","","",""
"","","","","","html-keyboard-response","40","151835","0.0-40.0","284B9D690EFE44F696E807D55C98299E","019cf526-07cd-742e-bafb-9586398b84c0","019cf509-e3f1-72d9-bf6b-e2f1118fdaab","","null","
                <div class=""stimulus-container"">
                    <img src=""images/causal_sequence/dog_causal/dog_causal_2.png"" class=""exp-image"">
                    <div class=""question-area""></div> 
                </div>","null","","","","","","","","",""
"","","","","","html-button-response","41","153032","0.0-41.0","284B9D690EFE44F696E807D55C98299E","019cf526-07cd-742e-bafb-9586398b84c0","019cf509-e3f1-72d9-bf6b-e2f1118fdaab","","1196","
                <div class=""stimulus-container"">
                    <img src=""images/causal_sequence/dog_causal/dog_causal_2.png"" class=""exp-image"">
                    <div class=""question-area"">
                        <p style=""font-size: 20px; font-weight: bold; margin: 0;"">Is there a person in this image?</p>
                    </div>
                </div>","0","main_experiment_trial","2","dog_causal","causal_sequence","","","","",""
"","","","","","html-keyboard-response","42","158034","0.0-42.0","284B9D690EFE44F696E807D55C98299E","019cf526-07cd-742e-bafb-9586398b84c0","019cf509-e3f1-72d9-bf6b-e2f1118fdaab","","null","
                <div class=""stimulus-container"">
                    <img src=""images/causal_sequence/dog_causal/dog_causal_3.png"" class=""exp-image"">
                    <div class=""question-area""></div> 
                </div>","null","","","","","","","","",""
"","","","","","html-button-response","43","159162","0.0-43.0","284B9D690EFE44F696E807D55C98299E","019cf526-07cd-742e-bafb-9586398b84c0","019cf509-e3f1-72d9-bf6b-e2f1118fdaab","","1126","
                <div class=""stimulus-container"">
                    <img src=""images/causal_sequence/dog_causal/dog_causal_3.png"" class=""exp-image"">
                    <div class=""question-area"">
                        <p style=""font-size: 20px; font-weight: bold; margin: 0;"">Is there a person in this image?</p>
                    </div>
                </div>","0","main_experiment_trial","3","dog_causal","causal_sequence","","","","",""
"","","","","","html-keyboard-response","44","164164","0.0-44.0","284B9D690EFE44F696E807D55C98299E","019cf526-07cd-742e-bafb-9586398b84c0","019cf509-e3f1-72d9-bf6b-e2f1118fdaab","","null","
                <div class=""stimulus-container"">
                    <img src=""images/causal_sequence/dog_causal/dog_causal_4.png"" class=""exp-image"">
                    <div class=""question-area""></div> 
                </div>","null","","","","","","","","",""
"","","","","","html-button-response","45","165058","0.0-45.0","284B9D690EFE44F696E807D55C98299E","019cf526-07cd-742e-bafb-9586398b84c0","019cf509-e3f1-72d9-bf6b-e2f1118fdaab","","893","
                <div class=""stimulus-container"">
                    <img src=""images/causal_sequence/dog_causal/dog_causal_4.png"" class=""exp-image"">
                    <div class=""question-area"">
                        <p style=""font-size: 20px; font-weight: bold; margin: 0;"">Is there a person in this image?</p>
                    </div>
                </div>","0","main_experiment_trial","4","dog_causal","causal_sequence","","","","",""
"","","","","","html-keyboard-response","46","170061","0.0-46.0","284B9D690EFE44F696E807D55C98299E","019cf526-07cd-742e-bafb-9586398b84c0","019cf509-e3f1-72d9-bf6b-e2f1118fdaab","","null","
                <div class=""stimulus-container"">
                    <img src=""images/causal_sequence/dog_causal/dog_causal_5.png"" class=""exp-image"">
                    <div class=""question-area""></div> 
                </div>","null","","","","","","","","",""
"","","","","","html-button-response","47","171669","0.0-47.0","284B9D690EFE44F696E807D55C98299E","019cf526-07cd-742e-bafb-9586398b84c0","019cf509-e3f1-72d9-bf6b-e2f1118fdaab","","1607","
                <div class=""stimulus-container"">
                    <img src=""images/causal_sequence/dog_causal/dog_causal_5.png"" class=""exp-image"">
                    <div class=""question-area"">
                        <p style=""font-size: 20px; font-weight: bold; margin: 0;"">Is there a person in this image?</p>
                    </div>
                </div>","0","main_experiment_trial","5","dog_causal","causal_sequence","","","","",""
"","","","","","html-keyboard-response","48","176671","0.0-48.0","284B9D690EFE44F696E807D55C98299E","019cf526-07cd-742e-bafb-9586398b84c0","019cf509-e3f1-72d9-bf6b-e2f1118fdaab","","null","
                <div class=""stimulus-container"">
                    <img src=""images/causal_sequence/dog_causal/dog_causal_6.png"" class=""exp-image"">
                    <div class=""question-area""></div> 
                </div>","null","","","","","","","","",""
"","","","","","html-button-response","49","178108","0.0-49.0","284B9D690EFE44F696E807D55C98299E","019cf526-07cd-742e-bafb-9586398b84c0","019cf509-e3f1-72d9-bf6b-e2f1118fdaab","","1435","
                <div class=""stimulus-container"">
                    <img src=""images/causal_sequence/dog_causal/dog_causal_6.png"" class=""exp-image"">
                    <div class=""question-area"">
                        <p style=""font-size: 20px; font-weight: bold; margin: 0;"">Is there a person in this image?</p>
                    </div>
                </div>","0","main_experiment_trial","6","dog_causal","causal_sequence","","","","",""
"","","","","","html-keyboard-response","50","183110","0.0-50.0","284B9D690EFE44F696E807D55C98299E","019cf526-07cd-742e-bafb-9586398b84c0","019cf509-e3f1-72d9-bf6b-e2f1118fdaab","","null","
                <div class=""stimulus-container"">
                    <img src=""images/causal_sequence/dog_causal/dog_causal_7.png"" class=""exp-image"">
                    <div class=""question-area""></div> 
                </div>","null","","","","","","","","",""
"","","","","","html-button-response","51","184046","0.0-51.0","284B9D690EFE44F696E807D55C98299E","019cf526-07cd-742e-bafb-9586398b84c0","019cf509-e3f1-72d9-bf6b-e2f1118fdaab","","935","
                <div class=""stimulus-container"">
                    <img src=""images/causal_sequence/dog_causal/dog_causal_7.png"" class=""exp-image"">
                    <div class=""question-area"">
                        <p style=""font-size: 20px; font-weight: bold; margin: 0;"">Is there a person in this image?</p>
                    </div>
                </div>","0","main_experiment_trial","7","dog_causal","causal_sequence","","","","",""
"","","","","","html-keyboard-response","52","189048","0.0-52.0","284B9D690EFE44F696E807D55C98299E","019cf526-07cd-742e-bafb-9586398b84c0","019cf509-e3f1-72d9-bf6b-e2f1118fdaab","","null","
                <div class=""stimulus-container"">
                    <img src=""images/causal_sequence/dog_causal/dog_causal_8.png"" class=""exp-image"">
                    <div class=""question-area""></div> 
                </div>","null","","","","","","","","",""
"","","","","","html-button-response","53","189985","0.0-53.0","284B9D690EFE44F696E807D55C98299E","019cf526-07cd-742e-bafb-9586398b84c0","019cf509-e3f1-72d9-bf6b-e2f1118fdaab","","935","
                <div class=""stimulus-container"">
                    <img src=""images/causal_sequence/dog_causal/dog_causal_8.png"" class=""exp-image"">
                    <div class=""question-area"">
                        <p style=""font-size: 20px; font-weight: bold; margin: 0;"">Is there a person in this image?</p>
                    </div>
                </div>","0","main_experiment_trial","8","dog_causal","causal_sequence","","","","",""
"","","","","","html-keyboard-response","54","194986","0.0-54.0","284B9D690EFE44F696E807D55C98299E","019cf526-07cd-742e-bafb-9586398b84c0","019cf509-e3f1-72d9-bf6b-e2f1118fdaab","","null","
                <div class=""stimulus-container"">
                    <img src=""images/causal_sequence/dog_causal/dog_causal_9.png"" class=""exp-image"">
                    <div class=""question-area""></div> 
                </div>","null","","","","","","","","",""
"","","","","","html-button-response","55","196365","0.0-55.0","284B9D690EFE44F696E807D55C98299E","019cf526-07cd-742e-bafb-9586398b84c0","019cf509-e3f1-72d9-bf6b-e2f1118fdaab","","1379","
                <div class=""stimulus-container"">
                    <img src=""images/causal_sequence/dog_causal/dog_causal_9.png"" class=""exp-image"">
                    <div class=""question-area"">
                        <p style=""font-size: 20px; font-weight: bold; margin: 0;"">Is there a person in this image?</p>
                    </div>
                </div>","0","main_experiment_trial","9","dog_causal","causal_sequence","","","","",""
"","","","","","html-keyboard-response","56","201367","0.0-56.0","284B9D690EFE44F696E807D55C98299E","019cf526-07cd-742e-bafb-9586398b84c0","019cf509-e3f1-72d9-bf6b-e2f1118fdaab","","null","
                <div class=""stimulus-container"">
                    <img src=""images/causal_sequence/dog_causal/dog_causal_ten.png"" class=""exp-image"">
                    <div class=""question-area""></div> 
                </div>","null","","","","","","","","",""
"","","","","","html-button-response","57","202400","0.0-57.0","284B9D690EFE44F696E807D55C98299E","019cf526-07cd-742e-bafb-9586398b84c0","019cf509-e3f1-72d9-bf6b-e2f1118fdaab","","1032","
                <div class=""stimulus-container"">
                    <img src=""images/causal_sequence/dog_causal/dog_causal_ten.png"" class=""exp-image"">
                    <div class=""question-area"">
                        <p style=""font-size: 20px; font-weight: bold; margin: 0;"">Is there a person in this image?</p>
                    </div>
                </div>","0","main_experiment_trial","ten","dog_causal","causal_sequence","","","","",""
"","","","","","html-keyboard-response","58","203402","0.0-58.0","284B9D690EFE44F696E807D55C98299E","019cf526-07cd-742e-bafb-9586398b84c0","019cf509-e3f1-72d9-bf6b-e2f1118fdaab","","null","<div style=""background-color: white; width: 100vw; height: 100vh;""></div>","null","","","","","","","","",""
"","","","","","html-keyboard-response","59","208404","0.0-59.0","284B9D690EFE44F696E807D55C98299E","019cf526-07cd-742e-bafb-9586398b84c0","019cf509-e3f1-72d9-bf6b-e2f1118fdaab","","null","
                <div class=""stimulus-container"">
                    <img src=""images/schematic_sequence/dinner_party_scheme/dinner_party_scheme_1.png"" class=""exp-image"">
                    <div class=""question-area""></div> 
                </div>","null","","","","","","","","",""
"","","","","","html-button-response","60","209672","0.0-60.0","284B9D690EFE44F696E807D55C98299E","019cf526-07cd-742e-bafb-9586398b84c0","019cf509-e3f1-72d9-bf6b-e2f1118fdaab","","1267","
                <div class=""stimulus-container"">
                    <img src=""images/schematic_sequence/dinner_party_scheme/dinner_party_scheme_1.png"" class=""exp-image"">
                    <div class=""question-area"">
                        <p style=""font-size: 20px; font-weight: bold; margin: 0;"">Is there a person in this image?</p>
                    </div>
                </div>","0","main_experiment_trial","1","dinner_party_scheme","schematic_sequence","","","","",""
"","","","","","html-keyboard-response","61","214675","0.0-61.0","284B9D690EFE44F696E807D55C98299E","019cf526-07cd-742e-bafb-9586398b84c0","019cf509-e3f1-72d9-bf6b-e2f1118fdaab","","null","
                <div class=""stimulus-container"">
                    <img src=""images/schematic_sequence/dinner_party_scheme/dinner_party_scheme_2.png"" class=""exp-image"">
                    <div class=""question-area""></div> 
                </div>","null","","","","","","","","",""
"","","","","","html-button-response","62","215880","0.0-62.0","284B9D690EFE44F696E807D55C98299E","019cf526-07cd-742e-bafb-9586398b84c0","019cf509-e3f1-72d9-bf6b-e2f1118fdaab","","1204","
                <div class=""stimulus-container"">
                    <img src=""images/schematic_sequence/dinner_party_scheme/dinner_party_scheme_2.png"" class=""exp-image"">
                    <div class=""question-area"">
                        <p style=""font-size: 20px; font-weight: bold; margin: 0;"">Is there a person in this image?</p>
                    </div>
                </div>","0","main_experiment_trial","2","dinner_party_scheme","schematic_sequence","","","","",""
"","","","","","html-keyboard-response","63","220882","0.0-63.0","284B9D690EFE44F696E807D55C98299E","019cf526-07cd-742e-bafb-9586398b84c0","019cf509-e3f1-72d9-bf6b-e2f1118fdaab","","null","
                <div class=""stimulus-container"">
                    <img src=""images/schematic_sequence/dinner_party_scheme/dinner_party_scheme_3.png"" class=""exp-image"">
                    <div class=""question-area""></div> 
                </div>","null","","","","","","","","",""
"","","","","","html-button-response","64","221855","0.0-64.0","284B9D690EFE44F696E807D55C98299E","019cf526-07cd-742e-bafb-9586398b84c0","019cf509-e3f1-72d9-bf6b-e2f1118fdaab","","973","
                <div class=""stimulus-container"">
                    <img src=""images/schematic_sequence/dinner_party_scheme/dinner_party_scheme_3.png"" class=""exp-image"">
                    <div class=""question-area"">
                        <p style=""font-size: 20px; font-weight: bold; margin: 0;"">Is there a person in this image?</p>
                    </div>
                </div>","0","main_experiment_trial","3","dinner_party_scheme","schematic_sequence","","","","",""
"","","","","","html-keyboard-response","65","226857","0.0-65.0","284B9D690EFE44F696E807D55C98299E","019cf526-07cd-742e-bafb-9586398b84c0","019cf509-e3f1-72d9-bf6b-e2f1118fdaab","","null","
                <div class=""stimulus-container"">
                    <img src=""images/schematic_sequence/dinner_party_scheme/dinner_party_scheme_4.png"" class=""exp-image"">
                    <div class=""question-area""></div> 
                </div>","null","","","","","","","","",""
"","","","","","html-button-response","66","227600","0.0-66.0","284B9D690EFE44F696E807D55C98299E","019cf526-07cd-742e-bafb-9586398b84c0","019cf509-e3f1-72d9-bf6b-e2f1118fdaab","","742","
                <div class=""stimulus-container"">
                    <img src=""images/schematic_sequence/dinner_party_scheme/dinner_party_scheme_4.png"" class=""exp-image"">
                    <div class=""question-area"">
                        <p style=""font-size: 20px; font-weight: bold; margin: 0;"">Is there a person in this image?</p>
                    </div>
                </div>","0","main_experiment_trial","4","dinner_party_scheme","schematic_sequence","","","","",""
"","","","","","html-keyboard-response","67","232601","0.0-67.0","284B9D690EFE44F696E807D55C98299E","019cf526-07cd-742e-bafb-9586398b84c0","019cf509-e3f1-72d9-bf6b-e2f1118fdaab","","null","
                <div class=""stimulus-container"">
                    <img src=""images/schematic_sequence/dinner_party_scheme/dinner_party_scheme_5.png"" class=""exp-image"">
                    <div class=""question-area""></div> 
                </div>","null","","","","","","","","",""
"","","","","","html-button-response","68","233593","0.0-68.0","284B9D690EFE44F696E807D55C98299E","019cf526-07cd-742e-bafb-9586398b84c0","019cf509-e3f1-72d9-bf6b-e2f1118fdaab","","991","
                <div class=""stimulus-container"">
                    <img src=""images/schematic_sequence/dinner_party_scheme/dinner_party_scheme_5.png"" class=""exp-image"">
                    <div class=""question-area"">
                        <p style=""font-size: 20px; font-weight: bold; margin: 0;"">Is there a person in this image?</p>
                    </div>
                </div>","0","main_experiment_trial","5","dinner_party_scheme","schematic_sequence","","","","",""
"","","","","","html-keyboard-response","69","238594","0.0-69.0","284B9D690EFE44F696E807D55C98299E","019cf526-07cd-742e-bafb-9586398b84c0","019cf509-e3f1-72d9-bf6b-e2f1118fdaab","","null","
                <div class=""stimulus-container"">
                    <img src=""images/schematic_sequence/dinner_party_scheme/dinner_party_scheme_6.png"" class=""exp-image"">
                    <div class=""question-area""></div> 
                </div>","null","","","","","","","","",""
"","","","","","html-button-response","70","239248","0.0-70.0","284B9D690EFE44F696E807D55C98299E","019cf526-07cd-742e-bafb-9586398b84c0","019cf509-e3f1-72d9-bf6b-e2f1118fdaab","","653","
                <div class=""stimulus-container"">
                    <img src=""images/schematic_sequence/dinner_party_scheme/dinner_party_scheme_6.png"" class=""exp-image"">
                    <div class=""question-area"">
                        <p style=""font-size: 20px; font-weight: bold; margin: 0;"">Is there a person in this image?</p>
                    </div>
                </div>","0","main_experiment_trial","6","dinner_party_scheme","schematic_sequence","","","","",""
"","","","","","html-keyboard-response","71","244249","0.0-71.0","284B9D690EFE44F696E807D55C98299E","019cf526-07cd-742e-bafb-9586398b84c0","019cf509-e3f1-72d9-bf6b-e2f1118fdaab","","null","
                <div class=""stimulus-container"">
                    <img src=""images/schematic_sequence/dinner_party_scheme/dinner_party_scheme_7.png"" class=""exp-image"">
                    <div class=""question-area""></div> 
                </div>","null","","","","","","","","",""
"","","","","","html-button-response","72","244768","0.0-72.0","284B9D690EFE44F696E807D55C98299E","019cf526-07cd-742e-bafb-9586398b84c0","019cf509-e3f1-72d9-bf6b-e2f1118fdaab","","519","
                <div class=""stimulus-container"">
                    <img src=""images/schematic_sequence/dinner_party_scheme/dinner_party_scheme_7.png"" class=""exp-image"">
                    <div class=""question-area"">
                        <p style=""font-size: 20px; font-weight: bold; margin: 0;"">Is there a person in this image?</p>
                    </div>
                </div>","0","main_experiment_trial","7","dinner_party_scheme","schematic_sequence","","","","",""
"","","","","","html-keyboard-response","73","249770","0.0-73.0","284B9D690EFE44F696E807D55C98299E","019cf526-07cd-742e-bafb-9586398b84c0","019cf509-e3f1-72d9-bf6b-e2f1118fdaab","","null","
                <div class=""stimulus-container"">
                    <img src=""images/schematic_sequence/dinner_party_scheme/dinner_party_scheme_8.png"" class=""exp-image"">
                    <div class=""question-area""></div> 
                </div>","null","","","","","","","","",""
"","","","","","html-button-response","74","250878","0.0-74.0","284B9D690EFE44F696E807D55C98299E","019cf526-07cd-742e-bafb-9586398b84c0","019cf509-e3f1-72d9-bf6b-e2f1118fdaab","","1107","
                <div class=""stimulus-container"">
                    <img src=""images/schematic_sequence/dinner_party_scheme/dinner_party_scheme_8.png"" class=""exp-image"">
                    <div class=""question-area"">
                        <p style=""font-size: 20px; font-weight: bold; margin: 0;"">Is there a person in this image?</p>
                    </div>
                </div>","0","main_experiment_trial","8","dinner_party_scheme","schematic_sequence","","","","",""
"","","","","","html-keyboard-response","75","255881","0.0-75.0","284B9D690EFE44F696E807D55C98299E","019cf526-07cd-742e-bafb-9586398b84c0","019cf509-e3f1-72d9-bf6b-e2f1118fdaab","","null","
                <div class=""stimulus-container"">
                    <img src=""images/schematic_sequence/dinner_party_scheme/dinner_party_scheme_9.png"" class=""exp-image"">
                    <div class=""question-area""></div> 
                </div>","null","","","","","","","","",""
"","","","","","html-button-response","76","256540","0.0-76.0","284B9D690EFE44F696E807D55C98299E","019cf526-07cd-742e-bafb-9586398b84c0","019cf509-e3f1-72d9-bf6b-e2f1118fdaab","","657","
                <div class=""stimulus-container"">
                    <img src=""images/schematic_sequence/dinner_party_scheme/dinner_party_scheme_9.png"" class=""exp-image"">
                    <div class=""question-area"">
                        <p style=""font-size: 20px; font-weight: bold; margin: 0;"">Is there a person in this image?</p>
                    </div>
                </div>","0","main_experiment_trial","9","dinner_party_scheme","schematic_sequence","","","","",""
"","","","","","html-keyboard-response","77","261542","0.0-77.0","284B9D690EFE44F696E807D55C98299E","019cf526-07cd-742e-bafb-9586398b84c0","019cf509-e3f1-72d9-bf6b-e2f1118fdaab","","null","
                <div class=""stimulus-container"">
                    <img src=""images/schematic_sequence/dinner_party_scheme/dinner_party_scheme_ten.png"" class=""exp-image"">
                    <div class=""question-area""></div> 
                </div>","null","","","","","","","","",""
"","","","","","html-button-response","78","262834","0.0-78.0","284B9D690EFE44F696E807D55C98299E","019cf526-07cd-742e-bafb-9586398b84c0","019cf509-e3f1-72d9-bf6b-e2f1118fdaab","","1290","
                <div class=""stimulus-container"">
                    <img src=""images/schematic_sequence/dinner_party_scheme/dinner_party_scheme_ten.png"" class=""exp-image"">
                    <div class=""question-area"">
                        <p style=""font-size: 20px; font-weight: bold; margin: 0;"">Is there a person in this image?</p>
                    </div>
                </div>","0","main_experiment_trial","ten","dinner_party_scheme","schematic_sequence","","","","",""
"","","","","","html-keyboard-response","79","263836","0.0-79.0","284B9D690EFE44F696E807D55C98299E","019cf526-07cd-742e-bafb-9586398b84c0","019cf509-e3f1-72d9-bf6b-e2f1118fdaab","","null","<div style=""background-color: white; width: 100vw; height: 100vh;""></div>","null","","","","","","","","",""
"","","","","","html-keyboard-response","80","268839","0.0-80.0","284B9D690EFE44F696E807D55C98299E","019cf526-07cd-742e-bafb-9586398b84c0","019cf509-e3f1-72d9-bf6b-e2f1118fdaab","","null","
                <div class=""stimulus-container"">
                    <img src=""images/schematic_sequence/supermarket_scheme/supermarket_scheme_1.png"" class=""exp-image"">
                    <div class=""question-area""></div> 
                </div>","null","","","","","","","","",""
"","","","","","html-button-response","81","269898","0.0-81.0","284B9D690EFE44F696E807D55C98299E","019cf526-07cd-742e-bafb-9586398b84c0","019cf509-e3f1-72d9-bf6b-e2f1118fdaab","","1058","
                <div class=""stimulus-container"">
                    <img src=""images/schematic_sequence/supermarket_scheme/supermarket_scheme_1.png"" class=""exp-image"">
                    <div class=""question-area"">
                        <p style=""font-size: 20px; font-weight: bold; margin: 0;"">Is there a person in this image?</p>
                    </div>
                </div>","1","main_experiment_trial","1","supermarket_scheme","schematic_sequence","","","","",""
"","","","","","html-keyboard-response","82","274899","0.0-82.0","284B9D690EFE44F696E807D55C98299E","019cf526-07cd-742e-bafb-9586398b84c0","019cf509-e3f1-72d9-bf6b-e2f1118fdaab","","null","
                <div class=""stimulus-container"">
                    <img src=""images/schematic_sequence/supermarket_scheme/supermarket_scheme_2.png"" class=""exp-image"">
                    <div class=""question-area""></div> 
                </div>","null","","","","","","","","",""
"","","","","","html-button-response","83","275874","0.0-83.0","284B9D690EFE44F696E807D55C98299E","019cf526-07cd-742e-bafb-9586398b84c0","019cf509-e3f1-72d9-bf6b-e2f1118fdaab","","974","
                <div class=""stimulus-container"">
                    <img src=""images/schematic_sequence/supermarket_scheme/supermarket_scheme_2.png"" class=""exp-image"">
                    <div class=""question-area"">
                        <p style=""font-size: 20px; font-weight: bold; margin: 0;"">Is there a person in this image?</p>
                    </div>
                </div>","1","main_experiment_trial","2","supermarket_scheme","schematic_sequence","","","","",""
"","","","","","html-keyboard-response","84","280875","0.0-84.0","284B9D690EFE44F696E807D55C98299E","019cf526-07cd-742e-bafb-9586398b84c0","019cf509-e3f1-72d9-bf6b-e2f1118fdaab","","null","
                <div class=""stimulus-container"">
                    <img src=""images/schematic_sequence/supermarket_scheme/supermarket_scheme_3.png"" class=""exp-image"">
                    <div class=""question-area""></div> 
                </div>","null","","","","","","","","",""
"","","","","","html-button-response","85","281865","0.0-85.0","284B9D690EFE44F696E807D55C98299E","019cf526-07cd-742e-bafb-9586398b84c0","019cf509-e3f1-72d9-bf6b-e2f1118fdaab","","989","
                <div class=""stimulus-container"">
                    <img src=""images/schematic_sequence/supermarket_scheme/supermarket_scheme_3.png"" class=""exp-image"">
                    <div class=""question-area"">
                        <p style=""font-size: 20px; font-weight: bold; margin: 0;"">Is there a person in this image?</p>
                    </div>
                </div>","1","main_experiment_trial","3","supermarket_scheme","schematic_sequence","","","","",""
"","","","","","html-keyboard-response","86","286866","0.0-86.0","284B9D690EFE44F696E807D55C98299E","019cf526-07cd-742e-bafb-9586398b84c0","019cf509-e3f1-72d9-bf6b-e2f1118fdaab","","null","
                <div class=""stimulus-container"">
                    <img src=""images/schematic_sequence/supermarket_scheme/supermarket_scheme_4.png"" class=""exp-image"">
                    <div class=""question-area""></div> 
                </div>","null","","","","","","","","",""
"","","","","","html-button-response","87","287754","0.0-87.0","284B9D690EFE44F696E807D55C98299E","019cf526-07cd-742e-bafb-9586398b84c0","019cf509-e3f1-72d9-bf6b-e2f1118fdaab","","887","
                <div class=""stimulus-container"">
                    <img src=""images/schematic_sequence/supermarket_scheme/supermarket_scheme_4.png"" class=""exp-image"">
                    <div class=""question-area"">
                        <p style=""font-size: 20px; font-weight: bold; margin: 0;"">Is there a person in this image?</p>
                    </div>
                </div>","0","main_experiment_trial","4","supermarket_scheme","schematic_sequence","","","","",""
"","","","","","html-keyboard-response","88","292756","0.0-88.0","284B9D690EFE44F696E807D55C98299E","019cf526-07cd-742e-bafb-9586398b84c0","019cf509-e3f1-72d9-bf6b-e2f1118fdaab","","null","
                <div class=""stimulus-container"">
                    <img src=""images/schematic_sequence/supermarket_scheme/supermarket_scheme_5.png"" class=""exp-image"">
                    <div class=""question-area""></div> 
                </div>","null","","","","","","","","",""
"","","","","","html-button-response","89","293713","0.0-89.0","284B9D690EFE44F696E807D55C98299E","019cf526-07cd-742e-bafb-9586398b84c0","019cf509-e3f1-72d9-bf6b-e2f1118fdaab","","956","
                <div class=""stimulus-container"">
                    <img src=""images/schematic_sequence/supermarket_scheme/supermarket_scheme_5.png"" class=""exp-image"">
                    <div class=""question-area"">
                        <p style=""font-size: 20px; font-weight: bold; margin: 0;"">Is there a person in this image?</p>
                    </div>
                </div>","1","main_experiment_trial","5","supermarket_scheme","schematic_sequence","","","","",""
"","","","","","html-keyboard-response","90","298715","0.0-90.0","284B9D690EFE44F696E807D55C98299E","019cf526-07cd-742e-bafb-9586398b84c0","019cf509-e3f1-72d9-bf6b-e2f1118fdaab","","null","
                <div class=""stimulus-container"">
                    <img src=""images/schematic_sequence/supermarket_scheme/supermarket_scheme_6.png"" class=""exp-image"">
                    <div class=""question-area""></div> 
                </div>","null","","","","","","","","",""
"","","","","","html-button-response","91","299525","0.0-91.0","284B9D690EFE44F696E807D55C98299E","019cf526-07cd-742e-bafb-9586398b84c0","019cf509-e3f1-72d9-bf6b-e2f1118fdaab","","809","
                <div class=""stimulus-container"">
                    <img src=""images/schematic_sequence/supermarket_scheme/supermarket_scheme_6.png"" class=""exp-image"">
                    <div class=""question-area"">
                        <p style=""font-size: 20px; font-weight: bold; margin: 0;"">Is there a person in this image?</p>
                    </div>
                </div>","0","main_experiment_trial","6","supermarket_scheme","schematic_sequence","","","","",""
"","","","","","html-keyboard-response","92","304527","0.0-92.0","284B9D690EFE44F696E807D55C98299E","019cf526-07cd-742e-bafb-9586398b84c0","019cf509-e3f1-72d9-bf6b-e2f1118fdaab","","null","
                <div class=""stimulus-container"">
                    <img src=""images/schematic_sequence/supermarket_scheme/supermarket_scheme_7.png"" class=""exp-image"">
                    <div class=""question-area""></div> 
                </div>","null","","","","","","","","",""
"","","","","","html-button-response","93","305397","0.0-93.0","284B9D690EFE44F696E807D55C98299E","019cf526-07cd-742e-bafb-9586398b84c0","019cf509-e3f1-72d9-bf6b-e2f1118fdaab","","870","
                <div class=""stimulus-container"">
                    <img src=""images/schematic_sequence/supermarket_scheme/supermarket_scheme_7.png"" class=""exp-image"">
                    <div class=""question-area"">
                        <p style=""font-size: 20px; font-weight: bold; margin: 0;"">Is there a person in this image?</p>
                    </div>
                </div>","0","main_experiment_trial","7","supermarket_scheme","schematic_sequence","","","","",""
"","","","","","html-keyboard-response","94","310400","0.0-94.0","284B9D690EFE44F696E807D55C98299E","019cf526-07cd-742e-bafb-9586398b84c0","019cf509-e3f1-72d9-bf6b-e2f1118fdaab","","null","
                <div class=""stimulus-container"">
                    <img src=""images/schematic_sequence/supermarket_scheme/supermarket_scheme_8.png"" class=""exp-image"">
                    <div class=""question-area""></div> 
                </div>","null","","","","","","","","",""
"","","","","","html-button-response","95","311305","0.0-95.0","284B9D690EFE44F696E807D55C98299E","019cf526-07cd-742e-bafb-9586398b84c0","019cf509-e3f1-72d9-bf6b-e2f1118fdaab","","904","
                <div class=""stimulus-container"">
                    <img src=""images/schematic_sequence/supermarket_scheme/supermarket_scheme_8.png"" class=""exp-image"">
                    <div class=""question-area"">
                        <p style=""font-size: 20px; font-weight: bold; margin: 0;"">Is there a person in this image?</p>
                    </div>
                </div>","0","main_experiment_trial","8","supermarket_scheme","schematic_sequence","","","","",""
"","","","","","html-keyboard-response","96","316306","0.0-96.0","284B9D690EFE44F696E807D55C98299E","019cf526-07cd-742e-bafb-9586398b84c0","019cf509-e3f1-72d9-bf6b-e2f1118fdaab","","null","
                <div class=""stimulus-container"">
                    <img src=""images/schematic_sequence/supermarket_scheme/supermarket_scheme_9.png"" class=""exp-image"">
                    <div class=""question-area""></div> 
                </div>","null","","","","","","","","",""
"","","","","","html-button-response","97","317138","0.0-97.0","284B9D690EFE44F696E807D55C98299E","019cf526-07cd-742e-bafb-9586398b84c0","019cf509-e3f1-72d9-bf6b-e2f1118fdaab","","830","
                <div class=""stimulus-container"">
                    <img src=""images/schematic_sequence/supermarket_scheme/supermarket_scheme_9.png"" class=""exp-image"">
                    <div class=""question-area"">
                        <p style=""font-size: 20px; font-weight: bold; margin: 0;"">Is there a person in this image?</p>
                    </div>
                </div>","0","main_experiment_trial","9","supermarket_scheme","schematic_sequence","","","","",""
"","","","","","html-keyboard-response","98","322140","0.0-98.0","284B9D690EFE44F696E807D55C98299E","019cf526-07cd-742e-bafb-9586398b84c0","019cf509-e3f1-72d9-bf6b-e2f1118fdaab","","null","
                <div class=""stimulus-container"">
                    <img src=""images/schematic_sequence/supermarket_scheme/supermarket_scheme_ten.png"" class=""exp-image"">
                    <div class=""question-area""></div> 
                </div>","null","","","","","","","","",""
"","","","","","html-button-response","99","323310","0.0-99.0","284B9D690EFE44F696E807D55C98299E","019cf526-07cd-742e-bafb-9586398b84c0","019cf509-e3f1-72d9-bf6b-e2f1118fdaab","","1169","
                <div class=""stimulus-container"">
                    <img src=""images/schematic_sequence/supermarket_scheme/supermarket_scheme_ten.png"" class=""exp-image"">
                    <div class=""question-area"">
                        <p style=""font-size: 20px; font-weight: bold; margin: 0;"">Is there a person in this image?</p>
                    </div>
                </div>","1","main_experiment_trial","ten","supermarket_scheme","schematic_sequence","","","","",""
"","","","","","html-keyboard-response","100","324310","0.0-100.0","284B9D690EFE44F696E807D55C98299E","019cf526-07cd-742e-bafb-9586398b84c0","019cf509-e3f1-72d9-bf6b-e2f1118fdaab","","null","<div style=""background-color: white; width: 100vw; height: 100vh;""></div>","null","","","","","","","","",""
"","","","","","html-keyboard-response","101","329313","0.0-101.0","284B9D690EFE44F696E807D55C98299E","019cf526-07cd-742e-bafb-9586398b84c0","019cf509-e3f1-72d9-bf6b-e2f1118fdaab","","null","
                <div class=""stimulus-container"">
                    <img src=""images/schematic_sequence/interview_scheme/interview_scheme_1.png"" class=""exp-image"">
                    <div class=""question-area""></div> 
                </div>","null","","","","","","","","",""
"","","","","","html-button-response","102","332315","0.0-102.0","284B9D690EFE44F696E807D55C98299E","019cf526-07cd-742e-bafb-9586398b84c0","019cf509-e3f1-72d9-bf6b-e2f1118fdaab","","null","
                <div class=""stimulus-container"">
                    <img src=""images/schematic_sequence/interview_scheme/interview_scheme_1.png"" class=""exp-image"">
                    <div class=""question-area"">
                        <p style=""font-size: 20px; font-weight: bold; margin: 0;"">Is there a person in this image?</p>
                    </div>
                </div>","null","main_experiment_trial","1","interview_scheme","schematic_sequence","","","","",""
"","","","","","html-keyboard-response","103","337317","0.0-103.0","284B9D690EFE44F696E807D55C98299E","019cf526-07cd-742e-bafb-9586398b84c0","019cf509-e3f1-72d9-bf6b-e2f1118fdaab","","null","
                <div class=""stimulus-container"">
                    <img src=""images/schematic_sequence/interview_scheme/interview_scheme_2.png"" class=""exp-image"">
                    <div class=""question-area""></div> 
                </div>","null","","","","","","","","",""
"","","","","","html-button-response","104","338858","0.0-104.0","284B9D690EFE44F696E807D55C98299E","019cf526-07cd-742e-bafb-9586398b84c0","019cf509-e3f1-72d9-bf6b-e2f1118fdaab","","1540","
                <div class=""stimulus-container"">
                    <img src=""images/schematic_sequence/interview_scheme/interview_scheme_2.png"" class=""exp-image"">
                    <div class=""question-area"">
                        <p style=""font-size: 20px; font-weight: bold; margin: 0;"">Is there a person in this image?</p>
                    </div>
                </div>","0","main_experiment_trial","2","interview_scheme","schematic_sequence","","","","",""
"","","","","","html-keyboard-response","105","343859","0.0-105.0","284B9D690EFE44F696E807D55C98299E","019cf526-07cd-742e-bafb-9586398b84c0","019cf509-e3f1-72d9-bf6b-e2f1118fdaab","","null","
                <div class=""stimulus-container"">
                    <img src=""images/schematic_sequence/interview_scheme/interview_scheme_3.png"" class=""exp-image"">
                    <div class=""question-area""></div> 
                </div>","null","","","","","","","","",""
"","","","","","html-button-response","106","344722","0.0-106.0","284B9D690EFE44F696E807D55C98299E","019cf526-07cd-742e-bafb-9586398b84c0","019cf509-e3f1-72d9-bf6b-e2f1118fdaab","","862","
                <div class=""stimulus-container"">
                    <img src=""images/schematic_sequence/interview_scheme/interview_scheme_3.png"" class=""exp-image"">
                    <div class=""question-area"">
                        <p style=""font-size: 20px; font-weight: bold; margin: 0;"">Is there a person in this image?</p>
                    </div>
                </div>","1","main_experiment_trial","3","interview_scheme","schematic_sequence","","","","",""
"","","","","","html-keyboard-response","107","349723","0.0-107.0","284B9D690EFE44F696E807D55C98299E","019cf526-07cd-742e-bafb-9586398b84c0","019cf509-e3f1-72d9-bf6b-e2f1118fdaab","","null","
                <div class=""stimulus-container"">
                    <img src=""images/schematic_sequence/interview_scheme/interview_scheme_4.png"" class=""exp-image"">
                    <div class=""question-area""></div> 
                </div>","null","","","","","","","","",""
"","","","","","html-button-response","108","350637","0.0-108.0","284B9D690EFE44F696E807D55C98299E","019cf526-07cd-742e-bafb-9586398b84c0","019cf509-e3f1-72d9-bf6b-e2f1118fdaab","","913","
                <div class=""stimulus-container"">
                    <img src=""images/schematic_sequence/interview_scheme/interview_scheme_4.png"" class=""exp-image"">
                    <div class=""question-area"">
                        <p style=""font-size: 20px; font-weight: bold; margin: 0;"">Is there a person in this image?</p>
                    </div>
                </div>","1","main_experiment_trial","4","interview_scheme","schematic_sequence","","","","",""
"","","","","","html-keyboard-response","109","355638","0.0-109.0","284B9D690EFE44F696E807D55C98299E","019cf526-07cd-742e-bafb-9586398b84c0","019cf509-e3f1-72d9-bf6b-e2f1118fdaab","","null","
                <div class=""stimulus-container"">
                    <img src=""images/schematic_sequence/interview_scheme/interview_scheme_5.png"" class=""exp-image"">
                    <div class=""question-area""></div> 
                </div>","null","","","","","","","","",""
"","","","","","html-button-response","110","356250","0.0-110.0","284B9D690EFE44F696E807D55C98299E","019cf526-07cd-742e-bafb-9586398b84c0","019cf509-e3f1-72d9-bf6b-e2f1118fdaab","","611","
                <div class=""stimulus-container"">
                    <img src=""images/schematic_sequence/interview_scheme/interview_scheme_5.png"" class=""exp-image"">
                    <div class=""question-area"">
                        <p style=""font-size: 20px; font-weight: bold; margin: 0;"">Is there a person in this image?</p>
                    </div>
                </div>","0","main_experiment_trial","5","interview_scheme","schematic_sequence","","","","",""
"","","","","","html-keyboard-response","111","361252","0.0-111.0","284B9D690EFE44F696E807D55C98299E","019cf526-07cd-742e-bafb-9586398b84c0","019cf509-e3f1-72d9-bf6b-e2f1118fdaab","","null","
                <div class=""stimulus-container"">
                    <img src=""images/schematic_sequence/interview_scheme/interview_scheme_6.png"" class=""exp-image"">
                    <div class=""question-area""></div> 
                </div>","null","","","","","","","","",""
"","","","","","html-button-response","112","362123","0.0-112.0","284B9D690EFE44F696E807D55C98299E","019cf526-07cd-742e-bafb-9586398b84c0","019cf509-e3f1-72d9-bf6b-e2f1118fdaab","","870","
                <div class=""stimulus-container"">
                    <img src=""images/schematic_sequence/interview_scheme/interview_scheme_6.png"" class=""exp-image"">
                    <div class=""question-area"">
                        <p style=""font-size: 20px; font-weight: bold; margin: 0;"">Is there a person in this image?</p>
                    </div>
                </div>","0","main_experiment_trial","6","interview_scheme","schematic_sequence","","","","",""
"","","","","","html-keyboard-response","113","367125","0.0-113.0","284B9D690EFE44F696E807D55C98299E","019cf526-07cd-742e-bafb-9586398b84c0","019cf509-e3f1-72d9-bf6b-e2f1118fdaab","","null","
                <div class=""stimulus-container"">
                    <img src=""images/schematic_sequence/interview_scheme/interview_scheme_7.png"" class=""exp-image"">
                    <div class=""question-area""></div> 
                </div>","null","","","","","","","","",""
"","","","","","html-button-response","114","368118","0.0-114.0","284B9D690EFE44F696E807D55C98299E","019cf526-07cd-742e-bafb-9586398b84c0","019cf509-e3f1-72d9-bf6b-e2f1118fdaab","","993","
                <div class=""stimulus-container"">
                    <img src=""images/schematic_sequence/interview_scheme/interview_scheme_7.png"" class=""exp-image"">
                    <div class=""question-area"">
                        <p style=""font-size: 20px; font-weight: bold; margin: 0;"">Is there a person in this image?</p>
                    </div>
                </div>","0","main_experiment_trial","7","interview_scheme","schematic_sequence","","","","",""
"","","","","","html-keyboard-response","115","373120","0.0-115.0","284B9D690EFE44F696E807D55C98299E","019cf526-07cd-742e-bafb-9586398b84c0","019cf509-e3f1-72d9-bf6b-e2f1118fdaab","","null","
                <div class=""stimulus-container"">
                    <img src=""images/schematic_sequence/interview_scheme/interview_scheme_8.png"" class=""exp-image"">
                    <div class=""question-area""></div> 
                </div>","null","","","","","","","","",""
"","","","","","html-button-response","116","374583","0.0-116.0","284B9D690EFE44F696E807D55C98299E","019cf526-07cd-742e-bafb-9586398b84c0","019cf509-e3f1-72d9-bf6b-e2f1118fdaab","","1463","
                <div class=""stimulus-container"">
                    <img src=""images/schematic_sequence/interview_scheme/interview_scheme_8.png"" class=""exp-image"">
                    <div class=""question-area"">
                        <p style=""font-size: 20px; font-weight: bold; margin: 0;"">Is there a person in this image?</p>
                    </div>
                </div>","0","main_experiment_trial","8","interview_scheme","schematic_sequence","","","","",""
"","","","","","html-keyboard-response","117","379584","0.0-117.0","284B9D690EFE44F696E807D55C98299E","019cf526-07cd-742e-bafb-9586398b84c0","019cf509-e3f1-72d9-bf6b-e2f1118fdaab","","null","
                <div class=""stimulus-container"">
                    <img src=""images/schematic_sequence/interview_scheme/interview_scheme_9.png"" class=""exp-image"">
                    <div class=""question-area""></div> 
                </div>","null","","","","","","","","",""
"","","","","","html-button-response","118","380312","0.0-118.0","284B9D690EFE44F696E807D55C98299E","019cf526-07cd-742e-bafb-9586398b84c0","019cf509-e3f1-72d9-bf6b-e2f1118fdaab","","727","
                <div class=""stimulus-container"">
                    <img src=""images/schematic_sequence/interview_scheme/interview_scheme_9.png"" class=""exp-image"">
                    <div class=""question-area"">
                        <p style=""font-size: 20px; font-weight: bold; margin: 0;"">Is there a person in this image?</p>
                    </div>
                </div>","0","main_experiment_trial","9","interview_scheme","schematic_sequence","","","","",""
"","","","","","html-keyboard-response","119","385313","0.0-119.0","284B9D690EFE44F696E807D55C98299E","019cf526-07cd-742e-bafb-9586398b84c0","019cf509-e3f1-72d9-bf6b-e2f1118fdaab","","null","
                <div class=""stimulus-container"">
                    <img src=""images/schematic_sequence/interview_scheme/interview_scheme_ten.png"" class=""exp-image"">
                    <div class=""question-area""></div> 
                </div>","null","","","","","","","","",""
"","","","","","html-button-response","120","386108","0.0-120.0","284B9D690EFE44F696E807D55C98299E","019cf526-07cd-742e-bafb-9586398b84c0","019cf509-e3f1-72d9-bf6b-e2f1118fdaab","","794","
                <div class=""stimulus-container"">
                    <img src=""images/schematic_sequence/interview_scheme/interview_scheme_ten.png"" class=""exp-image"">
                    <div class=""question-area"">
                        <p style=""font-size: 20px; font-weight: bold; margin: 0;"">Is there a person in this image?</p>
                    </div>
                </div>","0","main_experiment_trial","ten","interview_scheme","schematic_sequence","","","","",""
"","","","","","html-keyboard-response","121","387109","0.0-121.0","284B9D690EFE44F696E807D55C98299E","019cf526-07cd-742e-bafb-9586398b84c0","019cf509-e3f1-72d9-bf6b-e2f1118fdaab","","null","<div style=""background-color: white; width: 100vw; height: 100vh;""></div>","null","","","","","","","","",""
"","","","","","html-keyboard-response","122","392110","0.0-122.0","284B9D690EFE44F696E807D55C98299E","019cf526-07cd-742e-bafb-9586398b84c0","019cf509-e3f1-72d9-bf6b-e2f1118fdaab","","null","
                <div class=""stimulus-container"">
                    <img src=""images/causal_sequence/museum_causal/museum_causal_1.png"" class=""exp-image"">
                    <div class=""question-area""></div> 
                </div>","null","","","","","","","","",""
"","","","","","html-button-response","123","392964","0.0-123.0","284B9D690EFE44F696E807D55C98299E","019cf526-07cd-742e-bafb-9586398b84c0","019cf509-e3f1-72d9-bf6b-e2f1118fdaab","","853","
                <div class=""stimulus-container"">
                    <img src=""images/causal_sequence/museum_causal/museum_causal_1.png"" class=""exp-image"">
                    <div class=""question-area"">
                        <p style=""font-size: 20px; font-weight: bold; margin: 0;"">Is there a person in this image?</p>
                    </div>
                </div>","0","main_experiment_trial","1","museum_causal","causal_sequence","","","","",""
"","","","","","html-keyboard-response","124","397966","0.0-124.0","284B9D690EFE44F696E807D55C98299E","019cf526-07cd-742e-bafb-9586398b84c0","019cf509-e3f1-72d9-bf6b-e2f1118fdaab","","null","
                <div class=""stimulus-container"">
                    <img src=""images/causal_sequence/museum_causal/museum_causal_2.png"" class=""exp-image"">
                    <div class=""question-area""></div> 
                </div>","null","","","","","","","","",""
"","","","","","html-button-response","125","399118","0.0-125.0","284B9D690EFE44F696E807D55C98299E","019cf526-07cd-742e-bafb-9586398b84c0","019cf509-e3f1-72d9-bf6b-e2f1118fdaab","","1151","
                <div class=""stimulus-container"">
                    <img src=""images/causal_sequence/museum_causal/museum_causal_2.png"" class=""exp-image"">
                    <div class=""question-area"">
                        <p style=""font-size: 20px; font-weight: bold; margin: 0;"">Is there a person in this image?</p>
                    </div>
                </div>","0","main_experiment_trial","2","museum_causal","causal_sequence","","","","",""
"","","","","","html-keyboard-response","126","404119","0.0-126.0","284B9D690EFE44F696E807D55C98299E","019cf526-07cd-742e-bafb-9586398b84c0","019cf509-e3f1-72d9-bf6b-e2f1118fdaab","","null","
                <div class=""stimulus-container"">
                    <img src=""images/causal_sequence/museum_causal/museum_causal_3.png"" class=""exp-image"">
                    <div class=""question-area""></div> 
                </div>","null","","","","","","","","",""
"","","","","","html-button-response","127","405118","0.0-127.0","284B9D690EFE44F696E807D55C98299E","019cf526-07cd-742e-bafb-9586398b84c0","019cf509-e3f1-72d9-bf6b-e2f1118fdaab","","998","
                <div class=""stimulus-container"">
                    <img src=""images/causal_sequence/museum_causal/museum_causal_3.png"" class=""exp-image"">
                    <div class=""question-area"">
                        <p style=""font-size: 20px; font-weight: bold; margin: 0;"">Is there a person in this image?</p>
                    </div>
                </div>","0","main_experiment_trial","3","museum_causal","causal_sequence","","","","",""
"","","","","","html-keyboard-response","128","410120","0.0-128.0","284B9D690EFE44F696E807D55C98299E","019cf526-07cd-742e-bafb-9586398b84c0","019cf509-e3f1-72d9-bf6b-e2f1118fdaab","","null","
                <div class=""stimulus-container"">
                    <img src=""images/causal_sequence/museum_causal/museum_causal_4.png"" class=""exp-image"">
                    <div class=""question-area""></div> 
                </div>","null","","","","","","","","",""
"","","","","","html-button-response","129","411242","0.0-129.0","284B9D690EFE44F696E807D55C98299E","019cf526-07cd-742e-bafb-9586398b84c0","019cf509-e3f1-72d9-bf6b-e2f1118fdaab","","1121","
                <div class=""stimulus-container"">
                    <img src=""images/causal_sequence/museum_causal/museum_causal_4.png"" class=""exp-image"">
                    <div class=""question-area"">
                        <p style=""font-size: 20px; font-weight: bold; margin: 0;"">Is there a person in this image?</p>
                    </div>
                </div>","1","main_experiment_trial","4","museum_causal","causal_sequence","","","","",""
"","","","","","html-keyboard-response","130","416245","0.0-130.0","284B9D690EFE44F696E807D55C98299E","019cf526-07cd-742e-bafb-9586398b84c0","019cf509-e3f1-72d9-bf6b-e2f1118fdaab","","null","
                <div class=""stimulus-container"">
                    <img src=""images/causal_sequence/museum_causal/museum_causal_5.png"" class=""exp-image"">
                    <div class=""question-area""></div> 
                </div>","null","","","","","","","","",""
"","","","","","html-button-response","131","417214","0.0-131.0","284B9D690EFE44F696E807D55C98299E","019cf526-07cd-742e-bafb-9586398b84c0","019cf509-e3f1-72d9-bf6b-e2f1118fdaab","","968","
                <div class=""stimulus-container"">
                    <img src=""images/causal_sequence/museum_causal/museum_causal_5.png"" class=""exp-image"">
                    <div class=""question-area"">
                        <p style=""font-size: 20px; font-weight: bold; margin: 0;"">Is there a person in this image?</p>
                    </div>
                </div>","0","main_experiment_trial","5","museum_causal","causal_sequence","","","","",""
"","","","","","html-keyboard-response","132","422216","0.0-132.0","284B9D690EFE44F696E807D55C98299E","019cf526-07cd-742e-bafb-9586398b84c0","019cf509-e3f1-72d9-bf6b-e2f1118fdaab","","null","
                <div class=""stimulus-container"">
                    <img src=""images/causal_sequence/museum_causal/museum_causal_6.png"" class=""exp-image"">
                    <div class=""question-area""></div> 
                </div>","null","","","","","","","","",""
"","","","","","html-button-response","133","423223","0.0-133.0","284B9D690EFE44F696E807D55C98299E","019cf526-07cd-742e-bafb-9586398b84c0","019cf509-e3f1-72d9-bf6b-e2f1118fdaab","","1006","
                <div class=""stimulus-container"">
                    <img src=""images/causal_sequence/museum_causal/museum_causal_6.png"" class=""exp-image"">
                    <div class=""question-area"">
                        <p style=""font-size: 20px; font-weight: bold; margin: 0;"">Is there a person in this image?</p>
                    </div>
                </div>","0","main_experiment_trial","6","museum_causal","causal_sequence","","","","",""
"","","","","","html-keyboard-response","134","428225","0.0-134.0","284B9D690EFE44F696E807D55C98299E","019cf526-07cd-742e-bafb-9586398b84c0","019cf509-e3f1-72d9-bf6b-e2f1118fdaab","","null","
                <div class=""stimulus-container"">
                    <img src=""images/causal_sequence/museum_causal/museum_causal_7.png"" class=""exp-image"">
                    <div class=""question-area""></div> 
                </div>","null","","","","","","","","",""
"","","","","","html-button-response","135","429359","0.0-135.0","284B9D690EFE44F696E807D55C98299E","019cf526-07cd-742e-bafb-9586398b84c0","019cf509-e3f1-72d9-bf6b-e2f1118fdaab","","1133","
                <div class=""stimulus-container"">
                    <img src=""images/causal_sequence/museum_causal/museum_causal_7.png"" class=""exp-image"">
                    <div class=""question-area"">
                        <p style=""font-size: 20px; font-weight: bold; margin: 0;"">Is there a person in this image?</p>
                    </div>
                </div>","1","main_experiment_trial","7","museum_causal","causal_sequence","","","","",""
"","","","","","html-keyboard-response","136","434361","0.0-136.0","284B9D690EFE44F696E807D55C98299E","019cf526-07cd-742e-bafb-9586398b84c0","019cf509-e3f1-72d9-bf6b-e2f1118fdaab","","null","
                <div class=""stimulus-container"">
                    <img src=""images/causal_sequence/museum_causal/museum_causal_8.png"" class=""exp-image"">
                    <div class=""question-area""></div> 
                </div>","null","","","","","","","","",""
"","","","","","html-button-response","137","435439","0.0-137.0","284B9D690EFE44F696E807D55C98299E","019cf526-07cd-742e-bafb-9586398b84c0","019cf509-e3f1-72d9-bf6b-e2f1118fdaab","","1077","
                <div class=""stimulus-container"">
                    <img src=""images/causal_sequence/museum_causal/museum_causal_8.png"" class=""exp-image"">
                    <div class=""question-area"">
                        <p style=""font-size: 20px; font-weight: bold; margin: 0;"">Is there a person in this image?</p>
                    </div>
                </div>","0","main_experiment_trial","8","museum_causal","causal_sequence","","","","",""
"","","","","","html-keyboard-response","138","440440","0.0-138.0","284B9D690EFE44F696E807D55C98299E","019cf526-07cd-742e-bafb-9586398b84c0","019cf509-e3f1-72d9-bf6b-e2f1118fdaab","","null","
                <div class=""stimulus-container"">
                    <img src=""images/causal_sequence/museum_causal/museum_causal_9.png"" class=""exp-image"">
                    <div class=""question-area""></div> 
                </div>","null","","","","","","","","",""
"","","","","","html-button-response","139","441254","0.0-139.0","284B9D690EFE44F696E807D55C98299E","019cf526-07cd-742e-bafb-9586398b84c0","019cf509-e3f1-72d9-bf6b-e2f1118fdaab","","813","
                <div class=""stimulus-container"">
                    <img src=""images/causal_sequence/museum_causal/museum_causal_9.png"" class=""exp-image"">
                    <div class=""question-area"">
                        <p style=""font-size: 20px; font-weight: bold; margin: 0;"">Is there a person in this image?</p>
                    </div>
                </div>","0","main_experiment_trial","9","museum_causal","causal_sequence","","","","",""
"","","","","","html-keyboard-response","140","446255","0.0-140.0","284B9D690EFE44F696E807D55C98299E","019cf526-07cd-742e-bafb-9586398b84c0","019cf509-e3f1-72d9-bf6b-e2f1118fdaab","","null","
                <div class=""stimulus-container"">
                    <img src=""images/causal_sequence/museum_causal/museum_causal_ten.png"" class=""exp-image"">
                    <div class=""question-area""></div> 
                </div>","null","","","","","","","","",""
"","","","","","html-button-response","141","447166","0.0-141.0","284B9D690EFE44F696E807D55C98299E","019cf526-07cd-742e-bafb-9586398b84c0","019cf509-e3f1-72d9-bf6b-e2f1118fdaab","","910","
                <div class=""stimulus-container"">
                    <img src=""images/causal_sequence/museum_causal/museum_causal_ten.png"" class=""exp-image"">
                    <div class=""question-area"">
                        <p style=""font-size: 20px; font-weight: bold; margin: 0;"">Is there a person in this image?</p>
                    </div>
                </div>","0","main_experiment_trial","ten","museum_causal","causal_sequence","","","","",""
"","","","","","html-keyboard-response","142","448168","0.0-142.0","284B9D690EFE44F696E807D55C98299E","019cf526-07cd-742e-bafb-9586398b84c0","019cf509-e3f1-72d9-bf6b-e2f1118fdaab","","null","<div style=""background-color: white; width: 100vw; height: 100vh;""></div>","null","","","","","","","","",""
"","","","","","html-keyboard-response","143","453170","0.0-143.0","284B9D690EFE44F696E807D55C98299E","019cf526-07cd-742e-bafb-9586398b84c0","019cf509-e3f1-72d9-bf6b-e2f1118fdaab","","null","
                <div class=""stimulus-container"">
                    <img src=""images/causal_sequence/saving_a_cat_causal/saving_a_cat_causal_1.png"" class=""exp-image"">
                    <div class=""question-area""></div> 
                </div>","null","","","","","","","","",""
"","","","","","html-button-response","144","453958","0.0-144.0","284B9D690EFE44F696E807D55C98299E","019cf526-07cd-742e-bafb-9586398b84c0","019cf509-e3f1-72d9-bf6b-e2f1118fdaab","","787","
                <div class=""stimulus-container"">
                    <img src=""images/causal_sequence/saving_a_cat_causal/saving_a_cat_causal_1.png"" class=""exp-image"">
                    <div class=""question-area"">
                        <p style=""font-size: 20px; font-weight: bold; margin: 0;"">Is there a person in this image?</p>
                    </div>
                </div>","0","main_experiment_trial","1","saving_a_cat_causal","causal_sequence","","","","",""
"","","","","","html-keyboard-response","145","458960","0.0-145.0","284B9D690EFE44F696E807D55C98299E","019cf526-07cd-742e-bafb-9586398b84c0","019cf509-e3f1-72d9-bf6b-e2f1118fdaab","","null","
                <div class=""stimulus-container"">
                    <img src=""images/causal_sequence/saving_a_cat_causal/saving_a_cat_causal_2.png"" class=""exp-image"">
                    <div class=""question-area""></div> 
                </div>","null","","","","","","","","",""
"","","","","","html-button-response","146","459993","0.0-146.0","284B9D690EFE44F696E807D55C98299E","019cf526-07cd-742e-bafb-9586398b84c0","019cf509-e3f1-72d9-bf6b-e2f1118fdaab","","1032","
                <div class=""stimulus-container"">
                    <img src=""images/causal_sequence/saving_a_cat_causal/saving_a_cat_causal_2.png"" class=""exp-image"">
                    <div class=""question-area"">
                        <p style=""font-size: 20px; font-weight: bold; margin: 0;"">Is there a person in this image?</p>
                    </div>
                </div>","0","main_experiment_trial","2","saving_a_cat_causal","causal_sequence","","","","",""
"","","","","","html-keyboard-response","147","464995","0.0-147.0","284B9D690EFE44F696E807D55C98299E","019cf526-07cd-742e-bafb-9586398b84c0","019cf509-e3f1-72d9-bf6b-e2f1118fdaab","","null","
                <div class=""stimulus-container"">
                    <img src=""images/causal_sequence/saving_a_cat_causal/saving_a_cat_causal_3.png"" class=""exp-image"">
                    <div class=""question-area""></div> 
                </div>","null","","","","","","","","",""
"","","","","","html-button-response","148","465830","0.0-148.0","284B9D690EFE44F696E807D55C98299E","019cf526-07cd-742e-bafb-9586398b84c0","019cf509-e3f1-72d9-bf6b-e2f1118fdaab","","835","
                <div class=""stimulus-container"">
                    <img src=""images/causal_sequence/saving_a_cat_causal/saving_a_cat_causal_3.png"" class=""exp-image"">
                    <div class=""question-area"">
                        <p style=""font-size: 20px; font-weight: bold; margin: 0;"">Is there a person in this image?</p>
                    </div>
                </div>","1","main_experiment_trial","3","saving_a_cat_causal","causal_sequence","","","","",""
"","","","","","html-keyboard-response","149","470832","0.0-149.0","284B9D690EFE44F696E807D55C98299E","019cf526-07cd-742e-bafb-9586398b84c0","019cf509-e3f1-72d9-bf6b-e2f1118fdaab","","null","
                <div class=""stimulus-container"">
                    <img src=""images/causal_sequence/saving_a_cat_causal/saving_a_cat_causal_4.png"" class=""exp-image"">
                    <div class=""question-area""></div> 
                </div>","null","","","","","","","","",""
"","","","","","html-button-response","150","471858","0.0-150.0","284B9D690EFE44F696E807D55C98299E","019cf526-07cd-742e-bafb-9586398b84c0","019cf509-e3f1-72d9-bf6b-e2f1118fdaab","","1025","
                <div class=""stimulus-container"">
                    <img src=""images/causal_sequence/saving_a_cat_causal/saving_a_cat_causal_4.png"" class=""exp-image"">
                    <div class=""question-area"">
                        <p style=""font-size: 20px; font-weight: bold; margin: 0;"">Is there a person in this image?</p>
                    </div>
                </div>","0","main_experiment_trial","4","saving_a_cat_causal","causal_sequence","","","","",""
"","","","","","html-keyboard-response","151","476861","0.0-151.0","284B9D690EFE44F696E807D55C98299E","019cf526-07cd-742e-bafb-9586398b84c0","019cf509-e3f1-72d9-bf6b-e2f1118fdaab","","null","
                <div class=""stimulus-container"">
                    <img src=""images/causal_sequence/saving_a_cat_causal/saving_a_cat_causal_5.png"" class=""exp-image"">
                    <div class=""question-area""></div> 
                </div>","null","","","","","","","","",""
"","","","","","html-button-response","152","479060","0.0-152.0","284B9D690EFE44F696E807D55C98299E","019cf526-07cd-742e-bafb-9586398b84c0","019cf509-e3f1-72d9-bf6b-e2f1118fdaab","","2199","
                <div class=""stimulus-container"">
                    <img src=""images/causal_sequence/saving_a_cat_causal/saving_a_cat_causal_5.png"" class=""exp-image"">
                    <div class=""question-area"">
                        <p style=""font-size: 20px; font-weight: bold; margin: 0;"">Is there a person in this image?</p>
                    </div>
                </div>","0","main_experiment_trial","5","saving_a_cat_causal","causal_sequence","","","","",""
"","","","","","html-keyboard-response","153","484062","0.0-153.0","284B9D690EFE44F696E807D55C98299E","019cf526-07cd-742e-bafb-9586398b84c0","019cf509-e3f1-72d9-bf6b-e2f1118fdaab","","null","
                <div class=""stimulus-container"">
                    <img src=""images/causal_sequence/saving_a_cat_causal/saving_a_cat_causal_6.png"" class=""exp-image"">
                    <div class=""question-area""></div> 
                </div>","null","","","","","","","","",""
"","","","","","html-button-response","154","484824","0.0-154.0","284B9D690EFE44F696E807D55C98299E","019cf526-07cd-742e-bafb-9586398b84c0","019cf509-e3f1-72d9-bf6b-e2f1118fdaab","","761","
                <div class=""stimulus-container"">
                    <img src=""images/causal_sequence/saving_a_cat_causal/saving_a_cat_causal_6.png"" class=""exp-image"">
                    <div class=""question-area"">
                        <p style=""font-size: 20px; font-weight: bold; margin: 0;"">Is there a person in this image?</p>
                    </div>
                </div>","0","main_experiment_trial","6","saving_a_cat_causal","causal_sequence","","","","",""
"","","","","","html-keyboard-response","155","489826","0.0-155.0","284B9D690EFE44F696E807D55C98299E","019cf526-07cd-742e-bafb-9586398b84c0","019cf509-e3f1-72d9-bf6b-e2f1118fdaab","","null","
                <div class=""stimulus-container"">
                    <img src=""images/causal_sequence/saving_a_cat_causal/saving_a_cat_causal_7.png"" class=""exp-image"">
                    <div class=""question-area""></div> 
                </div>","null","","","","","","","","",""
"","","","","","html-button-response","156","491040","0.0-156.0","284B9D690EFE44F696E807D55C98299E","019cf526-07cd-742e-bafb-9586398b84c0","019cf509-e3f1-72d9-bf6b-e2f1118fdaab","","1214","
                <div class=""stimulus-container"">
                    <img src=""images/causal_sequence/saving_a_cat_causal/saving_a_cat_causal_7.png"" class=""exp-image"">
                    <div class=""question-area"">
                        <p style=""font-size: 20px; font-weight: bold; margin: 0;"">Is there a person in this image?</p>
                    </div>
                </div>","0","main_experiment_trial","7","saving_a_cat_causal","causal_sequence","","","","",""
"","","","","","html-keyboard-response","157","496042","0.0-157.0","284B9D690EFE44F696E807D55C98299E","019cf526-07cd-742e-bafb-9586398b84c0","019cf509-e3f1-72d9-bf6b-e2f1118fdaab","","null","
                <div class=""stimulus-container"">
                    <img src=""images/causal_sequence/saving_a_cat_causal/saving_a_cat_causal_8.png"" class=""exp-image"">
                    <div class=""question-area""></div> 
                </div>","null","","","","","","","","",""
"","","","","","html-button-response","158","496728","0.0-158.0","284B9D690EFE44F696E807D55C98299E","019cf526-07cd-742e-bafb-9586398b84c0","019cf509-e3f1-72d9-bf6b-e2f1118fdaab","","685","
                <div class=""stimulus-container"">
                    <img src=""images/causal_sequence/saving_a_cat_causal/saving_a_cat_causal_8.png"" class=""exp-image"">
                    <div class=""question-area"">
                        <p style=""font-size: 20px; font-weight: bold; margin: 0;"">Is there a person in this image?</p>
                    </div>
                </div>","0","main_experiment_trial","8","saving_a_cat_causal","causal_sequence","","","","",""
"","","","","","html-keyboard-response","159","501730","0.0-159.0","284B9D690EFE44F696E807D55C98299E","019cf526-07cd-742e-bafb-9586398b84c0","019cf509-e3f1-72d9-bf6b-e2f1118fdaab","","null","
                <div class=""stimulus-container"">
                    <img src=""images/causal_sequence/saving_a_cat_causal/saving_a_cat_causal_9.png"" class=""exp-image"">
                    <div class=""question-area""></div> 
                </div>","null","","","","","","","","",""
"","","","","","html-button-response","160","503055","0.0-160.0","284B9D690EFE44F696E807D55C98299E","019cf526-07cd-742e-bafb-9586398b84c0","019cf509-e3f1-72d9-bf6b-e2f1118fdaab","","1324","
                <div class=""stimulus-container"">
                    <img src=""images/causal_sequence/saving_a_cat_causal/saving_a_cat_causal_9.png"" class=""exp-image"">
                    <div class=""question-area"">
                        <p style=""font-size: 20px; font-weight: bold; margin: 0;"">Is there a person in this image?</p>
                    </div>
                </div>","0","main_experiment_trial","9","saving_a_cat_causal","causal_sequence","","","","",""
"","","","","","html-keyboard-response","161","508058","0.0-161.0","284B9D690EFE44F696E807D55C98299E","019cf526-07cd-742e-bafb-9586398b84c0","019cf509-e3f1-72d9-bf6b-e2f1118fdaab","","null","
                <div class=""stimulus-container"">
                    <img src=""images/causal_sequence/saving_a_cat_causal/saving_a_cat_causal_ten.png"" class=""exp-image"">
                    <div class=""question-area""></div> 
                </div>","null","","","","","","","","",""
"","","","","","html-button-response","162","509132","0.0-162.0","284B9D690EFE44F696E807D55C98299E","019cf526-07cd-742e-bafb-9586398b84c0","019cf509-e3f1-72d9-bf6b-e2f1118fdaab","","1073","
                <div class=""stimulus-container"">
                    <img src=""images/causal_sequence/saving_a_cat_causal/saving_a_cat_causal_ten.png"" class=""exp-image"">
                    <div class=""question-area"">
                        <p style=""font-size: 20px; font-weight: bold; margin: 0;"">Is there a person in this image?</p>
                    </div>
                </div>","0","main_experiment_trial","ten","saving_a_cat_causal","causal_sequence","","","","",""
"","","","","","html-keyboard-response","163","510133","0.0-163.0","284B9D690EFE44F696E807D55C98299E","019cf526-07cd-742e-bafb-9586398b84c0","019cf509-e3f1-72d9-bf6b-e2f1118fdaab","","null","<div style=""background-color: white; width: 100vw; height: 100vh;""></div>","null","","","","","","","","",""
"","","","","","html-keyboard-response","164","515135","0.0-164.0","284B9D690EFE44F696E807D55C98299E","019cf526-07cd-742e-bafb-9586398b84c0","019cf509-e3f1-72d9-bf6b-e2f1118fdaab","","null","
                <div class=""stimulus-container"">
                    <img src=""images/schematic_sequence/hotel_scheme/hotel_scheme_1.png"" class=""exp-image"">
                    <div class=""question-area""></div> 
                </div>","null","","","","","","","","",""
"","","","","","html-button-response","165","516359","0.0-165.0","284B9D690EFE44F696E807D55C98299E","019cf526-07cd-742e-bafb-9586398b84c0","019cf509-e3f1-72d9-bf6b-e2f1118fdaab","","1223","
                <div class=""stimulus-container"">
                    <img src=""images/schematic_sequence/hotel_scheme/hotel_scheme_1.png"" class=""exp-image"">
                    <div class=""question-area"">
                        <p style=""font-size: 20px; font-weight: bold; margin: 0;"">Is there a person in this image?</p>
                    </div>
                </div>","1","main_experiment_trial","1","hotel_scheme","schematic_sequence","","","","",""
"","","","","","html-keyboard-response","166","521361","0.0-166.0","284B9D690EFE44F696E807D55C98299E","019cf526-07cd-742e-bafb-9586398b84c0","019cf509-e3f1-72d9-bf6b-e2f1118fdaab","","null","
                <div class=""stimulus-container"">
                    <img src=""images/schematic_sequence/hotel_scheme/hotel_scheme_2.png"" class=""exp-image"">
                    <div class=""question-area""></div> 
                </div>","null","","","","","","","","",""
"","","","","","html-button-response","167","522183","0.0-167.0","284B9D690EFE44F696E807D55C98299E","019cf526-07cd-742e-bafb-9586398b84c0","019cf509-e3f1-72d9-bf6b-e2f1118fdaab","","821","
                <div class=""stimulus-container"">
                    <img src=""images/schematic_sequence/hotel_scheme/hotel_scheme_2.png"" class=""exp-image"">
                    <div class=""question-area"">
                        <p style=""font-size: 20px; font-weight: bold; margin: 0;"">Is there a person in this image?</p>
                    </div>
                </div>","0","main_experiment_trial","2","hotel_scheme","schematic_sequence","","","","",""
"","","","","","html-keyboard-response","168","527184","0.0-168.0","284B9D690EFE44F696E807D55C98299E","019cf526-07cd-742e-bafb-9586398b84c0","019cf509-e3f1-72d9-bf6b-e2f1118fdaab","","null","
                <div class=""stimulus-container"">
                    <img src=""images/schematic_sequence/hotel_scheme/hotel_scheme_3.png"" class=""exp-image"">
                    <div class=""question-area""></div> 
                </div>","null","","","","","","","","",""
"","","","","","html-button-response","169","528153","0.0-169.0","284B9D690EFE44F696E807D55C98299E","019cf526-07cd-742e-bafb-9586398b84c0","019cf509-e3f1-72d9-bf6b-e2f1118fdaab","","969","
                <div class=""stimulus-container"">
                    <img src=""images/schematic_sequence/hotel_scheme/hotel_scheme_3.png"" class=""exp-image"">
                    <div class=""question-area"">
                        <p style=""font-size: 20px; font-weight: bold; margin: 0;"">Is there a person in this image?</p>
                    </div>
                </div>","0","main_experiment_trial","3","hotel_scheme","schematic_sequence","","","","",""
"","","","","","html-keyboard-response","170","533155","0.0-170.0","284B9D690EFE44F696E807D55C98299E","019cf526-07cd-742e-bafb-9586398b84c0","019cf509-e3f1-72d9-bf6b-e2f1118fdaab","","null","
                <div class=""stimulus-container"">
                    <img src=""images/schematic_sequence/hotel_scheme/hotel_scheme_4.png"" class=""exp-image"">
                    <div class=""question-area""></div> 
                </div>","null","","","","","","","","",""
"","","","","","html-button-response","171","533979","0.0-171.0","284B9D690EFE44F696E807D55C98299E","019cf526-07cd-742e-bafb-9586398b84c0","019cf509-e3f1-72d9-bf6b-e2f1118fdaab","","822","
                <div class=""stimulus-container"">
                    <img src=""images/schematic_sequence/hotel_scheme/hotel_scheme_4.png"" class=""exp-image"">
                    <div class=""question-area"">
                        <p style=""font-size: 20px; font-weight: bold; margin: 0;"">Is there a person in this image?</p>
                    </div>
                </div>","1","main_experiment_trial","4","hotel_scheme","schematic_sequence","","","","",""
"","","","","","html-keyboard-response","172","538981","0.0-172.0","284B9D690EFE44F696E807D55C98299E","019cf526-07cd-742e-bafb-9586398b84c0","019cf509-e3f1-72d9-bf6b-e2f1118fdaab","","null","
                <div class=""stimulus-container"">
                    <img src=""images/schematic_sequence/hotel_scheme/hotel_scheme_5.png"" class=""exp-image"">
                    <div class=""question-area""></div> 
                </div>","null","","","","","","","","",""
"","","","","","html-button-response","173","540036","0.0-173.0","284B9D690EFE44F696E807D55C98299E","019cf526-07cd-742e-bafb-9586398b84c0","019cf509-e3f1-72d9-bf6b-e2f1118fdaab","","1053","
                <div class=""stimulus-container"">
                    <img src=""images/schematic_sequence/hotel_scheme/hotel_scheme_5.png"" class=""exp-image"">
                    <div class=""question-area"">
                        <p style=""font-size: 20px; font-weight: bold; margin: 0;"">Is there a person in this image?</p>
                    </div>
                </div>","0","main_experiment_trial","5","hotel_scheme","schematic_sequence","","","","",""
"","","","","","html-keyboard-response","174","545038","0.0-174.0","284B9D690EFE44F696E807D55C98299E","019cf526-07cd-742e-bafb-9586398b84c0","019cf509-e3f1-72d9-bf6b-e2f1118fdaab","","null","
                <div class=""stimulus-container"">
                    <img src=""images/schematic_sequence/hotel_scheme/hotel_scheme_6.png"" class=""exp-image"">
                    <div class=""question-area""></div> 
                </div>","null","","","","","","","","",""
"","","","","","html-button-response","175","546339","0.0-175.0","284B9D690EFE44F696E807D55C98299E","019cf526-07cd-742e-bafb-9586398b84c0","019cf509-e3f1-72d9-bf6b-e2f1118fdaab","","1300","
                <div class=""stimulus-container"">
                    <img src=""images/schematic_sequence/hotel_scheme/hotel_scheme_6.png"" class=""exp-image"">
                    <div class=""question-area"">
                        <p style=""font-size: 20px; font-weight: bold; margin: 0;"">Is there a person in this image?</p>
                    </div>
                </div>","0","main_experiment_trial","6","hotel_scheme","schematic_sequence","","","","",""
"","","","","","html-keyboard-response","176","551340","0.0-176.0","284B9D690EFE44F696E807D55C98299E","019cf526-07cd-742e-bafb-9586398b84c0","019cf509-e3f1-72d9-bf6b-e2f1118fdaab","","null","
                <div class=""stimulus-container"">
                    <img src=""images/schematic_sequence/hotel_scheme/hotel_scheme_7.png"" class=""exp-image"">
                    <div class=""question-area""></div> 
                </div>","null","","","","","","","","",""
"","","","","","html-button-response","177","552085","0.0-177.0","284B9D690EFE44F696E807D55C98299E","019cf526-07cd-742e-bafb-9586398b84c0","019cf509-e3f1-72d9-bf6b-e2f1118fdaab","","743","
                <div class=""stimulus-container"">
                    <img src=""images/schematic_sequence/hotel_scheme/hotel_scheme_7.png"" class=""exp-image"">
                    <div class=""question-area"">
                        <p style=""font-size: 20px; font-weight: bold; margin: 0;"">Is there a person in this image?</p>
                    </div>
                </div>","0","main_experiment_trial","7","hotel_scheme","schematic_sequence","","","","",""
"","","","","","html-keyboard-response","178","557087","0.0-178.0","284B9D690EFE44F696E807D55C98299E","019cf526-07cd-742e-bafb-9586398b84c0","019cf509-e3f1-72d9-bf6b-e2f1118fdaab","","null","
                <div class=""stimulus-container"">
                    <img src=""images/schematic_sequence/hotel_scheme/hotel_scheme_8.png"" class=""exp-image"">
                    <div class=""question-area""></div> 
                </div>","null","","","","","","","","",""
"","","","","","html-button-response","179","558464","0.0-179.0","284B9D690EFE44F696E807D55C98299E","019cf526-07cd-742e-bafb-9586398b84c0","019cf509-e3f1-72d9-bf6b-e2f1118fdaab","","1376","
                <div class=""stimulus-container"">
                    <img src=""images/schematic_sequence/hotel_scheme/hotel_scheme_8.png"" class=""exp-image"">
                    <div class=""question-area"">
                        <p style=""font-size: 20px; font-weight: bold; margin: 0;"">Is there a person in this image?</p>
                    </div>
                </div>","0","main_experiment_trial","8","hotel_scheme","schematic_sequence","","","","",""
"","","","","","html-keyboard-response","180","563466","0.0-180.0","284B9D690EFE44F696E807D55C98299E","019cf526-07cd-742e-bafb-9586398b84c0","019cf509-e3f1-72d9-bf6b-e2f1118fdaab","","null","
                <div class=""stimulus-container"">
                    <img src=""images/schematic_sequence/hotel_scheme/hotel_scheme_9.png"" class=""exp-image"">
                    <div class=""question-area""></div> 
                </div>","null","","","","","","","","",""
"","","","","","html-button-response","181","564575","0.0-181.0","284B9D690EFE44F696E807D55C98299E","019cf526-07cd-742e-bafb-9586398b84c0","019cf509-e3f1-72d9-bf6b-e2f1118fdaab","","1108","
                <div class=""stimulus-container"">
                    <img src=""images/schematic_sequence/hotel_scheme/hotel_scheme_9.png"" class=""exp-image"">
                    <div class=""question-area"">
                        <p style=""font-size: 20px; font-weight: bold; margin: 0;"">Is there a person in this image?</p>
                    </div>
                </div>","0","main_experiment_trial","9","hotel_scheme","schematic_sequence","","","","",""
"","","","","","html-keyboard-response","182","569576","0.0-182.0","284B9D690EFE44F696E807D55C98299E","019cf526-07cd-742e-bafb-9586398b84c0","019cf509-e3f1-72d9-bf6b-e2f1118fdaab","","null","
                <div class=""stimulus-container"">
                    <img src=""images/schematic_sequence/hotel_scheme/hotel_scheme_ten.png"" class=""exp-image"">
                    <div class=""question-area""></div> 
                </div>","null","","","","","","","","",""
"","","","","","html-button-response","183","570822","0.0-183.0","284B9D690EFE44F696E807D55C98299E","019cf526-07cd-742e-bafb-9586398b84c0","019cf509-e3f1-72d9-bf6b-e2f1118fdaab","","1245","
                <div class=""stimulus-container"">
                    <img src=""images/schematic_sequence/hotel_scheme/hotel_scheme_ten.png"" class=""exp-image"">
                    <div class=""question-area"">
