"success","timeout","failed_images","failed_audio","failed_video","trial_type","trial_index","time_elapsed","internal_node_id","subject_id","study_id","session_id","view_history","rt","stimulus","response","task","image_index","folder","sequence_type","valuable_image_index","reward_type","lucky_X","chosen_image_index","valuable_folder","neutral_folder","correct_choice"
"true","false","[]","[]","[]","preload","0","8311","0.0-0.0","067F98EEB233492ABF5563CF1E969931","019cee1c-6d61-7a7a-85e2-30e2bfc3380c","019cee19-8919-70b9-b165-8101f98d5def","","","","","","","","","","","","","","",""
"","","","","","instructions","1","10535","0.0-1.0","067F98EEB233492ABF5563CF1E969931","019cee1c-6d61-7a7a-85e2-30e2bfc3380c","019cee19-8919-70b9-b165-8101f98d5def","[{""page_index"":0,""viewing_time"":2223}]","2224","","","","","","","","","","","","",""
"","","","","","instructions","2","12733","0.0-2.0","067F98EEB233492ABF5563CF1E969931","019cee1c-6d61-7a7a-85e2-30e2bfc3380c","019cee19-8919-70b9-b165-8101f98d5def","[{""page_index"":0,""viewing_time"":2198}]","2198","","","","","","","","","","","","",""
"true","","","","","fullscreen","3","14828","0.0-3.0","067F98EEB233492ABF5563CF1E969931","019cee1c-6d61-7a7a-85e2-30e2bfc3380c","019cee19-8919-70b9-b165-8101f98d5def","","1086","","","","","","","","","","","","",""
"","","","","","instructions","4","56783","0.0-4.0","067F98EEB233492ABF5563CF1E969931","019cee1c-6d61-7a7a-85e2-30e2bfc3380c","019cee19-8919-70b9-b165-8101f98d5def","[{""page_index"":0,""viewing_time"":41955}]","41955","","","","","","","","","","","","",""
"","","","","","instructions","5","57815","0.0-5.0","067F98EEB233492ABF5563CF1E969931","019cee1c-6d61-7a7a-85e2-30e2bfc3380c","019cee19-8919-70b9-b165-8101f98d5def","[{""page_index"":0,""viewing_time"":1031}]","1031","","","","","","","","","","","","",""
"","","","","","html-keyboard-response","6","61824","0.0-6.0","067F98EEB233492ABF5563CF1E969931","019cee1c-6d61-7a7a-85e2-30e2bfc3380c","019cee19-8919-70b9-b165-8101f98d5def","","null","
                <div class=""stimulus-container"">
                    <img src=""images/instructions/movie_1.png"" class=""exp-image"">
                    <div class=""question-area""></div> 
                </div>","null","","","","","","","","","","",""
"","","","","","html-button-response","7","64834","0.0-7.0","067F98EEB233492ABF5563CF1E969931","019cee1c-6d61-7a7a-85e2-30e2bfc3380c","019cee19-8919-70b9-b165-8101f98d5def","","null","
                <div class=""stimulus-container"">
                    <img src=""images/instructions/movie_1.png"" class=""exp-image"">
                    <div class=""question-area"">
                        <p style=""font-size: 20px; font-weight: bold; margin: 0;"">Was there a person in this image?</p>
                    </div>
                </div>","null","example_question","1","","","","","","","","",""
"","","","","","html-keyboard-response","8","68841","0.0-8.0","067F98EEB233492ABF5563CF1E969931","019cee1c-6d61-7a7a-85e2-30e2bfc3380c","019cee19-8919-70b9-b165-8101f98d5def","","null","
                <div class=""stimulus-container"">
                    <img src=""images/instructions/movie_2.png"" class=""exp-image"">
                    <div class=""question-area""></div> 
                </div>","null","","","","","","","","","","",""
"","","","","","html-button-response","9","69671","0.0-9.0","067F98EEB233492ABF5563CF1E969931","019cee1c-6d61-7a7a-85e2-30e2bfc3380c","019cee19-8919-70b9-b165-8101f98d5def","","829","
                <div class=""stimulus-container"">
                    <img src=""images/instructions/movie_2.png"" class=""exp-image"">
                    <div class=""question-area"">
                        <p style=""font-size: 20px; font-weight: bold; margin: 0;"">Was there a person in this image?</p>
                    </div>
                </div>","0","example_question","2","","","","","","","","",""
"","","","","","html-keyboard-response","10","73673","0.0-10.0","067F98EEB233492ABF5563CF1E969931","019cee1c-6d61-7a7a-85e2-30e2bfc3380c","019cee19-8919-70b9-b165-8101f98d5def","","null","
                <div class=""stimulus-container"">
                    <img src=""images/instructions/movie_3.png"" class=""exp-image"">
                    <div class=""question-area""></div> 
                </div>","null","","","","","","","","","","",""
"","","","","","html-button-response","11","75244","0.0-11.0","067F98EEB233492ABF5563CF1E969931","019cee1c-6d61-7a7a-85e2-30e2bfc3380c","019cee19-8919-70b9-b165-8101f98d5def","","1571","
                <div class=""stimulus-container"">
                    <img src=""images/instructions/movie_3.png"" class=""exp-image"">
                    <div class=""question-area"">
                        <p style=""font-size: 20px; font-weight: bold; margin: 0;"">Was there a person in this image?</p>
                    </div>
                </div>","0","example_question","3","","","","","","","","",""
"","","","","","html-keyboard-response","12","79249","0.0-12.0","067F98EEB233492ABF5563CF1E969931","019cee1c-6d61-7a7a-85e2-30e2bfc3380c","019cee19-8919-70b9-b165-8101f98d5def","","null","
                <div class=""stimulus-container"">
                    <img src=""images/instructions/movie_4.png"" class=""exp-image"">
                    <div class=""question-area""></div> 
                </div>","null","","","","","","","","","","",""
"","","","","","html-button-response","13","79966","0.0-13.0","067F98EEB233492ABF5563CF1E969931","019cee1c-6d61-7a7a-85e2-30e2bfc3380c","019cee19-8919-70b9-b165-8101f98d5def","","717","
                <div class=""stimulus-container"">
                    <img src=""images/instructions/movie_4.png"" class=""exp-image"">
                    <div class=""question-area"">
                        <p style=""font-size: 20px; font-weight: bold; margin: 0;"">Was there a person in this image?</p>
                    </div>
                </div>","0","example_question","4","","","","","","","","",""
"","","","","","instructions","14","81184","0.0-14.0","067F98EEB233492ABF5563CF1E969931","019cee1c-6d61-7a7a-85e2-30e2bfc3380c","019cee19-8919-70b9-b165-8101f98d5def","[{""page_index"":0,""viewing_time"":1217}]","1217","","","","","","","","","","","","",""
"","","","","","instructions","15","83641","0.0-15.0","067F98EEB233492ABF5563CF1E969931","019cee1c-6d61-7a7a-85e2-30e2bfc3380c","019cee19-8919-70b9-b165-8101f98d5def","[{""page_index"":0,""viewing_time"":2457}]","2457","","","","","","","","","","","","",""
"","","","","","html-keyboard-response","16","84652","0.0-16.0","067F98EEB233492ABF5563CF1E969931","019cee1c-6d61-7a7a-85e2-30e2bfc3380c","019cee19-8919-70b9-b165-8101f98d5def","","null","<div style=""background-color: white; width: 100vw; height: 100vh;""></div>","null","","","","","","","","","","",""
"","","","","","html-keyboard-response","17","89652","0.0-17.0","067F98EEB233492ABF5563CF1E969931","019cee1c-6d61-7a7a-85e2-30e2bfc3380c","019cee19-8919-70b9-b165-8101f98d5def","","null","
                <div class=""stimulus-container"">
                    <img src=""images/causal_sequence/the_performance_causal/the_performance_causal_1.png"" class=""exp-image"">
                    <div class=""question-area""></div> 
                </div>","null","","","","","","","","","","",""
"","","","","","html-button-response","18","90413","0.0-18.0","067F98EEB233492ABF5563CF1E969931","019cee1c-6d61-7a7a-85e2-30e2bfc3380c","019cee19-8919-70b9-b165-8101f98d5def","","760","
                <div class=""stimulus-container"">
                    <img src=""images/causal_sequence/the_performance_causal/the_performance_causal_1.png"" class=""exp-image"">
                    <div class=""question-area"">
                        <p style=""font-size: 20px; font-weight: bold; margin: 0;"">Is there a person in this image?</p>
                    </div>
                </div>","0","main_experiment_trial","1","the_performance_causal","causal_sequence","","","","","","",""
"","","","","","html-keyboard-response","19","95415","0.0-19.0","067F98EEB233492ABF5563CF1E969931","019cee1c-6d61-7a7a-85e2-30e2bfc3380c","019cee19-8919-70b9-b165-8101f98d5def","","null","
                <div class=""stimulus-container"">
                    <img src=""images/causal_sequence/the_performance_causal/the_performance_causal_2.png"" class=""exp-image"">
                    <div class=""question-area""></div> 
                </div>","null","","","","","","","","","","",""
"","","","","","html-button-response","20","96209","0.0-20.0","067F98EEB233492ABF5563CF1E969931","019cee1c-6d61-7a7a-85e2-30e2bfc3380c","019cee19-8919-70b9-b165-8101f98d5def","","793","
                <div class=""stimulus-container"">
                    <img src=""images/causal_sequence/the_performance_causal/the_performance_causal_2.png"" class=""exp-image"">
                    <div class=""question-area"">
                        <p style=""font-size: 20px; font-weight: bold; margin: 0;"">Is there a person in this image?</p>
                    </div>
                </div>","0","main_experiment_trial","2","the_performance_causal","causal_sequence","","","","","","",""
"","","","","","html-keyboard-response","21","101214","0.0-21.0","067F98EEB233492ABF5563CF1E969931","019cee1c-6d61-7a7a-85e2-30e2bfc3380c","019cee19-8919-70b9-b165-8101f98d5def","","null","
                <div class=""stimulus-container"">
                    <img src=""images/causal_sequence/the_performance_causal/the_performance_causal_3.png"" class=""exp-image"">
                    <div class=""question-area""></div> 
                </div>","null","","","","","","","","","","",""
"","","","","","html-button-response","22","102203","0.0-22.0","067F98EEB233492ABF5563CF1E969931","019cee1c-6d61-7a7a-85e2-30e2bfc3380c","019cee19-8919-70b9-b165-8101f98d5def","","989","
                <div class=""stimulus-container"">
                    <img src=""images/causal_sequence/the_performance_causal/the_performance_causal_3.png"" class=""exp-image"">
                    <div class=""question-area"">
                        <p style=""font-size: 20px; font-weight: bold; margin: 0;"">Is there a person in this image?</p>
                    </div>
                </div>","0","main_experiment_trial","3","the_performance_causal","causal_sequence","","","","","","",""
"","","","","","html-keyboard-response","23","107212","0.0-23.0","067F98EEB233492ABF5563CF1E969931","019cee1c-6d61-7a7a-85e2-30e2bfc3380c","019cee19-8919-70b9-b165-8101f98d5def","","null","
                <div class=""stimulus-container"">
                    <img src=""images/causal_sequence/the_performance_causal/the_performance_causal_4.png"" class=""exp-image"">
                    <div class=""question-area""></div> 
                </div>","null","","","","","","","","","","",""
"","","","","","html-button-response","24","107921","0.0-24.0","067F98EEB233492ABF5563CF1E969931","019cee1c-6d61-7a7a-85e2-30e2bfc3380c","019cee19-8919-70b9-b165-8101f98d5def","","707","
                <div class=""stimulus-container"">
                    <img src=""images/causal_sequence/the_performance_causal/the_performance_causal_4.png"" class=""exp-image"">
                    <div class=""question-area"">
                        <p style=""font-size: 20px; font-weight: bold; margin: 0;"">Is there a person in this image?</p>
                    </div>
                </div>","0","main_experiment_trial","4","the_performance_causal","causal_sequence","","","","","","",""
"","","","","","html-keyboard-response","25","112927","0.0-25.0","067F98EEB233492ABF5563CF1E969931","019cee1c-6d61-7a7a-85e2-30e2bfc3380c","019cee19-8919-70b9-b165-8101f98d5def","","null","
                <div class=""stimulus-container"">
                    <img src=""images/causal_sequence/the_performance_causal/the_performance_causal_5.png"" class=""exp-image"">
                    <div class=""question-area""></div> 
                </div>","null","","","","","","","","","","",""
"","","","","","html-button-response","26","113459","0.0-26.0","067F98EEB233492ABF5563CF1E969931","019cee1c-6d61-7a7a-85e2-30e2bfc3380c","019cee19-8919-70b9-b165-8101f98d5def","","531","
                <div class=""stimulus-container"">
                    <img src=""images/causal_sequence/the_performance_causal/the_performance_causal_5.png"" class=""exp-image"">
                    <div class=""question-area"">
                        <p style=""font-size: 20px; font-weight: bold; margin: 0;"">Is there a person in this image?</p>
                    </div>
                </div>","0","main_experiment_trial","5","the_performance_causal","causal_sequence","","","","","","",""
"","","","","","html-keyboard-response","27","118471","0.0-27.0","067F98EEB233492ABF5563CF1E969931","019cee1c-6d61-7a7a-85e2-30e2bfc3380c","019cee19-8919-70b9-b165-8101f98d5def","","null","
                <div class=""stimulus-container"">
                    <img src=""images/causal_sequence/the_performance_causal/the_performance_causal_6.png"" class=""exp-image"">
                    <div class=""question-area""></div> 
                </div>","null","","","","","","","","","","",""
"","","","","","html-button-response","28","119081","0.0-28.0","067F98EEB233492ABF5563CF1E969931","019cee1c-6d61-7a7a-85e2-30e2bfc3380c","019cee19-8919-70b9-b165-8101f98d5def","","609","
                <div class=""stimulus-container"">
                    <img src=""images/causal_sequence/the_performance_causal/the_performance_causal_6.png"" class=""exp-image"">
                    <div class=""question-area"">
                        <p style=""font-size: 20px; font-weight: bold; margin: 0;"">Is there a person in this image?</p>
                    </div>
                </div>","0","main_experiment_trial","6","the_performance_causal","causal_sequence","","","","","","",""
"","","","","","html-keyboard-response","29","124082","0.0-29.0","067F98EEB233492ABF5563CF1E969931","019cee1c-6d61-7a7a-85e2-30e2bfc3380c","019cee19-8919-70b9-b165-8101f98d5def","","null","
                <div class=""stimulus-container"">
                    <img src=""images/causal_sequence/the_performance_causal/the_performance_causal_7.png"" class=""exp-image"">
                    <div class=""question-area""></div> 
                </div>","null","","","","","","","","","","",""
"","","","","","html-button-response","30","124570","0.0-30.0","067F98EEB233492ABF5563CF1E969931","019cee1c-6d61-7a7a-85e2-30e2bfc3380c","019cee19-8919-70b9-b165-8101f98d5def","","488","
                <div class=""stimulus-container"">
                    <img src=""images/causal_sequence/the_performance_causal/the_performance_causal_7.png"" class=""exp-image"">
                    <div class=""question-area"">
                        <p style=""font-size: 20px; font-weight: bold; margin: 0;"">Is there a person in this image?</p>
                    </div>
                </div>","0","main_experiment_trial","7","the_performance_causal","causal_sequence","","","","","","",""
"","","","","","html-keyboard-response","31","129576","0.0-31.0","067F98EEB233492ABF5563CF1E969931","019cee1c-6d61-7a7a-85e2-30e2bfc3380c","019cee19-8919-70b9-b165-8101f98d5def","","null","
                <div class=""stimulus-container"">
                    <img src=""images/causal_sequence/the_performance_causal/the_performance_causal_8.png"" class=""exp-image"">
                    <div class=""question-area""></div> 
                </div>","null","","","","","","","","","","",""
"","","","","","html-button-response","32","130137","0.0-32.0","067F98EEB233492ABF5563CF1E969931","019cee1c-6d61-7a7a-85e2-30e2bfc3380c","019cee19-8919-70b9-b165-8101f98d5def","","560","
                <div class=""stimulus-container"">
                    <img src=""images/causal_sequence/the_performance_causal/the_performance_causal_8.png"" class=""exp-image"">
                    <div class=""question-area"">
                        <p style=""font-size: 20px; font-weight: bold; margin: 0;"">Is there a person in this image?</p>
                    </div>
                </div>","0","main_experiment_trial","8","the_performance_causal","causal_sequence","","","","","","",""
"","","","","","html-keyboard-response","33","135138","0.0-33.0","067F98EEB233492ABF5563CF1E969931","019cee1c-6d61-7a7a-85e2-30e2bfc3380c","019cee19-8919-70b9-b165-8101f98d5def","","null","
                <div class=""stimulus-container"">
                    <img src=""images/causal_sequence/the_performance_causal/the_performance_causal_9.png"" class=""exp-image"">
                    <div class=""question-area""></div> 
                </div>","null","","","","","","","","","","",""
"","","","","","html-button-response","34","136077","0.0-34.0","067F98EEB233492ABF5563CF1E969931","019cee1c-6d61-7a7a-85e2-30e2bfc3380c","019cee19-8919-70b9-b165-8101f98d5def","","938","
                <div class=""stimulus-container"">
                    <img src=""images/causal_sequence/the_performance_causal/the_performance_causal_9.png"" class=""exp-image"">
                    <div class=""question-area"">
                        <p style=""font-size: 20px; font-weight: bold; margin: 0;"">Is there a person in this image?</p>
                    </div>
                </div>","0","main_experiment_trial","9","the_performance_causal","causal_sequence","","","","","","",""
"","","","","","html-keyboard-response","35","141087","0.0-35.0","067F98EEB233492ABF5563CF1E969931","019cee1c-6d61-7a7a-85e2-30e2bfc3380c","019cee19-8919-70b9-b165-8101f98d5def","","null","
                <div class=""stimulus-container"">
                    <img src=""images/causal_sequence/the_performance_causal/the_performance_causal_ten.png"" class=""exp-image"">
                    <div class=""question-area""></div> 
                </div>","null","","","","","","","","","","",""
"","","","","","html-button-response","36","141807","0.0-36.0","067F98EEB233492ABF5563CF1E969931","019cee1c-6d61-7a7a-85e2-30e2bfc3380c","019cee19-8919-70b9-b165-8101f98d5def","","719","
                <div class=""stimulus-container"">
                    <img src=""images/causal_sequence/the_performance_causal/the_performance_causal_ten.png"" class=""exp-image"">
                    <div class=""question-area"">
                        <p style=""font-size: 20px; font-weight: bold; margin: 0;"">Is there a person in this image?</p>
                    </div>
                </div>","0","main_experiment_trial","ten","the_performance_causal","causal_sequence","","","","","","",""
"","","","","","html-keyboard-response","37","142820","0.0-37.0","067F98EEB233492ABF5563CF1E969931","019cee1c-6d61-7a7a-85e2-30e2bfc3380c","019cee19-8919-70b9-b165-8101f98d5def","","null","<div style=""background-color: white; width: 100vw; height: 100vh;""></div>","null","","","","","","","","","","",""
"","","","","","html-keyboard-response","38","147823","0.0-38.0","067F98EEB233492ABF5563CF1E969931","019cee1c-6d61-7a7a-85e2-30e2bfc3380c","019cee19-8919-70b9-b165-8101f98d5def","","null","
                <div class=""stimulus-container"">
                    <img src=""images/schematic_sequence/supermarket_scheme/supermarket_scheme_1.png"" class=""exp-image"">
                    <div class=""question-area""></div> 
                </div>","null","","","","","","","","","","",""
"","","","","","html-button-response","39","148484","0.0-39.0","067F98EEB233492ABF5563CF1E969931","019cee1c-6d61-7a7a-85e2-30e2bfc3380c","019cee19-8919-70b9-b165-8101f98d5def","","660","
                <div class=""stimulus-container"">
                    <img src=""images/schematic_sequence/supermarket_scheme/supermarket_scheme_1.png"" class=""exp-image"">
                    <div class=""question-area"">
                        <p style=""font-size: 20px; font-weight: bold; margin: 0;"">Is there a person in this image?</p>
                    </div>
                </div>","1","main_experiment_trial","1","supermarket_scheme","schematic_sequence","","","","","","",""
"","","","","","html-keyboard-response","40","153485","0.0-40.0","067F98EEB233492ABF5563CF1E969931","019cee1c-6d61-7a7a-85e2-30e2bfc3380c","019cee19-8919-70b9-b165-8101f98d5def","","null","
                <div class=""stimulus-container"">
                    <img src=""images/schematic_sequence/supermarket_scheme/supermarket_scheme_2.png"" class=""exp-image"">
                    <div class=""question-area""></div> 
                </div>","null","","","","","","","","","","",""
"","","","","","html-button-response","41","154902","0.0-41.0","067F98EEB233492ABF5563CF1E969931","019cee1c-6d61-7a7a-85e2-30e2bfc3380c","019cee19-8919-70b9-b165-8101f98d5def","","1416","
                <div class=""stimulus-container"">
                    <img src=""images/schematic_sequence/supermarket_scheme/supermarket_scheme_2.png"" class=""exp-image"">
                    <div class=""question-area"">
                        <p style=""font-size: 20px; font-weight: bold; margin: 0;"">Is there a person in this image?</p>
                    </div>
                </div>","1","main_experiment_trial","2","supermarket_scheme","schematic_sequence","","","","","","",""
"","","","","","html-keyboard-response","42","159915","0.0-42.0","067F98EEB233492ABF5563CF1E969931","019cee1c-6d61-7a7a-85e2-30e2bfc3380c","019cee19-8919-70b9-b165-8101f98d5def","","null","
                <div class=""stimulus-container"">
                    <img src=""images/schematic_sequence/supermarket_scheme/supermarket_scheme_3.png"" class=""exp-image"">
                    <div class=""question-area""></div> 
                </div>","null","","","","","","","","","","",""
"","","","","","html-button-response","43","161345","0.0-43.0","067F98EEB233492ABF5563CF1E969931","019cee1c-6d61-7a7a-85e2-30e2bfc3380c","019cee19-8919-70b9-b165-8101f98d5def","","1429","
                <div class=""stimulus-container"">
                    <img src=""images/schematic_sequence/supermarket_scheme/supermarket_scheme_3.png"" class=""exp-image"">
                    <div class=""question-area"">
                        <p style=""font-size: 20px; font-weight: bold; margin: 0;"">Is there a person in this image?</p>
                    </div>
                </div>","1","main_experiment_trial","3","supermarket_scheme","schematic_sequence","","","","","","",""
"","","","","","html-keyboard-response","44","166358","0.0-44.0","067F98EEB233492ABF5563CF1E969931","019cee1c-6d61-7a7a-85e2-30e2bfc3380c","019cee19-8919-70b9-b165-8101f98d5def","","null","
                <div class=""stimulus-container"">
                    <img src=""images/schematic_sequence/supermarket_scheme/supermarket_scheme_4.png"" class=""exp-image"">
                    <div class=""question-area""></div> 
                </div>","null","","","","","","","","","","",""
"","","","","","html-button-response","45","166781","0.0-45.0","067F98EEB233492ABF5563CF1E969931","019cee1c-6d61-7a7a-85e2-30e2bfc3380c","019cee19-8919-70b9-b165-8101f98d5def","","422","
                <div class=""stimulus-container"">
                    <img src=""images/schematic_sequence/supermarket_scheme/supermarket_scheme_4.png"" class=""exp-image"">
                    <div class=""question-area"">
                        <p style=""font-size: 20px; font-weight: bold; margin: 0;"">Is there a person in this image?</p>
                    </div>
                </div>","0","main_experiment_trial","4","supermarket_scheme","schematic_sequence","","","","","","",""
"","","","","","html-keyboard-response","46","171793","0.0-46.0","067F98EEB233492ABF5563CF1E969931","019cee1c-6d61-7a7a-85e2-30e2bfc3380c","019cee19-8919-70b9-b165-8101f98d5def","","null","
                <div class=""stimulus-container"">
                    <img src=""images/schematic_sequence/supermarket_scheme/supermarket_scheme_5.png"" class=""exp-image"">
                    <div class=""question-area""></div> 
                </div>","null","","","","","","","","","","",""
"","","","","","html-button-response","47","173450","0.0-47.0","067F98EEB233492ABF5563CF1E969931","019cee1c-6d61-7a7a-85e2-30e2bfc3380c","019cee19-8919-70b9-b165-8101f98d5def","","1656","
                <div class=""stimulus-container"">
                    <img src=""images/schematic_sequence/supermarket_scheme/supermarket_scheme_5.png"" class=""exp-image"">
                    <div class=""question-area"">
                        <p style=""font-size: 20px; font-weight: bold; margin: 0;"">Is there a person in this image?</p>
                    </div>
                </div>","1","main_experiment_trial","5","supermarket_scheme","schematic_sequence","","","","","","",""
"","","","","","html-keyboard-response","48","178462","0.0-48.0","067F98EEB233492ABF5563CF1E969931","019cee1c-6d61-7a7a-85e2-30e2bfc3380c","019cee19-8919-70b9-b165-8101f98d5def","","null","
                <div class=""stimulus-container"">
                    <img src=""images/schematic_sequence/supermarket_scheme/supermarket_scheme_6.png"" class=""exp-image"">
                    <div class=""question-area""></div> 
                </div>","null","","","","","","","","","","",""
"","","","","","html-button-response","49","179311","0.0-49.0","067F98EEB233492ABF5563CF1E969931","019cee1c-6d61-7a7a-85e2-30e2bfc3380c","019cee19-8919-70b9-b165-8101f98d5def","","848","
                <div class=""stimulus-container"">
                    <img src=""images/schematic_sequence/supermarket_scheme/supermarket_scheme_6.png"" class=""exp-image"">
                    <div class=""question-area"">
                        <p style=""font-size: 20px; font-weight: bold; margin: 0;"">Is there a person in this image?</p>
                    </div>
                </div>","0","main_experiment_trial","6","supermarket_scheme","schematic_sequence","","","","","","",""
"","","","","","html-keyboard-response","50","184327","0.0-50.0","067F98EEB233492ABF5563CF1E969931","019cee1c-6d61-7a7a-85e2-30e2bfc3380c","019cee19-8919-70b9-b165-8101f98d5def","","null","
                <div class=""stimulus-container"">
                    <img src=""images/schematic_sequence/supermarket_scheme/supermarket_scheme_7.png"" class=""exp-image"">
                    <div class=""question-area""></div> 
                </div>","null","","","","","","","","","","",""
"","","","","","html-button-response","51","185352","0.0-51.0","067F98EEB233492ABF5563CF1E969931","019cee1c-6d61-7a7a-85e2-30e2bfc3380c","019cee19-8919-70b9-b165-8101f98d5def","","1024","
                <div class=""stimulus-container"">
                    <img src=""images/schematic_sequence/supermarket_scheme/supermarket_scheme_7.png"" class=""exp-image"">
                    <div class=""question-area"">
                        <p style=""font-size: 20px; font-weight: bold; margin: 0;"">Is there a person in this image?</p>
                    </div>
                </div>","0","main_experiment_trial","7","supermarket_scheme","schematic_sequence","","","","","","",""
"","","","","","html-keyboard-response","52","190366","0.0-52.0","067F98EEB233492ABF5563CF1E969931","019cee1c-6d61-7a7a-85e2-30e2bfc3380c","019cee19-8919-70b9-b165-8101f98d5def","","null","
                <div class=""stimulus-container"">
                    <img src=""images/schematic_sequence/supermarket_scheme/supermarket_scheme_8.png"" class=""exp-image"">
                    <div class=""question-area""></div> 
                </div>","null","","","","","","","","","","",""
"","","","","","html-button-response","53","191830","0.0-53.0","067F98EEB233492ABF5563CF1E969931","019cee1c-6d61-7a7a-85e2-30e2bfc3380c","019cee19-8919-70b9-b165-8101f98d5def","","1463","
                <div class=""stimulus-container"">
                    <img src=""images/schematic_sequence/supermarket_scheme/supermarket_scheme_8.png"" class=""exp-image"">
                    <div class=""question-area"">
                        <p style=""font-size: 20px; font-weight: bold; margin: 0;"">Is there a person in this image?</p>
                    </div>
                </div>","0","main_experiment_trial","8","supermarket_scheme","schematic_sequence","","","","","","",""
"","","","","","html-keyboard-response","54","196845","0.0-54.0","067F98EEB233492ABF5563CF1E969931","019cee1c-6d61-7a7a-85e2-30e2bfc3380c","019cee19-8919-70b9-b165-8101f98d5def","","null","
                <div class=""stimulus-container"">
                    <img src=""images/schematic_sequence/supermarket_scheme/supermarket_scheme_9.png"" class=""exp-image"">
                    <div class=""question-area""></div> 
                </div>","null","","","","","","","","","","",""
"","","","","","html-button-response","55","197224","0.0-55.0","067F98EEB233492ABF5563CF1E969931","019cee1c-6d61-7a7a-85e2-30e2bfc3380c","019cee19-8919-70b9-b165-8101f98d5def","","379","
                <div class=""stimulus-container"">
                    <img src=""images/schematic_sequence/supermarket_scheme/supermarket_scheme_9.png"" class=""exp-image"">
                    <div class=""question-area"">
                        <p style=""font-size: 20px; font-weight: bold; margin: 0;"">Is there a person in this image?</p>
                    </div>
                </div>","0","main_experiment_trial","9","supermarket_scheme","schematic_sequence","","","","","","",""
"","","","","","html-keyboard-response","56","202232","0.0-56.0","067F98EEB233492ABF5563CF1E969931","019cee1c-6d61-7a7a-85e2-30e2bfc3380c","019cee19-8919-70b9-b165-8101f98d5def","","null","
                <div class=""stimulus-container"">
                    <img src=""images/schematic_sequence/supermarket_scheme/supermarket_scheme_ten.png"" class=""exp-image"">
                    <div class=""question-area""></div> 
                </div>","null","","","","","","","","","","",""
"","","","","","html-button-response","57","204206","0.0-57.0","067F98EEB233492ABF5563CF1E969931","019cee1c-6d61-7a7a-85e2-30e2bfc3380c","019cee19-8919-70b9-b165-8101f98d5def","","1973","
                <div class=""stimulus-container"">
                    <img src=""images/schematic_sequence/supermarket_scheme/supermarket_scheme_ten.png"" class=""exp-image"">
                    <div class=""question-area"">
                        <p style=""font-size: 20px; font-weight: bold; margin: 0;"">Is there a person in this image?</p>
                    </div>
                </div>","1","main_experiment_trial","ten","supermarket_scheme","schematic_sequence","","","","","","",""
"","","","","","html-keyboard-response","58","205211","0.0-58.0","067F98EEB233492ABF5563CF1E969931","019cee1c-6d61-7a7a-85e2-30e2bfc3380c","019cee19-8919-70b9-b165-8101f98d5def","","null","<div style=""background-color: white; width: 100vw; height: 100vh;""></div>","null","","","","","","","","","","",""
"","","","","","html-keyboard-response","59","210214","0.0-59.0","067F98EEB233492ABF5563CF1E969931","019cee1c-6d61-7a7a-85e2-30e2bfc3380c","019cee19-8919-70b9-b165-8101f98d5def","","null","
                <div class=""stimulus-container"">
                    <img src=""images/schematic_sequence/dinner_party_scheme/dinner_party_scheme_1.png"" class=""exp-image"">
                    <div class=""question-area""></div> 
                </div>","null","","","","","","","","","","",""
"","","","","","html-button-response","60","210894","0.0-60.0","067F98EEB233492ABF5563CF1E969931","019cee1c-6d61-7a7a-85e2-30e2bfc3380c","019cee19-8919-70b9-b165-8101f98d5def","","679","
                <div class=""stimulus-container"">
                    <img src=""images/schematic_sequence/dinner_party_scheme/dinner_party_scheme_1.png"" class=""exp-image"">
                    <div class=""question-area"">
                        <p style=""font-size: 20px; font-weight: bold; margin: 0;"">Is there a person in this image?</p>
                    </div>
                </div>","0","main_experiment_trial","1","dinner_party_scheme","schematic_sequence","","","","","","",""
"","","","","","html-keyboard-response","61","215897","0.0-61.0","067F98EEB233492ABF5563CF1E969931","019cee1c-6d61-7a7a-85e2-30e2bfc3380c","019cee19-8919-70b9-b165-8101f98d5def","","null","
                <div class=""stimulus-container"">
                    <img src=""images/schematic_sequence/dinner_party_scheme/dinner_party_scheme_2.png"" class=""exp-image"">
                    <div class=""question-area""></div> 
                </div>","null","","","","","","","","","","",""
"","","","","","html-button-response","62","216599","0.0-62.0","067F98EEB233492ABF5563CF1E969931","019cee1c-6d61-7a7a-85e2-30e2bfc3380c","019cee19-8919-70b9-b165-8101f98d5def","","702","
                <div class=""stimulus-container"">
                    <img src=""images/schematic_sequence/dinner_party_scheme/dinner_party_scheme_2.png"" class=""exp-image"">
                    <div class=""question-area"">
                        <p style=""font-size: 20px; font-weight: bold; margin: 0;"">Is there a person in this image?</p>
                    </div>
                </div>","0","main_experiment_trial","2","dinner_party_scheme","schematic_sequence","","","","","","",""
"","","","","","html-keyboard-response","63","221601","0.0-63.0","067F98EEB233492ABF5563CF1E969931","019cee1c-6d61-7a7a-85e2-30e2bfc3380c","019cee19-8919-70b9-b165-8101f98d5def","","null","
                <div class=""stimulus-container"">
                    <img src=""images/schematic_sequence/dinner_party_scheme/dinner_party_scheme_3.png"" class=""exp-image"">
                    <div class=""question-area""></div> 
                </div>","null","","","","","","","","","","",""
"","","","","","html-button-response","64","222328","0.0-64.0","067F98EEB233492ABF5563CF1E969931","019cee1c-6d61-7a7a-85e2-30e2bfc3380c","019cee19-8919-70b9-b165-8101f98d5def","","727","
                <div class=""stimulus-container"">
                    <img src=""images/schematic_sequence/dinner_party_scheme/dinner_party_scheme_3.png"" class=""exp-image"">
                    <div class=""question-area"">
                        <p style=""font-size: 20px; font-weight: bold; margin: 0;"">Is there a person in this image?</p>
                    </div>
                </div>","0","main_experiment_trial","3","dinner_party_scheme","schematic_sequence","","","","","","",""
"","","","","","html-keyboard-response","65","227335","0.0-65.0","067F98EEB233492ABF5563CF1E969931","019cee1c-6d61-7a7a-85e2-30e2bfc3380c","019cee19-8919-70b9-b165-8101f98d5def","","null","
                <div class=""stimulus-container"">
                    <img src=""images/schematic_sequence/dinner_party_scheme/dinner_party_scheme_4.png"" class=""exp-image"">
                    <div class=""question-area""></div> 
                </div>","null","","","","","","","","","","",""
"","","","","","html-button-response","66","227788","0.0-66.0","067F98EEB233492ABF5563CF1E969931","019cee1c-6d61-7a7a-85e2-30e2bfc3380c","019cee19-8919-70b9-b165-8101f98d5def","","453","
                <div class=""stimulus-container"">
                    <img src=""images/schematic_sequence/dinner_party_scheme/dinner_party_scheme_4.png"" class=""exp-image"">
                    <div class=""question-area"">
                        <p style=""font-size: 20px; font-weight: bold; margin: 0;"">Is there a person in this image?</p>
                    </div>
                </div>","0","main_experiment_trial","4","dinner_party_scheme","schematic_sequence","","","","","","",""
"","","","","","html-keyboard-response","67","232805","0.0-67.0","067F98EEB233492ABF5563CF1E969931","019cee1c-6d61-7a7a-85e2-30e2bfc3380c","019cee19-8919-70b9-b165-8101f98d5def","","null","
                <div class=""stimulus-container"">
                    <img src=""images/schematic_sequence/dinner_party_scheme/dinner_party_scheme_5.png"" class=""exp-image"">
                    <div class=""question-area""></div> 
                </div>","null","","","","","","","","","","",""
"","","","","","html-button-response","68","233704","0.0-68.0","067F98EEB233492ABF5563CF1E969931","019cee1c-6d61-7a7a-85e2-30e2bfc3380c","019cee19-8919-70b9-b165-8101f98d5def","","899","
                <div class=""stimulus-container"">
                    <img src=""images/schematic_sequence/dinner_party_scheme/dinner_party_scheme_5.png"" class=""exp-image"">
                    <div class=""question-area"">
                        <p style=""font-size: 20px; font-weight: bold; margin: 0;"">Is there a person in this image?</p>
                    </div>
                </div>","0","main_experiment_trial","5","dinner_party_scheme","schematic_sequence","","","","","","",""
"","","","","","html-keyboard-response","69","238706","0.0-69.0","067F98EEB233492ABF5563CF1E969931","019cee1c-6d61-7a7a-85e2-30e2bfc3380c","019cee19-8919-70b9-b165-8101f98d5def","","null","
                <div class=""stimulus-container"">
                    <img src=""images/schematic_sequence/dinner_party_scheme/dinner_party_scheme_6.png"" class=""exp-image"">
                    <div class=""question-area""></div> 
                </div>","null","","","","","","","","","","",""
"","","","","","html-button-response","70","240326","0.0-70.0","067F98EEB233492ABF5563CF1E969931","019cee1c-6d61-7a7a-85e2-30e2bfc3380c","019cee19-8919-70b9-b165-8101f98d5def","","1620","
                <div class=""stimulus-container"">
                    <img src=""images/schematic_sequence/dinner_party_scheme/dinner_party_scheme_6.png"" class=""exp-image"">
                    <div class=""question-area"">
                        <p style=""font-size: 20px; font-weight: bold; margin: 0;"">Is there a person in this image?</p>
                    </div>
                </div>","0","main_experiment_trial","6","dinner_party_scheme","schematic_sequence","","","","","","",""
"","","","","","html-keyboard-response","71","245330","0.0-71.0","067F98EEB233492ABF5563CF1E969931","019cee1c-6d61-7a7a-85e2-30e2bfc3380c","019cee19-8919-70b9-b165-8101f98d5def","","null","
                <div class=""stimulus-container"">
                    <img src=""images/schematic_sequence/dinner_party_scheme/dinner_party_scheme_7.png"" class=""exp-image"">
                    <div class=""question-area""></div> 
                </div>","null","","","","","","","","","","",""
"","","","","","html-button-response","72","245684","0.0-72.0","067F98EEB233492ABF5563CF1E969931","019cee1c-6d61-7a7a-85e2-30e2bfc3380c","019cee19-8919-70b9-b165-8101f98d5def","","354","
                <div class=""stimulus-container"">
                    <img src=""images/schematic_sequence/dinner_party_scheme/dinner_party_scheme_7.png"" class=""exp-image"">
                    <div class=""question-area"">
                        <p style=""font-size: 20px; font-weight: bold; margin: 0;"">Is there a person in this image?</p>
                    </div>
                </div>","0","main_experiment_trial","7","dinner_party_scheme","schematic_sequence","","","","","","",""
"","","","","","html-keyboard-response","73","250690","0.0-73.0","067F98EEB233492ABF5563CF1E969931","019cee1c-6d61-7a7a-85e2-30e2bfc3380c","019cee19-8919-70b9-b165-8101f98d5def","","null","
                <div class=""stimulus-container"">
                    <img src=""images/schematic_sequence/dinner_party_scheme/dinner_party_scheme_8.png"" class=""exp-image"">
                    <div class=""question-area""></div> 
                </div>","null","","","","","","","","","","",""
"","","","","","html-button-response","74","251269","0.0-74.0","067F98EEB233492ABF5563CF1E969931","019cee1c-6d61-7a7a-85e2-30e2bfc3380c","019cee19-8919-70b9-b165-8101f98d5def","","579","
                <div class=""stimulus-container"">
                    <img src=""images/schematic_sequence/dinner_party_scheme/dinner_party_scheme_8.png"" class=""exp-image"">
                    <div class=""question-area"">
                        <p style=""font-size: 20px; font-weight: bold; margin: 0;"">Is there a person in this image?</p>
                    </div>
                </div>","0","main_experiment_trial","8","dinner_party_scheme","schematic_sequence","","","","","","",""
"","","","","","html-keyboard-response","75","256279","0.0-75.0","067F98EEB233492ABF5563CF1E969931","019cee1c-6d61-7a7a-85e2-30e2bfc3380c","019cee19-8919-70b9-b165-8101f98d5def","","null","
                <div class=""stimulus-container"">
                    <img src=""images/schematic_sequence/dinner_party_scheme/dinner_party_scheme_9.png"" class=""exp-image"">
                    <div class=""question-area""></div> 
                </div>","null","","","","","","","","","","",""
"","","","","","html-button-response","76","257695","0.0-76.0","067F98EEB233492ABF5563CF1E969931","019cee1c-6d61-7a7a-85e2-30e2bfc3380c","019cee19-8919-70b9-b165-8101f98d5def","","1415","
                <div class=""stimulus-container"">
                    <img src=""images/schematic_sequence/dinner_party_scheme/dinner_party_scheme_9.png"" class=""exp-image"">
                    <div class=""question-area"">
                        <p style=""font-size: 20px; font-weight: bold; margin: 0;"">Is there a person in this image?</p>
                    </div>
                </div>","0","main_experiment_trial","9","dinner_party_scheme","schematic_sequence","","","","","","",""
"","","","","","html-keyboard-response","77","262700","0.0-77.0","067F98EEB233492ABF5563CF1E969931","019cee1c-6d61-7a7a-85e2-30e2bfc3380c","019cee19-8919-70b9-b165-8101f98d5def","","null","
                <div class=""stimulus-container"">
                    <img src=""images/schematic_sequence/dinner_party_scheme/dinner_party_scheme_ten.png"" class=""exp-image"">
                    <div class=""question-area""></div> 
                </div>","null","","","","","","","","","","",""
"","","","","","html-button-response","78","263388","0.0-78.0","067F98EEB233492ABF5563CF1E969931","019cee1c-6d61-7a7a-85e2-30e2bfc3380c","019cee19-8919-70b9-b165-8101f98d5def","","688","
                <div class=""stimulus-container"">
                    <img src=""images/schematic_sequence/dinner_party_scheme/dinner_party_scheme_ten.png"" class=""exp-image"">
                    <div class=""question-area"">
                        <p style=""font-size: 20px; font-weight: bold; margin: 0;"">Is there a person in this image?</p>
                    </div>
                </div>","0","main_experiment_trial","ten","dinner_party_scheme","schematic_sequence","","","","","","",""
"","","","","","html-keyboard-response","79","264407","0.0-79.0","067F98EEB233492ABF5563CF1E969931","019cee1c-6d61-7a7a-85e2-30e2bfc3380c","019cee19-8919-70b9-b165-8101f98d5def","","null","<div style=""background-color: white; width: 100vw; height: 100vh;""></div>","null","","","","","","","","","","",""
"","","","","","html-keyboard-response","80","269421","0.0-80.0","067F98EEB233492ABF5563CF1E969931","019cee1c-6d61-7a7a-85e2-30e2bfc3380c","019cee19-8919-70b9-b165-8101f98d5def","","null","
                <div class=""stimulus-container"">
                    <img src=""images/schematic_sequence/flight_scheme/flight_scheme_1.png"" class=""exp-image"">
                    <div class=""question-area""></div> 
                </div>","null","","","","","","","","","","",""
"","","","","","html-button-response","81","270425","0.0-81.0","067F98EEB233492ABF5563CF1E969931","019cee1c-6d61-7a7a-85e2-30e2bfc3380c","019cee19-8919-70b9-b165-8101f98d5def","","1003","
                <div class=""stimulus-container"">
                    <img src=""images/schematic_sequence/flight_scheme/flight_scheme_1.png"" class=""exp-image"">
                    <div class=""question-area"">
                        <p style=""font-size: 20px; font-weight: bold; margin: 0;"">Is there a person in this image?</p>
                    </div>
                </div>","0","main_experiment_trial","1","flight_scheme","schematic_sequence","","","","","","",""
"","","","","","html-keyboard-response","82","275433","0.0-82.0","067F98EEB233492ABF5563CF1E969931","019cee1c-6d61-7a7a-85e2-30e2bfc3380c","019cee19-8919-70b9-b165-8101f98d5def","","null","
                <div class=""stimulus-container"">
                    <img src=""images/schematic_sequence/flight_scheme/flight_scheme_2.png"" class=""exp-image"">
                    <div class=""question-area""></div> 
                </div>","null","","","","","","","","","","",""
"","","","","","html-button-response","83","276545","0.0-83.0","067F98EEB233492ABF5563CF1E969931","019cee1c-6d61-7a7a-85e2-30e2bfc3380c","019cee19-8919-70b9-b165-8101f98d5def","","1110","
                <div class=""stimulus-container"">
                    <img src=""images/schematic_sequence/flight_scheme/flight_scheme_2.png"" class=""exp-image"">
                    <div class=""question-area"">
                        <p style=""font-size: 20px; font-weight: bold; margin: 0;"">Is there a person in this image?</p>
                    </div>
                </div>","1","main_experiment_trial","2","flight_scheme","schematic_sequence","","","","","","",""
"","","","","","html-keyboard-response","84","281549","0.0-84.0","067F98EEB233492ABF5563CF1E969931","019cee1c-6d61-7a7a-85e2-30e2bfc3380c","019cee19-8919-70b9-b165-8101f98d5def","","null","
                <div class=""stimulus-container"">
                    <img src=""images/schematic_sequence/flight_scheme/flight_scheme_3.png"" class=""exp-image"">
                    <div class=""question-area""></div> 
                </div>","null","","","","","","","","","","",""
"","","","","","html-button-response","85","282417","0.0-85.0","067F98EEB233492ABF5563CF1E969931","019cee1c-6d61-7a7a-85e2-30e2bfc3380c","019cee19-8919-70b9-b165-8101f98d5def","","868","
                <div class=""stimulus-container"">
                    <img src=""images/schematic_sequence/flight_scheme/flight_scheme_3.png"" class=""exp-image"">
                    <div class=""question-area"">
                        <p style=""font-size: 20px; font-weight: bold; margin: 0;"">Is there a person in this image?</p>
                    </div>
                </div>","0","main_experiment_trial","3","flight_scheme","schematic_sequence","","","","","","",""
"","","","","","html-keyboard-response","86","287420","0.0-86.0","067F98EEB233492ABF5563CF1E969931","019cee1c-6d61-7a7a-85e2-30e2bfc3380c","019cee19-8919-70b9-b165-8101f98d5def","","null","
                <div class=""stimulus-container"">
                    <img src=""images/schematic_sequence/flight_scheme/flight_scheme_4.png"" class=""exp-image"">
                    <div class=""question-area""></div> 
                </div>","null","","","","","","","","","","",""
"","","","","","html-button-response","87","288393","0.0-87.0","067F98EEB233492ABF5563CF1E969931","019cee1c-6d61-7a7a-85e2-30e2bfc3380c","019cee19-8919-70b9-b165-8101f98d5def","","973","
                <div class=""stimulus-container"">
                    <img src=""images/schematic_sequence/flight_scheme/flight_scheme_4.png"" class=""exp-image"">
                    <div class=""question-area"">
                        <p style=""font-size: 20px; font-weight: bold; margin: 0;"">Is there a person in this image?</p>
                    </div>
                </div>","0","main_experiment_trial","4","flight_scheme","schematic_sequence","","","","","","",""
"","","","","","html-keyboard-response","88","293402","0.0-88.0","067F98EEB233492ABF5563CF1E969931","019cee1c-6d61-7a7a-85e2-30e2bfc3380c","019cee19-8919-70b9-b165-8101f98d5def","","null","
                <div class=""stimulus-container"">
                    <img src=""images/schematic_sequence/flight_scheme/flight_scheme_5.png"" class=""exp-image"">
                    <div class=""question-area""></div> 
                </div>","null","","","","","","","","","","",""
"","","","","","html-button-response","89","294333","0.0-89.0","067F98EEB233492ABF5563CF1E969931","019cee1c-6d61-7a7a-85e2-30e2bfc3380c","019cee19-8919-70b9-b165-8101f98d5def","","931","
                <div class=""stimulus-container"">
                    <img src=""images/schematic_sequence/flight_scheme/flight_scheme_5.png"" class=""exp-image"">
                    <div class=""question-area"">
                        <p style=""font-size: 20px; font-weight: bold; margin: 0;"">Is there a person in this image?</p>
                    </div>
                </div>","0","main_experiment_trial","5","flight_scheme","schematic_sequence","","","","","","",""
"","","","","","html-keyboard-response","90","299344","0.0-90.0","067F98EEB233492ABF5563CF1E969931","019cee1c-6d61-7a7a-85e2-30e2bfc3380c","019cee19-8919-70b9-b165-8101f98d5def","","null","
                <div class=""stimulus-container"">
                    <img src=""images/schematic_sequence/flight_scheme/flight_scheme_6.png"" class=""exp-image"">
                    <div class=""question-area""></div> 
                </div>","null","","","","","","","","","","",""
"","","","","","html-button-response","91","300386","0.0-91.0","067F98EEB233492ABF5563CF1E969931","019cee1c-6d61-7a7a-85e2-30e2bfc3380c","019cee19-8919-70b9-b165-8101f98d5def","","1042","
                <div class=""stimulus-container"">
                    <img src=""images/schematic_sequence/flight_scheme/flight_scheme_6.png"" class=""exp-image"">
                    <div class=""question-area"">
                        <p style=""font-size: 20px; font-weight: bold; margin: 0;"">Is there a person in this image?</p>
                    </div>
                </div>","1","main_experiment_trial","6","flight_scheme","schematic_sequence","","","","","","",""
"","","","","","html-keyboard-response","92","305399","0.0-92.0","067F98EEB233492ABF5563CF1E969931","019cee1c-6d61-7a7a-85e2-30e2bfc3380c","019cee19-8919-70b9-b165-8101f98d5def","","null","
                <div class=""stimulus-container"">
                    <img src=""images/schematic_sequence/flight_scheme/flight_scheme_7.png"" class=""exp-image"">
                    <div class=""question-area""></div> 
                </div>","null","","","","","","","","","","",""
"","","","","","html-button-response","93","307291","0.0-93.0","067F98EEB233492ABF5563CF1E969931","019cee1c-6d61-7a7a-85e2-30e2bfc3380c","019cee19-8919-70b9-b165-8101f98d5def","","1892","
                <div class=""stimulus-container"">
                    <img src=""images/schematic_sequence/flight_scheme/flight_scheme_7.png"" class=""exp-image"">
                    <div class=""question-area"">
                        <p style=""font-size: 20px; font-weight: bold; margin: 0;"">Is there a person in this image?</p>
                    </div>
                </div>","1","main_experiment_trial","7","flight_scheme","schematic_sequence","","","","","","",""
"","","","","","html-keyboard-response","94","312295","0.0-94.0","067F98EEB233492ABF5563CF1E969931","019cee1c-6d61-7a7a-85e2-30e2bfc3380c","019cee19-8919-70b9-b165-8101f98d5def","","null","
                <div class=""stimulus-container"">
                    <img src=""images/schematic_sequence/flight_scheme/flight_scheme_8.png"" class=""exp-image"">
                    <div class=""question-area""></div> 
                </div>","null","","","","","","","","","","",""
"","","","","","html-button-response","95","313363","0.0-95.0","067F98EEB233492ABF5563CF1E969931","019cee1c-6d61-7a7a-85e2-30e2bfc3380c","019cee19-8919-70b9-b165-8101f98d5def","","1068","
                <div class=""stimulus-container"">
                    <img src=""images/schematic_sequence/flight_scheme/flight_scheme_8.png"" class=""exp-image"">
                    <div class=""question-area"">
                        <p style=""font-size: 20px; font-weight: bold; margin: 0;"">Is there a person in this image?</p>
                    </div>
                </div>","1","main_experiment_trial","8","flight_scheme","schematic_sequence","","","","","","",""
"","","","","","html-keyboard-response","96","318378","0.0-96.0","067F98EEB233492ABF5563CF1E969931","019cee1c-6d61-7a7a-85e2-30e2bfc3380c","019cee19-8919-70b9-b165-8101f98d5def","","null","
                <div class=""stimulus-container"">
                    <img src=""images/schematic_sequence/flight_scheme/flight_scheme_9.png"" class=""exp-image"">
                    <div class=""question-area""></div> 
                </div>","null","","","","","","","","","","",""
"","","","","","html-button-response","97","319512","0.0-97.0","067F98EEB233492ABF5563CF1E969931","019cee1c-6d61-7a7a-85e2-30e2bfc3380c","019cee19-8919-70b9-b165-8101f98d5def","","1133","
                <div class=""stimulus-container"">
                    <img src=""images/schematic_sequence/flight_scheme/flight_scheme_9.png"" class=""exp-image"">
                    <div class=""question-area"">
                        <p style=""font-size: 20px; font-weight: bold; margin: 0;"">Is there a person in this image?</p>
                    </div>
                </div>","0","main_experiment_trial","9","flight_scheme","schematic_sequence","","","","","","",""
"","","","","","html-keyboard-response","98","324513","0.0-98.0","067F98EEB233492ABF5563CF1E969931","019cee1c-6d61-7a7a-85e2-30e2bfc3380c","019cee19-8919-70b9-b165-8101f98d5def","","null","
                <div class=""stimulus-container"">
                    <img src=""images/schematic_sequence/flight_scheme/flight_scheme_ten.png"" class=""exp-image"">
                    <div class=""question-area""></div> 
                </div>","null","","","","","","","","","","",""
"","","","","","html-button-response","99","326206","0.0-99.0","067F98EEB233492ABF5563CF1E969931","019cee1c-6d61-7a7a-85e2-30e2bfc3380c","019cee19-8919-70b9-b165-8101f98d5def","","1692","
                <div class=""stimulus-container"">
                    <img src=""images/schematic_sequence/flight_scheme/flight_scheme_ten.png"" class=""exp-image"">
                    <div class=""question-area"">
                        <p style=""font-size: 20px; font-weight: bold; margin: 0;"">Is there a person in this image?</p>
                    </div>
                </div>","0","main_experiment_trial","ten","flight_scheme","schematic_sequence","","","","","","",""
"","","","","","html-keyboard-response","100","327209","0.0-100.0","067F98EEB233492ABF5563CF1E969931","019cee1c-6d61-7a7a-85e2-30e2bfc3380c","019cee19-8919-70b9-b165-8101f98d5def","","null","<div style=""background-color: white; width: 100vw; height: 100vh;""></div>","null","","","","","","","","","","",""
"","","","","","html-keyboard-response","101","332211","0.0-101.0","067F98EEB233492ABF5563CF1E969931","019cee1c-6d61-7a7a-85e2-30e2bfc3380c","019cee19-8919-70b9-b165-8101f98d5def","","null","
                <div class=""stimulus-container"">
                    <img src=""images/schematic_sequence/hotel_scheme/hotel_scheme_1.png"" class=""exp-image"">
                    <div class=""question-area""></div> 
                </div>","null","","","","","","","","","","",""
"","","","","","html-button-response","102","332583","0.0-102.0","067F98EEB233492ABF5563CF1E969931","019cee1c-6d61-7a7a-85e2-30e2bfc3380c","019cee19-8919-70b9-b165-8101f98d5def","","371","
                <div class=""stimulus-container"">
                    <img src=""images/schematic_sequence/hotel_scheme/hotel_scheme_1.png"" class=""exp-image"">
                    <div class=""question-area"">
                        <p style=""font-size: 20px; font-weight: bold; margin: 0;"">Is there a person in this image?</p>
                    </div>
                </div>","1","main_experiment_trial","1","hotel_scheme","schematic_sequence","","","","","","",""
"","","","","","html-keyboard-response","103","337596","0.0-103.0","067F98EEB233492ABF5563CF1E969931","019cee1c-6d61-7a7a-85e2-30e2bfc3380c","019cee19-8919-70b9-b165-8101f98d5def","","null","
                <div class=""stimulus-container"">
                    <img src=""images/schematic_sequence/hotel_scheme/hotel_scheme_2.png"" class=""exp-image"">
                    <div class=""question-area""></div> 
                </div>","null","","","","","","","","","","",""
"","","","","","html-button-response","104","338499","0.0-104.0","067F98EEB233492ABF5563CF1E969931","019cee1c-6d61-7a7a-85e2-30e2bfc3380c","019cee19-8919-70b9-b165-8101f98d5def","","902","
                <div class=""stimulus-container"">
                    <img src=""images/schematic_sequence/hotel_scheme/hotel_scheme_2.png"" class=""exp-image"">
                    <div class=""question-area"">
                        <p style=""font-size: 20px; font-weight: bold; margin: 0;"">Is there a person in this image?</p>
                    </div>
                </div>","0","main_experiment_trial","2","hotel_scheme","schematic_sequence","","","","","","",""
"","","","","","html-keyboard-response","105","343515","0.0-105.0","067F98EEB233492ABF5563CF1E969931","019cee1c-6d61-7a7a-85e2-30e2bfc3380c","019cee19-8919-70b9-b165-8101f98d5def","","null","
                <div class=""stimulus-container"">
                    <img src=""images/schematic_sequence/hotel_scheme/hotel_scheme_3.png"" class=""exp-image"">
                    <div class=""question-area""></div> 
                </div>","null","","","","","","","","","","",""
"","","","","","html-button-response","106","344954","0.0-106.0","067F98EEB233492ABF5563CF1E969931","019cee1c-6d61-7a7a-85e2-30e2bfc3380c","019cee19-8919-70b9-b165-8101f98d5def","","1438","
                <div class=""stimulus-container"">
                    <img src=""images/schematic_sequence/hotel_scheme/hotel_scheme_3.png"" class=""exp-image"">
                    <div class=""question-area"">
                        <p style=""font-size: 20px; font-weight: bold; margin: 0;"">Is there a person in this image?</p>
                    </div>
                </div>","0","main_experiment_trial","3","hotel_scheme","schematic_sequence","","","","","","",""
"","","","","","html-keyboard-response","107","349956","0.0-107.0","067F98EEB233492ABF5563CF1E969931","019cee1c-6d61-7a7a-85e2-30e2bfc3380c","019cee19-8919-70b9-b165-8101f98d5def","","null","
                <div class=""stimulus-container"">
                    <img src=""images/schematic_sequence/hotel_scheme/hotel_scheme_4.png"" class=""exp-image"">
                    <div class=""question-area""></div> 
                </div>","null","","","","","","","","","","",""
"","","","","","html-button-response","108","350641","0.0-108.0","067F98EEB233492ABF5563CF1E969931","019cee1c-6d61-7a7a-85e2-30e2bfc3380c","019cee19-8919-70b9-b165-8101f98d5def","","685","
                <div class=""stimulus-container"">
                    <img src=""images/schematic_sequence/hotel_scheme/hotel_scheme_4.png"" class=""exp-image"">
                    <div class=""question-area"">
                        <p style=""font-size: 20px; font-weight: bold; margin: 0;"">Is there a person in this image?</p>
                    </div>
                </div>","1","main_experiment_trial","4","hotel_scheme","schematic_sequence","","","","","","",""
"","","","","","html-keyboard-response","109","355658","0.0-109.0","067F98EEB233492ABF5563CF1E969931","019cee1c-6d61-7a7a-85e2-30e2bfc3380c","019cee19-8919-70b9-b165-8101f98d5def","","null","
                <div class=""stimulus-container"">
                    <img src=""images/schematic_sequence/hotel_scheme/hotel_scheme_5.png"" class=""exp-image"">
                    <div class=""question-area""></div> 
                </div>","null","","","","","","","","","","",""
"","","","","","html-button-response","110","356191","0.0-110.0","067F98EEB233492ABF5563CF1E969931","019cee1c-6d61-7a7a-85e2-30e2bfc3380c","019cee19-8919-70b9-b165-8101f98d5def","","533","
                <div class=""stimulus-container"">
                    <img src=""images/schematic_sequence/hotel_scheme/hotel_scheme_5.png"" class=""exp-image"">
                    <div class=""question-area"">
                        <p style=""font-size: 20px; font-weight: bold; margin: 0;"">Is there a person in this image?</p>
                    </div>
                </div>","0","main_experiment_trial","5","hotel_scheme","schematic_sequence","","","","","","",""
"","","","","","html-keyboard-response","111","361205","0.0-111.0","067F98EEB233492ABF5563CF1E969931","019cee1c-6d61-7a7a-85e2-30e2bfc3380c","019cee19-8919-70b9-b165-8101f98d5def","","null","
                <div class=""stimulus-container"">
                    <img src=""images/schematic_sequence/hotel_scheme/hotel_scheme_6.png"" class=""exp-image"">
                    <div class=""question-area""></div> 
                </div>","null","","","","","","","","","","",""
"","","","","","html-button-response","112","363311","0.0-112.0","067F98EEB233492ABF5563CF1E969931","019cee1c-6d61-7a7a-85e2-30e2bfc3380c","019cee19-8919-70b9-b165-8101f98d5def","","2105","
                <div class=""stimulus-container"">
                    <img src=""images/schematic_sequence/hotel_scheme/hotel_scheme_6.png"" class=""exp-image"">
                    <div class=""question-area"">
                        <p style=""font-size: 20px; font-weight: bold; margin: 0;"">Is there a person in this image?</p>
                    </div>
                </div>","0","main_experiment_trial","6","hotel_scheme","schematic_sequence","","","","","","",""
"","","","","","html-keyboard-response","113","368319","0.0-113.0","067F98EEB233492ABF5563CF1E969931","019cee1c-6d61-7a7a-85e2-30e2bfc3380c","019cee19-8919-70b9-b165-8101f98d5def","","null","
                <div class=""stimulus-container"">
                    <img src=""images/schematic_sequence/hotel_scheme/hotel_scheme_7.png"" class=""exp-image"">
                    <div class=""question-area""></div> 
                </div>","null","","","","","","","","","","",""
"","","","","","html-button-response","114","368746","0.0-114.0","067F98EEB233492ABF5563CF1E969931","019cee1c-6d61-7a7a-85e2-30e2bfc3380c","019cee19-8919-70b9-b165-8101f98d5def","","426","
                <div class=""stimulus-container"">
                    <img src=""images/schematic_sequence/hotel_scheme/hotel_scheme_7.png"" class=""exp-image"">
                    <div class=""question-area"">
                        <p style=""font-size: 20px; font-weight: bold; margin: 0;"">Is there a person in this image?</p>
                    </div>
                </div>","0","main_experiment_trial","7","hotel_scheme","schematic_sequence","","","","","","",""
"","","","","","html-keyboard-response","115","373759","0.0-115.0","067F98EEB233492ABF5563CF1E969931","019cee1c-6d61-7a7a-85e2-30e2bfc3380c","019cee19-8919-70b9-b165-8101f98d5def","","null","
                <div class=""stimulus-container"">
                    <img src=""images/schematic_sequence/hotel_scheme/hotel_scheme_8.png"" class=""exp-image"">
                    <div class=""question-area""></div> 
                </div>","null","","","","","","","","","","",""
"","","","","","html-button-response","116","374171","0.0-116.0","067F98EEB233492ABF5563CF1E969931","019cee1c-6d61-7a7a-85e2-30e2bfc3380c","019cee19-8919-70b9-b165-8101f98d5def","","411","
                <div class=""stimulus-container"">
                    <img src=""images/schematic_sequence/hotel_scheme/hotel_scheme_8.png"" class=""exp-image"">
                    <div class=""question-area"">
                        <p style=""font-size: 20px; font-weight: bold; margin: 0;"">Is there a person in this image?</p>
                    </div>
                </div>","0","main_experiment_trial","8","hotel_scheme","schematic_sequence","","","","","","",""
"","","","","","html-keyboard-response","117","379185","0.0-117.0","067F98EEB233492ABF5563CF1E969931","019cee1c-6d61-7a7a-85e2-30e2bfc3380c","019cee19-8919-70b9-b165-8101f98d5def","","null","
                <div class=""stimulus-container"">
                    <img src=""images/schematic_sequence/hotel_scheme/hotel_scheme_9.png"" class=""exp-image"">
                    <div class=""question-area""></div> 
                </div>","null","","","","","","","","","","",""
"","","","","","html-button-response","118","379606","0.0-118.0","067F98EEB233492ABF5563CF1E969931","019cee1c-6d61-7a7a-85e2-30e2bfc3380c","019cee19-8919-70b9-b165-8101f98d5def","","421","
                <div class=""stimulus-container"">
                    <img src=""images/schematic_sequence/hotel_scheme/hotel_scheme_9.png"" class=""exp-image"">
                    <div class=""question-area"">
                        <p style=""font-size: 20px; font-weight: bold; margin: 0;"">Is there a person in this image?</p>
                    </div>
                </div>","0","main_experiment_trial","9","hotel_scheme","schematic_sequence","","","","","","",""
"","","","","","html-keyboard-response","119","384611","0.0-119.0","067F98EEB233492ABF5563CF1E969931","019cee1c-6d61-7a7a-85e2-30e2bfc3380c","019cee19-8919-70b9-b165-8101f98d5def","","null","
                <div class=""stimulus-container"">
                    <img src=""images/schematic_sequence/hotel_scheme/hotel_scheme_ten.png"" class=""exp-image"">
                    <div class=""question-area""></div> 
                </div>","null","","","","","","","","","","",""
"","","","","","html-button-response","120","385834","0.0-120.0","067F98EEB233492ABF5563CF1E969931","019cee1c-6d61-7a7a-85e2-30e2bfc3380c","019cee19-8919-70b9-b165-8101f98d5def","","1222","
                <div class=""stimulus-container"">
                    <img src=""images/schematic_sequence/hotel_scheme/hotel_scheme_ten.png"" class=""exp-image"">
                    <div class=""question-area"">
                        <p style=""font-size: 20px; font-weight: bold; margin: 0;"">Is there a person in this image?</p>
                    </div>
                </div>","0","main_experiment_trial","ten","hotel_scheme","schematic_sequence","","","","","","",""
"","","","","","html-keyboard-response","121","386837","0.0-121.0","067F98EEB233492ABF5563CF1E969931","019cee1c-6d61-7a7a-85e2-30e2bfc3380c","019cee19-8919-70b9-b165-8101f98d5def","","null","<div style=""background-color: white; width: 100vw; height: 100vh;""></div>","null","","","","","","","","","","",""
"","","","","","html-keyboard-response","122","391846","0.0-122.0","067F98EEB233492ABF5563CF1E969931","019cee1c-6d61-7a7a-85e2-30e2bfc3380c","019cee19-8919-70b9-b165-8101f98d5def","","null","
                <div class=""stimulus-container"">
                    <img src=""images/causal_sequence/coin_causal/coin_causal_1.png"" class=""exp-image"">
                    <div class=""question-area""></div> 
                </div>","null","","","","","","","","","","",""
"","","","","","html-button-response","123","392845","0.0-123.0","067F98EEB233492ABF5563CF1E969931","019cee1c-6d61-7a7a-85e2-30e2bfc3380c","019cee19-8919-70b9-b165-8101f98d5def","","999","
                <div class=""stimulus-container"">
                    <img src=""images/causal_sequence/coin_causal/coin_causal_1.png"" class=""exp-image"">
                    <div class=""question-area"">
                        <p style=""font-size: 20px; font-weight: bold; margin: 0;"">Is there a person in this image?</p>
                    </div>
                </div>","0","main_experiment_trial","1","coin_causal","causal_sequence","","","","","","",""
"","","","","","html-keyboard-response","124","397857","0.0-124.0","067F98EEB233492ABF5563CF1E969931","019cee1c-6d61-7a7a-85e2-30e2bfc3380c","019cee19-8919-70b9-b165-8101f98d5def","","null","
                <div class=""stimulus-container"">
                    <img src=""images/causal_sequence/coin_causal/coin_causal_2.png"" class=""exp-image"">
                    <div class=""question-area""></div> 
                </div>","null","","","","","","","","","","",""
"","","","","","html-button-response","125","398574","0.0-125.0","067F98EEB233492ABF5563CF1E969931","019cee1c-6d61-7a7a-85e2-30e2bfc3380c","019cee19-8919-70b9-b165-8101f98d5def","","717","
                <div class=""stimulus-container"">
                    <img src=""images/causal_sequence/coin_causal/coin_causal_2.png"" class=""exp-image"">
                    <div class=""question-area"">
                        <p style=""font-size: 20px; font-weight: bold; margin: 0;"">Is there a person in this image?</p>
                    </div>
                </div>","0","main_experiment_trial","2","coin_causal","causal_sequence","","","","","","",""
"","","","","","html-keyboard-response","126","403576","0.0-126.0","067F98EEB233492ABF5563CF1E969931","019cee1c-6d61-7a7a-85e2-30e2bfc3380c","019cee19-8919-70b9-b165-8101f98d5def","","null","
                <div class=""stimulus-container"">
                    <img src=""images/causal_sequence/coin_causal/coin_causal_3.png"" class=""exp-image"">
                    <div class=""question-area""></div> 
                </div>","null","","","","","","","","","","",""
"","","","","","html-button-response","127","404058","0.0-127.0","067F98EEB233492ABF5563CF1E969931","019cee1c-6d61-7a7a-85e2-30e2bfc3380c","019cee19-8919-70b9-b165-8101f98d5def","","481","
                <div class=""stimulus-container"">
                    <img src=""images/causal_sequence/coin_causal/coin_causal_3.png"" class=""exp-image"">
                    <div class=""question-area"">
                        <p style=""font-size: 20px; font-weight: bold; margin: 0;"">Is there a person in this image?</p>
                    </div>
                </div>","0","main_experiment_trial","3","coin_causal","causal_sequence","","","","","","",""
"","","","","","html-keyboard-response","128","409074","0.0-128.0","067F98EEB233492ABF5563CF1E969931","019cee1c-6d61-7a7a-85e2-30e2bfc3380c","019cee19-8919-70b9-b165-8101f98d5def","","null","
                <div class=""stimulus-container"">
                    <img src=""images/causal_sequence/coin_causal/coin_causal_4.png"" class=""exp-image"">
                    <div class=""question-area""></div> 
                </div>","null","","","","","","","","","","",""
"","","","","","html-button-response","129","409608","0.0-129.0","067F98EEB233492ABF5563CF1E969931","019cee1c-6d61-7a7a-85e2-30e2bfc3380c","019cee19-8919-70b9-b165-8101f98d5def","","533","
                <div class=""stimulus-container"">
                    <img src=""images/causal_sequence/coin_causal/coin_causal_4.png"" class=""exp-image"">
                    <div class=""question-area"">
                        <p style=""font-size: 20px; font-weight: bold; margin: 0;"">Is there a person in this image?</p>
                    </div>
                </div>","0","main_experiment_trial","4","coin_causal","causal_sequence","","","","","","",""
"","","","","","html-keyboard-response","130","414612","0.0-130.0","067F98EEB233492ABF5563CF1E969931","019cee1c-6d61-7a7a-85e2-30e2bfc3380c","019cee19-8919-70b9-b165-8101f98d5def","","null","
                <div class=""stimulus-container"">
                    <img src=""images/causal_sequence/coin_causal/coin_causal_5.png"" class=""exp-image"">
                    <div class=""question-area""></div> 
                </div>","null","","","","","","","","","","",""
"","","","","","html-button-response","131","415164","0.0-131.0","067F98EEB233492ABF5563CF1E969931","019cee1c-6d61-7a7a-85e2-30e2bfc3380c","019cee19-8919-70b9-b165-8101f98d5def","","552","
                <div class=""stimulus-container"">
                    <img src=""images/causal_sequence/coin_causal/coin_causal_5.png"" class=""exp-image"">
                    <div class=""question-area"">
                        <p style=""font-size: 20px; font-weight: bold; margin: 0;"">Is there a person in this image?</p>
                    </div>
                </div>","0","main_experiment_trial","5","coin_causal","causal_sequence","","","","","","",""
"","","","","","html-keyboard-response","132","420179","0.0-132.0","067F98EEB233492ABF5563CF1E969931","019cee1c-6d61-7a7a-85e2-30e2bfc3380c","019cee19-8919-70b9-b165-8101f98d5def","","null","
                <div class=""stimulus-container"">
                    <img src=""images/causal_sequence/coin_causal/coin_causal_6.png"" class=""exp-image"">
                    <div class=""question-area""></div> 
                </div>","null","","","","","","","","","","",""
"","","","","","html-button-response","133","420491","0.0-133.0","067F98EEB233492ABF5563CF1E969931","019cee1c-6d61-7a7a-85e2-30e2bfc3380c","019cee19-8919-70b9-b165-8101f98d5def","","312","
                <div class=""stimulus-container"">
                    <img src=""images/causal_sequence/coin_causal/coin_causal_6.png"" class=""exp-image"">
                    <div class=""question-area"">
                        <p style=""font-size: 20px; font-weight: bold; margin: 0;"">Is there a person in this image?</p>
                    </div>
                </div>","0","main_experiment_trial","6","coin_causal","causal_sequence","","","","","","",""
"","","","","","html-keyboard-response","134","425493","0.0-134.0","067F98EEB233492ABF5563CF1E969931","019cee1c-6d61-7a7a-85e2-30e2bfc3380c","019cee19-8919-70b9-b165-8101f98d5def","","null","
                <div class=""stimulus-container"">
                    <img src=""images/causal_sequence/coin_causal/coin_causal_7.png"" class=""exp-image"">
                    <div class=""question-area""></div> 
                </div>","null","","","","","","","","","","",""
"","","","","","html-button-response","135","426592","0.0-135.0","067F98EEB233492ABF5563CF1E969931","019cee1c-6d61-7a7a-85e2-30e2bfc3380c","019cee19-8919-70b9-b165-8101f98d5def","","1099","
                <div class=""stimulus-container"">
                    <img src=""images/causal_sequence/coin_causal/coin_causal_7.png"" class=""exp-image"">
                    <div class=""question-area"">
                        <p style=""font-size: 20px; font-weight: bold; margin: 0;"">Is there a person in this image?</p>
                    </div>
                </div>","1","main_experiment_trial","7","coin_causal","causal_sequence","","","","","","",""
"","","","","","html-keyboard-response","136","431594","0.0-136.0","067F98EEB233492ABF5563CF1E969931","019cee1c-6d61-7a7a-85e2-30e2bfc3380c","019cee19-8919-70b9-b165-8101f98d5def","","null","
                <div class=""stimulus-container"">
                    <img src=""images/causal_sequence/coin_causal/coin_causal_8.png"" class=""exp-image"">
                    <div class=""question-area""></div> 
                </div>","null","","","","","","","","","","",""
"","","","","","html-button-response","137","433053","0.0-137.0","067F98EEB233492ABF5563CF1E969931","019cee1c-6d61-7a7a-85e2-30e2bfc3380c","019cee19-8919-70b9-b165-8101f98d5def","","1458","
                <div class=""stimulus-container"">
                    <img src=""images/causal_sequence/coin_causal/coin_causal_8.png"" class=""exp-image"">
                    <div class=""question-area"">
                        <p style=""font-size: 20px; font-weight: bold; margin: 0;"">Is there a person in this image?</p>
                    </div>
                </div>","0","main_experiment_trial","8","coin_causal","causal_sequence","","","","","","",""
"","","","","","html-keyboard-response","138","438066","0.0-138.0","067F98EEB233492ABF5563CF1E969931","019cee1c-6d61-7a7a-85e2-30e2bfc3380c","019cee19-8919-70b9-b165-8101f98d5def","","null","
                <div class=""stimulus-container"">
                    <img src=""images/causal_sequence/coin_causal/coin_causal_9.png"" class=""exp-image"">
                    <div class=""question-area""></div> 
                </div>","null","","","","","","","","","","",""
"","","","","","html-button-response","139","439465","0.0-139.0","067F98EEB233492ABF5563CF1E969931","019cee1c-6d61-7a7a-85e2-30e2bfc3380c","019cee19-8919-70b9-b165-8101f98d5def","","1398","
                <div class=""stimulus-container"">
                    <img src=""images/causal_sequence/coin_causal/coin_causal_9.png"" class=""exp-image"">
                    <div class=""question-area"">
                        <p style=""font-size: 20px; font-weight: bold; margin: 0;"">Is there a person in this image?</p>
                    </div>
                </div>","0","main_experiment_trial","9","coin_causal","causal_sequence","","","","","","",""
"","","","","","html-keyboard-response","140","444477","0.0-140.0","067F98EEB233492ABF5563CF1E969931","019cee1c-6d61-7a7a-85e2-30e2bfc3380c","019cee19-8919-70b9-b165-8101f98d5def","","null","
                <div class=""stimulus-container"">
                    <img src=""images/causal_sequence/coin_causal/coin_causal_ten.png"" class=""exp-image"">
                    <div class=""question-area""></div> 
                </div>","null","","","","","","","","","","",""
"","","","","","html-button-response","141","445387","0.0-141.0","067F98EEB233492ABF5563CF1E969931","019cee1c-6d61-7a7a-85e2-30e2bfc3380c","019cee19-8919-70b9-b165-8101f98d5def","","909","
                <div class=""stimulus-container"">
                    <img src=""images/causal_sequence/coin_causal/coin_causal_ten.png"" class=""exp-image"">
                    <div class=""question-area"">
                        <p style=""font-size: 20px; font-weight: bold; margin: 0;"">Is there a person in this image?</p>
                    </div>
                </div>","0","main_experiment_trial","ten","coin_causal","causal_sequence","","","","","","",""
"","","","","","html-keyboard-response","142","446393","0.0-142.0","067F98EEB233492ABF5563CF1E969931","019cee1c-6d61-7a7a-85e2-30e2bfc3380c","019cee19-8919-70b9-b165-8101f98d5def","","null","<div style=""background-color: white; width: 100vw; height: 100vh;""></div>","null","","","","","","","","","","",""
"","","","","","html-keyboard-response","143","451394","0.0-143.0","067F98EEB233492ABF5563CF1E969931","019cee1c-6d61-7a7a-85e2-30e2bfc3380c","019cee19-8919-70b9-b165-8101f98d5def","","null","
                <div class=""stimulus-container"">
                    <img src=""images/schematic_sequence/interview_scheme/interview_scheme_1.png"" class=""exp-image"">
                    <div class=""question-area""></div> 
                </div>","null","","","","","","","","","","",""
"","","","","","html-button-response","144","451782","0.0-144.0","067F98EEB233492ABF5563CF1E969931","019cee1c-6d61-7a7a-85e2-30e2bfc3380c","019cee19-8919-70b9-b165-8101f98d5def","","387","
                <div class=""stimulus-container"">
                    <img src=""images/schematic_sequence/interview_scheme/interview_scheme_1.png"" class=""exp-image"">
                    <div class=""question-area"">
                        <p style=""font-size: 20px; font-weight: bold; margin: 0;"">Is there a person in this image?</p>
                    </div>
                </div>","1","main_experiment_trial","1","interview_scheme","schematic_sequence","","","","","","",""
"","","","","","html-keyboard-response","145","456791","0.0-145.0","067F98EEB233492ABF5563CF1E969931","019cee1c-6d61-7a7a-85e2-30e2bfc3380c","019cee19-8919-70b9-b165-8101f98d5def","","null","
                <div class=""stimulus-container"">
                    <img src=""images/schematic_sequence/interview_scheme/interview_scheme_2.png"" class=""exp-image"">
                    <div class=""question-area""></div> 
                </div>","null","","","","","","","","","","",""
"","","","","","html-button-response","146","458392","0.0-146.0","067F98EEB233492ABF5563CF1E969931","019cee1c-6d61-7a7a-85e2-30e2bfc3380c","019cee19-8919-70b9-b165-8101f98d5def","","1601","
                <div class=""stimulus-container"">
                    <img src=""images/schematic_sequence/interview_scheme/interview_scheme_2.png"" class=""exp-image"">
                    <div class=""question-area"">
                        <p style=""font-size: 20px; font-weight: bold; margin: 0;"">Is there a person in this image?</p>
                    </div>
                </div>","0","main_experiment_trial","2","interview_scheme","schematic_sequence","","","","","","",""
"","","","","","html-keyboard-response","147","463396","0.0-147.0","067F98EEB233492ABF5563CF1E969931","019cee1c-6d61-7a7a-85e2-30e2bfc3380c","019cee19-8919-70b9-b165-8101f98d5def","","null","
                <div class=""stimulus-container"">
                    <img src=""images/schematic_sequence/interview_scheme/interview_scheme_3.png"" class=""exp-image"">
                    <div class=""question-area""></div> 
                </div>","null","","","","","","","","","","",""
"","","","","","html-button-response","148","463893","0.0-148.0","067F98EEB233492ABF5563CF1E969931","019cee1c-6d61-7a7a-85e2-30e2bfc3380c","019cee19-8919-70b9-b165-8101f98d5def","","497","
                <div class=""stimulus-container"">
                    <img src=""images/schematic_sequence/interview_scheme/interview_scheme_3.png"" class=""exp-image"">
                    <div class=""question-area"">
                        <p style=""font-size: 20px; font-weight: bold; margin: 0;"">Is there a person in this image?</p>
                    </div>
                </div>","1","main_experiment_trial","3","interview_scheme","schematic_sequence","","","","","","",""
"","","","","","html-keyboard-response","149","468898","0.0-149.0","067F98EEB233492ABF5563CF1E969931","019cee1c-6d61-7a7a-85e2-30e2bfc3380c","019cee19-8919-70b9-b165-8101f98d5def","","null","
                <div class=""stimulus-container"">
                    <img src=""images/schematic_sequence/interview_scheme/interview_scheme_4.png"" class=""exp-image"">
                    <div class=""question-area""></div> 
                </div>","null","","","","","","","","","","",""
"","","","","","html-button-response","150","469514","0.0-150.0","067F98EEB233492ABF5563CF1E969931","019cee1c-6d61-7a7a-85e2-30e2bfc3380c","019cee19-8919-70b9-b165-8101f98d5def","","616","
                <div class=""stimulus-container"">
                    <img src=""images/schematic_sequence/interview_scheme/interview_scheme_4.png"" class=""exp-image"">
                    <div class=""question-area"">
                        <p style=""font-size: 20px; font-weight: bold; margin: 0;"">Is there a person in this image?</p>
                    </div>
                </div>","0","main_experiment_trial","4","interview_scheme","schematic_sequence","","","","","","",""
"","","","","","html-keyboard-response","151","474529","0.0-151.0","067F98EEB233492ABF5563CF1E969931","019cee1c-6d61-7a7a-85e2-30e2bfc3380c","019cee19-8919-70b9-b165-8101f98d5def","","null","
                <div class=""stimulus-container"">
                    <img src=""images/schematic_sequence/interview_scheme/interview_scheme_5.png"" class=""exp-image"">
                    <div class=""question-area""></div> 
                </div>","null","","","","","","","","","","",""
"","","","","","html-button-response","152","475747","0.0-152.0","067F98EEB233492ABF5563CF1E969931","019cee1c-6d61-7a7a-85e2-30e2bfc3380c","019cee19-8919-70b9-b165-8101f98d5def","","1218","
                <div class=""stimulus-container"">
                    <img src=""images/schematic_sequence/interview_scheme/interview_scheme_5.png"" class=""exp-image"">
                    <div class=""question-area"">
                        <p style=""font-size: 20px; font-weight: bold; margin: 0;"">Is there a person in this image?</p>
                    </div>
                </div>","0","main_experiment_trial","5","interview_scheme","schematic_sequence","","","","","","",""
"","","","","","html-keyboard-response","153","480761","0.0-153.0","067F98EEB233492ABF5563CF1E969931","019cee1c-6d61-7a7a-85e2-30e2bfc3380c","019cee19-8919-70b9-b165-8101f98d5def","","null","
                <div class=""stimulus-container"">
                    <img src=""images/schematic_sequence/interview_scheme/interview_scheme_6.png"" class=""exp-image"">
                    <div class=""question-area""></div> 
                </div>","null","","","","","","","","","","",""
"","","","","","html-button-response","154","481776","0.0-154.0","067F98EEB233492ABF5563CF1E969931","019cee1c-6d61-7a7a-85e2-30e2bfc3380c","019cee19-8919-70b9-b165-8101f98d5def","","1015","
                <div class=""stimulus-container"">
                    <img src=""images/schematic_sequence/interview_scheme/interview_scheme_6.png"" class=""exp-image"">
                    <div class=""question-area"">
                        <p style=""font-size: 20px; font-weight: bold; margin: 0;"">Is there a person in this image?</p>
                    </div>
                </div>","0","main_experiment_trial","6","interview_scheme","schematic_sequence","","","","","","",""
"","","","","","html-keyboard-response","155","486777","0.0-155.0","067F98EEB233492ABF5563CF1E969931","019cee1c-6d61-7a7a-85e2-30e2bfc3380c","019cee19-8919-70b9-b165-8101f98d5def","","null","
                <div class=""stimulus-container"">
                    <img src=""images/schematic_sequence/interview_scheme/interview_scheme_7.png"" class=""exp-image"">
                    <div class=""question-area""></div> 
                </div>","null","","","","","","","","","","",""
"","","","","","html-button-response","156","487596","0.0-156.0","067F98EEB233492ABF5563CF1E969931","019cee1c-6d61-7a7a-85e2-30e2bfc3380c","019cee19-8919-70b9-b165-8101f98d5def","","818","
                <div class=""stimulus-container"">
                    <img src=""images/schematic_sequence/interview_scheme/interview_scheme_7.png"" class=""exp-image"">
                    <div class=""question-area"">
                        <p style=""font-size: 20px; font-weight: bold; margin: 0;"">Is there a person in this image?</p>
                    </div>
                </div>","0","main_experiment_trial","7","interview_scheme","schematic_sequence","","","","","","",""
"","","","","","html-keyboard-response","157","492605","0.0-157.0","067F98EEB233492ABF5563CF1E969931","019cee1c-6d61-7a7a-85e2-30e2bfc3380c","019cee19-8919-70b9-b165-8101f98d5def","","null","
                <div class=""stimulus-container"">
                    <img src=""images/schematic_sequence/interview_scheme/interview_scheme_8.png"" class=""exp-image"">
                    <div class=""question-area""></div> 
                </div>","null","","","","","","","","","","",""
"","","","","","html-button-response","158","493020","0.0-158.0","067F98EEB233492ABF5563CF1E969931","019cee1c-6d61-7a7a-85e2-30e2bfc3380c","019cee19-8919-70b9-b165-8101f98d5def","","414","
                <div class=""stimulus-container"">
                    <img src=""images/schematic_sequence/interview_scheme/interview_scheme_8.png"" class=""exp-image"">
                    <div class=""question-area"">
                        <p style=""font-size: 20px; font-weight: bold; margin: 0;"">Is there a person in this image?</p>
                    </div>
                </div>","0","main_experiment_trial","8","interview_scheme","schematic_sequence","","","","","","",""
"","","","","","html-keyboard-response","159","498027","0.0-159.0","067F98EEB233492ABF5563CF1E969931","019cee1c-6d61-7a7a-85e2-30e2bfc3380c","019cee19-8919-70b9-b165-8101f98d5def","","null","
                <div class=""stimulus-container"">
                    <img src=""images/schematic_sequence/interview_scheme/interview_scheme_9.png"" class=""exp-image"">
                    <div class=""question-area""></div> 
                </div>","null","","","","","","","","","","",""
"","","","","","html-button-response","160","498504","0.0-160.0","067F98EEB233492ABF5563CF1E969931","019cee1c-6d61-7a7a-85e2-30e2bfc3380c","019cee19-8919-70b9-b165-8101f98d5def","","477","
                <div class=""stimulus-container"">
                    <img src=""images/schematic_sequence/interview_scheme/interview_scheme_9.png"" class=""exp-image"">
                    <div class=""question-area"">
                        <p style=""font-size: 20px; font-weight: bold; margin: 0;"">Is there a person in this image?</p>
                    </div>
                </div>","0","main_experiment_trial","9","interview_scheme","schematic_sequence","","","","","","",""
"","","","","","html-keyboard-response","161","503519","0.0-161.0","067F98EEB233492ABF5563CF1E969931","019cee1c-6d61-7a7a-85e2-30e2bfc3380c","019cee19-8919-70b9-b165-8101f98d5def","","null","
                <div class=""stimulus-container"">
                    <img src=""images/schematic_sequence/interview_scheme/interview_scheme_ten.png"" class=""exp-image"">
                    <div class=""question-area""></div> 
                </div>","null","","","","","","","","","","",""
"","","","","","html-button-response","162","503898","0.0-162.0","067F98EEB233492ABF5563CF1E969931","019cee1c-6d61-7a7a-85e2-30e2bfc3380c","019cee19-8919-70b9-b165-8101f98d5def","","378","
                <div class=""stimulus-container"">
                    <img src=""images/schematic_sequence/interview_scheme/interview_scheme_ten.png"" class=""exp-image"">
                    <div class=""question-area"">
                        <p style=""font-size: 20px; font-weight: bold; margin: 0;"">Is there a person in this image?</p>
                    </div>
                </div>","0","main_experiment_trial","ten","interview_scheme","schematic_sequence","","","","","","",""
"","","","","","html-keyboard-response","163","504907","0.0-163.0","067F98EEB233492ABF5563CF1E969931","019cee1c-6d61-7a7a-85e2-30e2bfc3380c","019cee19-8919-70b9-b165-8101f98d5def","","null","<div style=""background-color: white; width: 100vw; height: 100vh;""></div>","null","","","","","","","","","","",""
"","","","","","html-keyboard-response","164","509918","0.0-164.0","067F98EEB233492ABF5563CF1E969931","019cee1c-6d61-7a7a-85e2-30e2bfc3380c","019cee19-8919-70b9-b165-8101f98d5def","","null","
                <div class=""stimulus-container"">
                    <img src=""images/schematic_sequence/restaurant_scheme/restaurant_scheme_1.png"" class=""exp-image"">
                    <div class=""question-area""></div> 
                </div>","null","","","","","","","","","","",""
"","","","","","html-button-response","165","510258","0.0-165.0","067F98EEB233492ABF5563CF1E969931","019cee1c-6d61-7a7a-85e2-30e2bfc3380c","019cee19-8919-70b9-b165-8101f98d5def","","339","
                <div class=""stimulus-container"">
                    <img src=""images/schematic_sequence/restaurant_scheme/restaurant_scheme_1.png"" class=""exp-image"">
                    <div class=""question-area"">
                        <p style=""font-size: 20px; font-weight: bold; margin: 0;"">Is there a person in this image?</p>
                    </div>
                </div>","0","main_experiment_trial","1","restaurant_scheme","schematic_sequence","","","","","","",""
"","","","","","html-keyboard-response","166","515274","0.0-166.0","067F98EEB233492ABF5563CF1E969931","019cee1c-6d61-7a7a-85e2-30e2bfc3380c","019cee19-8919-70b9-b165-8101f98d5def","","null","
                <div class=""stimulus-container"">
                    <img src=""images/schematic_sequence/restaurant_scheme/restaurant_scheme_2.png"" class=""exp-image"">
                    <div class=""question-area""></div> 
                </div>","null","","","","","","","","","","",""
"","","","","","html-button-response","167","515933","0.0-167.0","067F98EEB233492ABF5563CF1E969931","019cee1c-6d61-7a7a-85e2-30e2bfc3380c","019cee19-8919-70b9-b165-8101f98d5def","","658","
                <div class=""stimulus-container"">
                    <img src=""images/schematic_sequence/restaurant_scheme/restaurant_scheme_2.png"" class=""exp-image"">
                    <div class=""question-area"">
                        <p style=""font-size: 20px; font-weight: bold; margin: 0;"">Is there a person in this image?</p>
                    </div>
                </div>","0","main_experiment_trial","2","restaurant_scheme","schematic_sequence","","","","","","",""
"","","","","","html-keyboard-response","168","520942","0.0-168.0","067F98EEB233492ABF5563CF1E969931","019cee1c-6d61-7a7a-85e2-30e2bfc3380c","019cee19-8919-70b9-b165-8101f98d5def","","null","
                <div class=""stimulus-container"">
                    <img src=""images/schematic_sequence/restaurant_scheme/restaurant_scheme_3.png"" class=""exp-image"">
                    <div class=""question-area""></div> 
                </div>","null","","","","","","","","","","",""
"","","","","","html-button-response","169","521314","0.0-169.0","067F98EEB233492ABF5563CF1E969931","019cee1c-6d61-7a7a-85e2-30e2bfc3380c","019cee19-8919-70b9-b165-8101f98d5def","","371","
                <div class=""stimulus-container"">
                    <img src=""images/schematic_sequence/restaurant_scheme/restaurant_scheme_3.png"" class=""exp-image"">
                    <div class=""question-area"">
                        <p style=""font-size: 20px; font-weight: bold; margin: 0;"">Is there a person in this image?</p>
                    </div>
                </div>","1","main_experiment_trial","3","restaurant_scheme","schematic_sequence","","","","","","",""
"","","","","","html-keyboard-response","170","526319","0.0-170.0","067F98EEB233492ABF5563CF1E969931","019cee1c-6d61-7a7a-85e2-30e2bfc3380c","019cee19-8919-70b9-b165-8101f98d5def","","null","
                <div class=""stimulus-container"">
                    <img src=""images/schematic_sequence/restaurant_scheme/restaurant_scheme_4.png"" class=""exp-image"">
                    <div class=""question-area""></div> 
                </div>","null","","","","","","","","","","",""
"","","","","","html-button-response","171","526737","0.0-171.0","067F98EEB233492ABF5563CF1E969931","019cee1c-6d61-7a7a-85e2-30e2bfc3380c","019cee19-8919-70b9-b165-8101f98d5def","","417","
                <div class=""stimulus-container"">
                    <img src=""images/schematic_sequence/restaurant_scheme/restaurant_scheme_4.png"" class=""exp-image"">
                    <div class=""question-area"">
                        <p style=""font-size: 20px; font-weight: bold; margin: 0;"">Is there a person in this image?</p>
                    </div>
                </div>","0","main_experiment_trial","4","restaurant_scheme","schematic_sequence","","","","","","",""
"","","","","","html-keyboard-response","172","531739","0.0-172.0","067F98EEB233492ABF5563CF1E969931","019cee1c-6d61-7a7a-85e2-30e2bfc3380c","019cee19-8919-70b9-b165-8101f98d5def","","null","
                <div class=""stimulus-container"">
                    <img src=""images/schematic_sequence/restaurant_scheme/restaurant_scheme_5.png"" class=""exp-image"">
                    <div class=""question-area""></div> 
                </div>","null","","","","","","","","","","",""
"","","","","","html-button-response","173","532234","0.0-173.0","067F98EEB233492ABF5563CF1E969931","019cee1c-6d61-7a7a-85e2-30e2bfc3380c","019cee19-8919-70b9-b165-8101f98d5def","","494","
                <div class=""stimulus-container"">
                    <img src=""images/schematic_sequence/restaurant_scheme/restaurant_scheme_5.png"" class=""exp-image"">
                    <div class=""question-area"">
                        <p style=""font-size: 20px; font-weight: bold; margin: 0;"">Is there a person in this image?</p>
                    </div>
                </div>","0","main_experiment_trial","5","restaurant_scheme","schematic_sequence","","","","","","",""
"","","","","","html-keyboard-response","174","537240","0.0-174.0","067F98EEB233492ABF5563CF1E969931","019cee1c-6d61-7a7a-85e2-30e2bfc3380c","019cee19-8919-70b9-b165-8101f98d5def","","null","
                <div class=""stimulus-container"">
                    <img src=""images/schematic_sequence/restaurant_scheme/restaurant_scheme_6.png"" class=""exp-image"">
                    <div class=""question-area""></div> 
                </div>","null","","","","","","","","","","",""
"","","","","","html-button-response","175","538402","0.0-175.0","067F98EEB233492ABF5563CF1E969931","019cee1c-6d61-7a7a-85e2-30e2bfc3380c","019cee19-8919-70b9-b165-8101f98d5def","","1161","
                <div class=""stimulus-container"">
                    <img src=""images/schematic_sequence/restaurant_scheme/restaurant_scheme_6.png"" class=""exp-image"">
                    <div class=""question-area"">
                        <p style=""font-size: 20px; font-weight: bold; margin: 0;"">Is there a person in this image?</p>
                    </div>
                </div>","1","main_experiment_trial","6","restaurant_scheme","schematic_sequence","","","","","","",""
"","","","","","html-keyboard-response","176","543403","0.0-176.0","067F98EEB233492ABF5563CF1E969931","019cee1c-6d61-7a7a-85e2-30e2bfc3380c","019cee19-8919-70b9-b165-8101f98d5def","","null","
                <div class=""stimulus-container"">
                    <img src=""images/schematic_sequence/restaurant_scheme/restaurant_scheme_7.png"" class=""exp-image"">
                    <div class=""question-area""></div> 
                </div>","null","","","","","","","","","","",""
"","","","","","html-button-response","177","543885","0.0-177.0","067F98EEB233492ABF5563CF1E969931","019cee1c-6d61-7a7a-85e2-30e2bfc3380c","019cee19-8919-70b9-b165-8101f98d5def","","482","
                <div class=""stimulus-container"">
                    <img src=""images/schematic_sequence/restaurant_scheme/restaurant_scheme_7.png"" class=""exp-image"">
                    <div class=""question-area"">
                        <p style=""font-size: 20px; font-weight: bold; margin: 0;"">Is there a person in this image?</p>
                    </div>
                </div>","0","main_experiment_trial","7","restaurant_scheme","schematic_sequence","","","","","","",""
"","","","","","html-keyboard-response","178","548888","0.0-178.0","067F98EEB233492ABF5563CF1E969931","019cee1c-6d61-7a7a-85e2-30e2bfc3380c","019cee19-8919-70b9-b165-8101f98d5def","","null","
                <div class=""stimulus-container"">
                    <img src=""images/schematic_sequence/restaurant_scheme/restaurant_scheme_8.png"" class=""exp-image"">
                    <div class=""question-area""></div> 
                </div>","null","","","","","","","","","","",""
"","","","","","html-button-response","179","549447","0.0-179.0","067F98EEB233492ABF5563CF1E969931","019cee1c-6d61-7a7a-85e2-30e2bfc3380c","019cee19-8919-70b9-b165-8101f98d5def","","559","
                <div class=""stimulus-container"">
                    <img src=""images/schematic_sequence/restaurant_scheme/restaurant_scheme_8.png"" class=""exp-image"">
                    <div class=""question-area"">
                        <p style=""font-size: 20px; font-weight: bold; margin: 0;"">Is there a person in this image?</p>
                    </div>
                </div>","0","main_experiment_trial","8","restaurant_scheme","schematic_sequence","","","","","","",""
"","","","","","html-keyboard-response","180","554451","0.0-180.0","067F98EEB233492ABF5563CF1E969931","019cee1c-6d61-7a7a-85e2-30e2bfc3380c","019cee19-8919-70b9-b165-8101f98d5def","","null","
                <div class=""stimulus-container"">
                    <img src=""images/schematic_sequence/restaurant_scheme/restaurant_scheme_9.png"" class=""exp-image"">
                    <div class=""question-area""></div> 
                </div>","null","","","","","","","","","","",""
"","","","","","html-button-response","181","555327","0.0-181.0","067F98EEB233492ABF5563CF1E969931","019cee1c-6d61-7a7a-85e2-30e2bfc3380c","019cee19-8919-70b9-b165-8101f98d5def","","876","
