"success","timeout","failed_images","failed_audio","failed_video","trial_type","trial_index","time_elapsed","internal_node_id","subject_id","study_id","session_id","view_history","rt","stimulus","response","task","image_index","folder","sequence_type","presentation_order","valuable_image_index","reward_type","distance_from_x","target_X","chosen_image_index","is_x_plus_dist","correct_choice"
"true","false","[]","[]","[]","preload","0","51645","0.0-0.0","0F6A47F66891434184A840EEC77155AE","019cfa65-aef7-74f3-bd61-35362901d2b7","019cfa3a-388e-72ab-ad58-bdeb258f96cd","","","","","","","","","","","","","","","",""
"","","","","","instructions","1","65466","0.0-1.0","0F6A47F66891434184A840EEC77155AE","019cfa65-aef7-74f3-bd61-35362901d2b7","019cfa3a-388e-72ab-ad58-bdeb258f96cd","[{""page_index"":0,""viewing_time"":13819}]","13820","","","","","","","","","","","","","",""
"","","","","","instructions","2","71790","0.0-2.0","0F6A47F66891434184A840EEC77155AE","019cfa65-aef7-74f3-bd61-35362901d2b7","019cfa3a-388e-72ab-ad58-bdeb258f96cd","[{""page_index"":0,""viewing_time"":6322}]","6323","","","","","","","","","","","","","",""
"true","","","","","fullscreen","3","74448","0.0-3.0","0F6A47F66891434184A840EEC77155AE","019cfa65-aef7-74f3-bd61-35362901d2b7","019cfa3a-388e-72ab-ad58-bdeb258f96cd","","1649","","","","","","","","","","","","","",""
"","","","","","instructions","4","83480","0.0-4.0","0F6A47F66891434184A840EEC77155AE","019cfa65-aef7-74f3-bd61-35362901d2b7","019cfa3a-388e-72ab-ad58-bdeb258f96cd","[{""page_index"":0,""viewing_time"":9031}]","9032","","","","","","","","","","","","","",""
"","","","","","instructions","5","87460","0.0-5.0","0F6A47F66891434184A840EEC77155AE","019cfa65-aef7-74f3-bd61-35362901d2b7","019cfa3a-388e-72ab-ad58-bdeb258f96cd","[{""page_index"":0,""viewing_time"":3978}]","3979","","","","","","","","","","","","","",""
"","","","","","html-keyboard-response","6","91462","0.0-6.0","0F6A47F66891434184A840EEC77155AE","019cfa65-aef7-74f3-bd61-35362901d2b7","019cfa3a-388e-72ab-ad58-bdeb258f96cd","","null","
                <div class=""stimulus-container"">
                    <img src=""images/instructions/movie_1.png"" class=""exp-image"">
                    <div class=""question-area""></div> 
                </div>","null","","","","","","","","","","","",""
"","","","","","html-button-response","7","94465","0.0-7.0","0F6A47F66891434184A840EEC77155AE","019cfa65-aef7-74f3-bd61-35362901d2b7","019cfa3a-388e-72ab-ad58-bdeb258f96cd","","null","
                <div class=""stimulus-container"">
                    <img src=""images/instructions/movie_1.png"" class=""exp-image"">
                    <div class=""question-area"">
                        <p style=""font-size: 20px; font-weight: bold; margin: 0;"">Was there a person in this image?</p>
                    </div>
                </div>","null","example_question","1","","","","","","","","","",""
"","","","","","html-keyboard-response","8","98466","0.0-8.0","0F6A47F66891434184A840EEC77155AE","019cfa65-aef7-74f3-bd61-35362901d2b7","019cfa3a-388e-72ab-ad58-bdeb258f96cd","","null","
                <div class=""stimulus-container"">
                    <img src=""images/instructions/movie_2.png"" class=""exp-image"">
                    <div class=""question-area""></div> 
                </div>","null","","","","","","","","","","","",""
"","","","","","html-button-response","9","99896","0.0-9.0","0F6A47F66891434184A840EEC77155AE","019cfa65-aef7-74f3-bd61-35362901d2b7","019cfa3a-388e-72ab-ad58-bdeb258f96cd","","1427","
                <div class=""stimulus-container"">
                    <img src=""images/instructions/movie_2.png"" class=""exp-image"">
                    <div class=""question-area"">
                        <p style=""font-size: 20px; font-weight: bold; margin: 0;"">Was there a person in this image?</p>
                    </div>
                </div>","1","example_question","2","","","","","","","","","",""
"","","","","","html-keyboard-response","10","103899","0.0-10.0","0F6A47F66891434184A840EEC77155AE","019cfa65-aef7-74f3-bd61-35362901d2b7","019cfa3a-388e-72ab-ad58-bdeb258f96cd","","null","
                <div class=""stimulus-container"">
                    <img src=""images/instructions/movie_3.png"" class=""exp-image"">
                    <div class=""question-area""></div> 
                </div>","null","","","","","","","","","","","",""
"","","","","","html-button-response","11","105043","0.0-11.0","0F6A47F66891434184A840EEC77155AE","019cfa65-aef7-74f3-bd61-35362901d2b7","019cfa3a-388e-72ab-ad58-bdeb258f96cd","","1142","
                <div class=""stimulus-container"">
                    <img src=""images/instructions/movie_3.png"" class=""exp-image"">
                    <div class=""question-area"">
                        <p style=""font-size: 20px; font-weight: bold; margin: 0;"">Was there a person in this image?</p>
                    </div>
                </div>","0","example_question","3","","","","","","","","","",""
"","","","","","html-keyboard-response","12","109045","0.0-12.0","0F6A47F66891434184A840EEC77155AE","019cfa65-aef7-74f3-bd61-35362901d2b7","019cfa3a-388e-72ab-ad58-bdeb258f96cd","","null","
                <div class=""stimulus-container"">
                    <img src=""images/instructions/movie_4.png"" class=""exp-image"">
                    <div class=""question-area""></div> 
                </div>","null","","","","","","","","","","","",""
"","","","","","html-button-response","13","109885","0.0-13.0","0F6A47F66891434184A840EEC77155AE","019cfa65-aef7-74f3-bd61-35362901d2b7","019cfa3a-388e-72ab-ad58-bdeb258f96cd","","837","
                <div class=""stimulus-container"">
                    <img src=""images/instructions/movie_4.png"" class=""exp-image"">
                    <div class=""question-area"">
                        <p style=""font-size: 20px; font-weight: bold; margin: 0;"">Was there a person in this image?</p>
                    </div>
                </div>","0","example_question","4","","","","","","","","","",""
"","","","","","instructions","14","112673","0.0-14.0","0F6A47F66891434184A840EEC77155AE","019cfa65-aef7-74f3-bd61-35362901d2b7","019cfa3a-388e-72ab-ad58-bdeb258f96cd","[{""page_index"":0,""viewing_time"":2786}]","2788","","","","","","","","","","","","","",""
"","","","","","instructions","15","118146","0.0-15.0","0F6A47F66891434184A840EEC77155AE","019cfa65-aef7-74f3-bd61-35362901d2b7","019cfa3a-388e-72ab-ad58-bdeb258f96cd","[{""page_index"":0,""viewing_time"":5471}]","5472","","","","","","","","","","","","","",""
"","","","","","html-keyboard-response","16","123148","0.0-16.0","0F6A47F66891434184A840EEC77155AE","019cfa65-aef7-74f3-bd61-35362901d2b7","019cfa3a-388e-72ab-ad58-bdeb258f96cd","","null","<div style=""background-color: white; width: 100vw; height: 100vh;""></div>","null","","","","","","","","","","","",""
"","","","","","html-keyboard-response","17","124150","0.0-17.0","0F6A47F66891434184A840EEC77155AE","019cfa65-aef7-74f3-bd61-35362901d2b7","019cfa3a-388e-72ab-ad58-bdeb258f96cd","","null","
                <div class=""stimulus-container"">
                    <img src=""images/causal_sequence/museum_causal/museum_causal_1.png"" class=""exp-image"">
                    <div class=""question-area""></div> 
                </div>","null","","","","","","","","","","","",""
"","","","","","html-button-response","18","126332","0.0-18.0","0F6A47F66891434184A840EEC77155AE","019cfa65-aef7-74f3-bd61-35362901d2b7","019cfa3a-388e-72ab-ad58-bdeb258f96cd","","2179","
                <div class=""stimulus-container"">
                    <img src=""images/causal_sequence/museum_causal/museum_causal_1.png"" class=""exp-image"">
                    <div class=""question-area"">
                        <p style=""font-size: 20px; font-weight: bold; margin: 0;"">Is there a person in this image?</p>
                    </div>
                </div>","0","main_experiment_trial","1","museum_causal","causal_sequence","chronological","","","","","","",""
"","","","","","html-keyboard-response","19","127335","0.0-19.0","0F6A47F66891434184A840EEC77155AE","019cfa65-aef7-74f3-bd61-35362901d2b7","019cfa3a-388e-72ab-ad58-bdeb258f96cd","","null","
                <div class=""stimulus-container"">
                    <img src=""images/causal_sequence/museum_causal/museum_causal_2.png"" class=""exp-image"">
                    <div class=""question-area""></div> 
                </div>","null","","","","","","","","","","","",""
"","","","","","html-button-response","20","128717","0.0-20.0","0F6A47F66891434184A840EEC77155AE","019cfa65-aef7-74f3-bd61-35362901d2b7","019cfa3a-388e-72ab-ad58-bdeb258f96cd","","1380","
                <div class=""stimulus-container"">
                    <img src=""images/causal_sequence/museum_causal/museum_causal_2.png"" class=""exp-image"">
                    <div class=""question-area"">
                        <p style=""font-size: 20px; font-weight: bold; margin: 0;"">Is there a person in this image?</p>
                    </div>
                </div>","1","main_experiment_trial","2","museum_causal","causal_sequence","chronological","","","","","","",""
"","","","","","html-keyboard-response","21","129719","0.0-21.0","0F6A47F66891434184A840EEC77155AE","019cfa65-aef7-74f3-bd61-35362901d2b7","019cfa3a-388e-72ab-ad58-bdeb258f96cd","","null","
                <div class=""stimulus-container"">
                    <img src=""images/causal_sequence/museum_causal/museum_causal_3.png"" class=""exp-image"">
                    <div class=""question-area""></div> 
                </div>","null","","","","","","","","","","","",""
"","","","","","html-button-response","22","132722","0.0-22.0","0F6A47F66891434184A840EEC77155AE","019cfa65-aef7-74f3-bd61-35362901d2b7","019cfa3a-388e-72ab-ad58-bdeb258f96cd","","null","
                <div class=""stimulus-container"">
                    <img src=""images/causal_sequence/museum_causal/museum_causal_3.png"" class=""exp-image"">
                    <div class=""question-area"">
                        <p style=""font-size: 20px; font-weight: bold; margin: 0;"">Is there a person in this image?</p>
                    </div>
                </div>","null","main_experiment_trial","3","museum_causal","causal_sequence","chronological","","","","","","",""
"","","","","","html-keyboard-response","23","133723","0.0-23.0","0F6A47F66891434184A840EEC77155AE","019cfa65-aef7-74f3-bd61-35362901d2b7","019cfa3a-388e-72ab-ad58-bdeb258f96cd","","null","
                <div class=""stimulus-container"">
                    <img src=""images/causal_sequence/museum_causal/museum_causal_4.png"" class=""exp-image"">
                    <div class=""question-area""></div> 
                </div>","null","","","","","","","","","","","",""
"","","","","","html-button-response","24","135382","0.0-24.0","0F6A47F66891434184A840EEC77155AE","019cfa65-aef7-74f3-bd61-35362901d2b7","019cfa3a-388e-72ab-ad58-bdeb258f96cd","","1657","
                <div class=""stimulus-container"">
                    <img src=""images/causal_sequence/museum_causal/museum_causal_4.png"" class=""exp-image"">
                    <div class=""question-area"">
                        <p style=""font-size: 20px; font-weight: bold; margin: 0;"">Is there a person in this image?</p>
                    </div>
                </div>","1","main_experiment_trial","4","museum_causal","causal_sequence","chronological","","","","","","",""
"","","","","","html-keyboard-response","25","136384","0.0-25.0","0F6A47F66891434184A840EEC77155AE","019cfa65-aef7-74f3-bd61-35362901d2b7","019cfa3a-388e-72ab-ad58-bdeb258f96cd","","null","
                <div class=""stimulus-container"">
                    <img src=""images/causal_sequence/museum_causal/museum_causal_5.png"" class=""exp-image"">
                    <div class=""question-area""></div> 
                </div>","null","","","","","","","","","","","",""
"","","","","","html-button-response","26","137455","0.0-26.0","0F6A47F66891434184A840EEC77155AE","019cfa65-aef7-74f3-bd61-35362901d2b7","019cfa3a-388e-72ab-ad58-bdeb258f96cd","","1070","
                <div class=""stimulus-container"">
                    <img src=""images/causal_sequence/museum_causal/museum_causal_5.png"" class=""exp-image"">
                    <div class=""question-area"">
                        <p style=""font-size: 20px; font-weight: bold; margin: 0;"">Is there a person in this image?</p>
                    </div>
                </div>","0","main_experiment_trial","5","museum_causal","causal_sequence","chronological","","","","","","",""
"","","","","","html-keyboard-response","27","138457","0.0-27.0","0F6A47F66891434184A840EEC77155AE","019cfa65-aef7-74f3-bd61-35362901d2b7","019cfa3a-388e-72ab-ad58-bdeb258f96cd","","null","
                <div class=""stimulus-container"">
                    <img src=""images/causal_sequence/museum_causal/museum_causal_6.png"" class=""exp-image"">
                    <div class=""question-area""></div> 
                </div>","null","","","","","","","","","","","",""
"","","","","","html-button-response","28","139363","0.0-28.0","0F6A47F66891434184A840EEC77155AE","019cfa65-aef7-74f3-bd61-35362901d2b7","019cfa3a-388e-72ab-ad58-bdeb258f96cd","","905","
                <div class=""stimulus-container"">
                    <img src=""images/causal_sequence/museum_causal/museum_causal_6.png"" class=""exp-image"">
                    <div class=""question-area"">
                        <p style=""font-size: 20px; font-weight: bold; margin: 0;"">Is there a person in this image?</p>
                    </div>
                </div>","0","main_experiment_trial","6","museum_causal","causal_sequence","chronological","","","","","","",""
"","","","","","html-keyboard-response","29","140365","0.0-29.0","0F6A47F66891434184A840EEC77155AE","019cfa65-aef7-74f3-bd61-35362901d2b7","019cfa3a-388e-72ab-ad58-bdeb258f96cd","","null","
                <div class=""stimulus-container"">
                    <img src=""images/causal_sequence/museum_causal/museum_causal_7.png"" class=""exp-image"">
                    <div class=""question-area""></div> 
                </div>","null","","","","","","","","","","","",""
"","","","","","html-button-response","30","141714","0.0-30.0","0F6A47F66891434184A840EEC77155AE","019cfa65-aef7-74f3-bd61-35362901d2b7","019cfa3a-388e-72ab-ad58-bdeb258f96cd","","1347","
                <div class=""stimulus-container"">
                    <img src=""images/causal_sequence/museum_causal/museum_causal_7.png"" class=""exp-image"">
                    <div class=""question-area"">
                        <p style=""font-size: 20px; font-weight: bold; margin: 0;"">Is there a person in this image?</p>
                    </div>
                </div>","1","main_experiment_trial","7","museum_causal","causal_sequence","chronological","","","","","","",""
"","","","","","html-keyboard-response","31","142716","0.0-31.0","0F6A47F66891434184A840EEC77155AE","019cfa65-aef7-74f3-bd61-35362901d2b7","019cfa3a-388e-72ab-ad58-bdeb258f96cd","","null","
                <div class=""stimulus-container"">
                    <img src=""images/causal_sequence/museum_causal/museum_causal_8.png"" class=""exp-image"">
                    <div class=""question-area""></div> 
                </div>","null","","","","","","","","","","","",""
"","","","","","html-button-response","32","143450","0.0-32.0","0F6A47F66891434184A840EEC77155AE","019cfa65-aef7-74f3-bd61-35362901d2b7","019cfa3a-388e-72ab-ad58-bdeb258f96cd","","732","
                <div class=""stimulus-container"">
                    <img src=""images/causal_sequence/museum_causal/museum_causal_8.png"" class=""exp-image"">
                    <div class=""question-area"">
                        <p style=""font-size: 20px; font-weight: bold; margin: 0;"">Is there a person in this image?</p>
                    </div>
                </div>","0","main_experiment_trial","8","museum_causal","causal_sequence","chronological","","","","","","",""
"","","","","","html-keyboard-response","33","144451","0.0-33.0","0F6A47F66891434184A840EEC77155AE","019cfa65-aef7-74f3-bd61-35362901d2b7","019cfa3a-388e-72ab-ad58-bdeb258f96cd","","null","
                <div class=""stimulus-container"">
                    <img src=""images/causal_sequence/museum_causal/museum_causal_9.png"" class=""exp-image"">
                    <div class=""question-area""></div> 
                </div>","null","","","","","","","","","","","",""
"","","","","","html-button-response","34","144954","0.0-34.0","0F6A47F66891434184A840EEC77155AE","019cfa65-aef7-74f3-bd61-35362901d2b7","019cfa3a-388e-72ab-ad58-bdeb258f96cd","","501","
                <div class=""stimulus-container"">
                    <img src=""images/causal_sequence/museum_causal/museum_causal_9.png"" class=""exp-image"">
                    <div class=""question-area"">
                        <p style=""font-size: 20px; font-weight: bold; margin: 0;"">Is there a person in this image?</p>
                    </div>
                </div>","1","main_experiment_trial","9","museum_causal","causal_sequence","chronological","","","","","","",""
"","","","","","html-keyboard-response","35","145957","0.0-35.0","0F6A47F66891434184A840EEC77155AE","019cfa65-aef7-74f3-bd61-35362901d2b7","019cfa3a-388e-72ab-ad58-bdeb258f96cd","","null","
                <div class=""stimulus-container"">
                    <img src=""images/causal_sequence/museum_causal/museum_causal_ten.png"" class=""exp-image"">
                    <div class=""question-area""></div> 
                </div>","null","","","","","","","","","","","",""
"","","","","","html-button-response","36","146473","0.0-36.0","0F6A47F66891434184A840EEC77155AE","019cfa65-aef7-74f3-bd61-35362901d2b7","019cfa3a-388e-72ab-ad58-bdeb258f96cd","","515","
                <div class=""stimulus-container"">
                    <img src=""images/causal_sequence/museum_causal/museum_causal_ten.png"" class=""exp-image"">
                    <div class=""question-area"">
                        <p style=""font-size: 20px; font-weight: bold; margin: 0;"">Is there a person in this image?</p>
                    </div>
                </div>","0","main_experiment_trial","ten","museum_causal","causal_sequence","chronological","","","","","","",""
"","","","","","html-keyboard-response","37","151475","0.0-37.0","0F6A47F66891434184A840EEC77155AE","019cfa65-aef7-74f3-bd61-35362901d2b7","019cfa3a-388e-72ab-ad58-bdeb258f96cd","","null","<div style=""background-color: white; width: 100vw; height: 100vh;""></div>","null","","","","","","","","","","","",""
"","","","","","html-keyboard-response","38","152477","0.0-38.0","0F6A47F66891434184A840EEC77155AE","019cfa65-aef7-74f3-bd61-35362901d2b7","019cfa3a-388e-72ab-ad58-bdeb258f96cd","","null","
                <div class=""stimulus-container"">
                    <img src=""images/causal_sequence/coin_causal/coin_causal_1.png"" class=""exp-image"">
                    <div class=""question-area""></div> 
                </div>","null","","","","","","","","","","","",""
"","","","","","html-button-response","39","153564","0.0-39.0","0F6A47F66891434184A840EEC77155AE","019cfa65-aef7-74f3-bd61-35362901d2b7","019cfa3a-388e-72ab-ad58-bdeb258f96cd","","1085","
                <div class=""stimulus-container"">
                    <img src=""images/causal_sequence/coin_causal/coin_causal_1.png"" class=""exp-image"">
                    <div class=""question-area"">
                        <p style=""font-size: 20px; font-weight: bold; margin: 0;"">Is there a person in this image?</p>
                    </div>
                </div>","0","main_experiment_trial","1","coin_causal","causal_sequence","chronological","","","","","","",""
"","","","","","html-keyboard-response","40","154566","0.0-40.0","0F6A47F66891434184A840EEC77155AE","019cfa65-aef7-74f3-bd61-35362901d2b7","019cfa3a-388e-72ab-ad58-bdeb258f96cd","","null","
                <div class=""stimulus-container"">
                    <img src=""images/causal_sequence/coin_causal/coin_causal_2.png"" class=""exp-image"">
                    <div class=""question-area""></div> 
                </div>","null","","","","","","","","","","","",""
"","","","","","html-button-response","41","155480","0.0-41.0","0F6A47F66891434184A840EEC77155AE","019cfa65-aef7-74f3-bd61-35362901d2b7","019cfa3a-388e-72ab-ad58-bdeb258f96cd","","913","
                <div class=""stimulus-container"">
                    <img src=""images/causal_sequence/coin_causal/coin_causal_2.png"" class=""exp-image"">
                    <div class=""question-area"">
                        <p style=""font-size: 20px; font-weight: bold; margin: 0;"">Is there a person in this image?</p>
                    </div>
                </div>","0","main_experiment_trial","2","coin_causal","causal_sequence","chronological","","","","","","",""
"","","","","","html-keyboard-response","42","156482","0.0-42.0","0F6A47F66891434184A840EEC77155AE","019cfa65-aef7-74f3-bd61-35362901d2b7","019cfa3a-388e-72ab-ad58-bdeb258f96cd","","null","
                <div class=""stimulus-container"">
                    <img src=""images/causal_sequence/coin_causal/coin_causal_3.png"" class=""exp-image"">
                    <div class=""question-area""></div> 
                </div>","null","","","","","","","","","","","",""
"","","","","","html-button-response","43","157456","0.0-43.0","0F6A47F66891434184A840EEC77155AE","019cfa65-aef7-74f3-bd61-35362901d2b7","019cfa3a-388e-72ab-ad58-bdeb258f96cd","","973","
                <div class=""stimulus-container"">
                    <img src=""images/causal_sequence/coin_causal/coin_causal_3.png"" class=""exp-image"">
                    <div class=""question-area"">
                        <p style=""font-size: 20px; font-weight: bold; margin: 0;"">Is there a person in this image?</p>
                    </div>
                </div>","0","main_experiment_trial","3","coin_causal","causal_sequence","chronological","","","","","","",""
"","","","","","html-keyboard-response","44","158458","0.0-44.0","0F6A47F66891434184A840EEC77155AE","019cfa65-aef7-74f3-bd61-35362901d2b7","019cfa3a-388e-72ab-ad58-bdeb258f96cd","","null","
                <div class=""stimulus-container"">
                    <img src=""images/causal_sequence/coin_causal/coin_causal_4.png"" class=""exp-image"">
                    <div class=""question-area""></div> 
                </div>","null","","","","","","","","","","","",""
"","","","","","html-button-response","45","159193","0.0-45.0","0F6A47F66891434184A840EEC77155AE","019cfa65-aef7-74f3-bd61-35362901d2b7","019cfa3a-388e-72ab-ad58-bdeb258f96cd","","732","
                <div class=""stimulus-container"">
                    <img src=""images/causal_sequence/coin_causal/coin_causal_4.png"" class=""exp-image"">
                    <div class=""question-area"">
                        <p style=""font-size: 20px; font-weight: bold; margin: 0;"">Is there a person in this image?</p>
                    </div>
                </div>","0","main_experiment_trial","4","coin_causal","causal_sequence","chronological","","","","","","",""
"","","","","","html-keyboard-response","46","160196","0.0-46.0","0F6A47F66891434184A840EEC77155AE","019cfa65-aef7-74f3-bd61-35362901d2b7","019cfa3a-388e-72ab-ad58-bdeb258f96cd","","null","
                <div class=""stimulus-container"">
                    <img src=""images/causal_sequence/coin_causal/coin_causal_5.png"" class=""exp-image"">
                    <div class=""question-area""></div> 
                </div>","null","","","","","","","","","","","",""
"","","","","","html-button-response","47","160896","0.0-47.0","0F6A47F66891434184A840EEC77155AE","019cfa65-aef7-74f3-bd61-35362901d2b7","019cfa3a-388e-72ab-ad58-bdeb258f96cd","","699","
                <div class=""stimulus-container"">
                    <img src=""images/causal_sequence/coin_causal/coin_causal_5.png"" class=""exp-image"">
                    <div class=""question-area"">
                        <p style=""font-size: 20px; font-weight: bold; margin: 0;"">Is there a person in this image?</p>
                    </div>
                </div>","0","main_experiment_trial","5","coin_causal","causal_sequence","chronological","","","","","","",""
"","","","","","html-keyboard-response","48","161898","0.0-48.0","0F6A47F66891434184A840EEC77155AE","019cfa65-aef7-74f3-bd61-35362901d2b7","019cfa3a-388e-72ab-ad58-bdeb258f96cd","","null","
                <div class=""stimulus-container"">
                    <img src=""images/causal_sequence/coin_causal/coin_causal_6.png"" class=""exp-image"">
                    <div class=""question-area""></div> 
                </div>","null","","","","","","","","","","","",""
"","","","","","html-button-response","49","162509","0.0-49.0","0F6A47F66891434184A840EEC77155AE","019cfa65-aef7-74f3-bd61-35362901d2b7","019cfa3a-388e-72ab-ad58-bdeb258f96cd","","610","
                <div class=""stimulus-container"">
                    <img src=""images/causal_sequence/coin_causal/coin_causal_6.png"" class=""exp-image"">
                    <div class=""question-area"">
                        <p style=""font-size: 20px; font-weight: bold; margin: 0;"">Is there a person in this image?</p>
                    </div>
                </div>","0","main_experiment_trial","6","coin_causal","causal_sequence","chronological","","","","","","",""
"","","","","","html-keyboard-response","50","163511","0.0-50.0","0F6A47F66891434184A840EEC77155AE","019cfa65-aef7-74f3-bd61-35362901d2b7","019cfa3a-388e-72ab-ad58-bdeb258f96cd","","null","
                <div class=""stimulus-container"">
                    <img src=""images/causal_sequence/coin_causal/coin_causal_7.png"" class=""exp-image"">
                    <div class=""question-area""></div> 
                </div>","null","","","","","","","","","","","",""
"","","","","","html-button-response","51","164365","0.0-51.0","0F6A47F66891434184A840EEC77155AE","019cfa65-aef7-74f3-bd61-35362901d2b7","019cfa3a-388e-72ab-ad58-bdeb258f96cd","","852","
                <div class=""stimulus-container"">
                    <img src=""images/causal_sequence/coin_causal/coin_causal_7.png"" class=""exp-image"">
                    <div class=""question-area"">
                        <p style=""font-size: 20px; font-weight: bold; margin: 0;"">Is there a person in this image?</p>
                    </div>
                </div>","1","main_experiment_trial","7","coin_causal","causal_sequence","chronological","","","","","","",""
"","","","","","html-keyboard-response","52","165368","0.0-52.0","0F6A47F66891434184A840EEC77155AE","019cfa65-aef7-74f3-bd61-35362901d2b7","019cfa3a-388e-72ab-ad58-bdeb258f96cd","","null","
                <div class=""stimulus-container"">
                    <img src=""images/causal_sequence/coin_causal/coin_causal_8.png"" class=""exp-image"">
                    <div class=""question-area""></div> 
                </div>","null","","","","","","","","","","","",""
"","","","","","html-button-response","53","165796","0.0-53.0","0F6A47F66891434184A840EEC77155AE","019cfa65-aef7-74f3-bd61-35362901d2b7","019cfa3a-388e-72ab-ad58-bdeb258f96cd","","427","
                <div class=""stimulus-container"">
                    <img src=""images/causal_sequence/coin_causal/coin_causal_8.png"" class=""exp-image"">
                    <div class=""question-area"">
                        <p style=""font-size: 20px; font-weight: bold; margin: 0;"">Is there a person in this image?</p>
                    </div>
                </div>","0","main_experiment_trial","8","coin_causal","causal_sequence","chronological","","","","","","",""
"","","","","","html-keyboard-response","54","166798","0.0-54.0","0F6A47F66891434184A840EEC77155AE","019cfa65-aef7-74f3-bd61-35362901d2b7","019cfa3a-388e-72ab-ad58-bdeb258f96cd","","null","
                <div class=""stimulus-container"">
                    <img src=""images/causal_sequence/coin_causal/coin_causal_9.png"" class=""exp-image"">
                    <div class=""question-area""></div> 
                </div>","null","","","","","","","","","","","",""
"","","","","","html-button-response","55","166969","0.0-55.0","0F6A47F66891434184A840EEC77155AE","019cfa65-aef7-74f3-bd61-35362901d2b7","019cfa3a-388e-72ab-ad58-bdeb258f96cd","","169","
                <div class=""stimulus-container"">
                    <img src=""images/causal_sequence/coin_causal/coin_causal_9.png"" class=""exp-image"">
                    <div class=""question-area"">
                        <p style=""font-size: 20px; font-weight: bold; margin: 0;"">Is there a person in this image?</p>
                    </div>
                </div>","0","main_experiment_trial","9","coin_causal","causal_sequence","chronological","","","","","","",""
"","","","","","html-keyboard-response","56","167972","0.0-56.0","0F6A47F66891434184A840EEC77155AE","019cfa65-aef7-74f3-bd61-35362901d2b7","019cfa3a-388e-72ab-ad58-bdeb258f96cd","","null","
                <div class=""stimulus-container"">
                    <img src=""images/causal_sequence/coin_causal/coin_causal_ten.png"" class=""exp-image"">
                    <div class=""question-area""></div> 
                </div>","null","","","","","","","","","","","",""
"","","","","","html-button-response","57","168365","0.0-57.0","0F6A47F66891434184A840EEC77155AE","019cfa65-aef7-74f3-bd61-35362901d2b7","019cfa3a-388e-72ab-ad58-bdeb258f96cd","","392","
                <div class=""stimulus-container"">
                    <img src=""images/causal_sequence/coin_causal/coin_causal_ten.png"" class=""exp-image"">
                    <div class=""question-area"">
                        <p style=""font-size: 20px; font-weight: bold; margin: 0;"">Is there a person in this image?</p>
                    </div>
                </div>","0","main_experiment_trial","ten","coin_causal","causal_sequence","chronological","","","","","","",""
"","","","","","html-keyboard-response","58","173366","0.0-58.0","0F6A47F66891434184A840EEC77155AE","019cfa65-aef7-74f3-bd61-35362901d2b7","019cfa3a-388e-72ab-ad58-bdeb258f96cd","","null","<div style=""background-color: white; width: 100vw; height: 100vh;""></div>","null","","","","","","","","","","","",""
"","","","","","html-keyboard-response","59","174368","0.0-59.0","0F6A47F66891434184A840EEC77155AE","019cfa65-aef7-74f3-bd61-35362901d2b7","019cfa3a-388e-72ab-ad58-bdeb258f96cd","","null","
                <div class=""stimulus-container"">
                    <img src=""images/causal_sequence/package_causal/package_causal_1.png"" class=""exp-image"">
                    <div class=""question-area""></div> 
                </div>","null","","","","","","","","","","","",""
"","","","","","html-button-response","60","177371","0.0-60.0","0F6A47F66891434184A840EEC77155AE","019cfa65-aef7-74f3-bd61-35362901d2b7","019cfa3a-388e-72ab-ad58-bdeb258f96cd","","null","
                <div class=""stimulus-container"">
                    <img src=""images/causal_sequence/package_causal/package_causal_1.png"" class=""exp-image"">
                    <div class=""question-area"">
                        <p style=""font-size: 20px; font-weight: bold; margin: 0;"">Is there a person in this image?</p>
                    </div>
                </div>","null","main_experiment_trial","1","package_causal","causal_sequence","chronological","","","","","","",""
"","","","","","html-keyboard-response","61","178373","0.0-61.0","0F6A47F66891434184A840EEC77155AE","019cfa65-aef7-74f3-bd61-35362901d2b7","019cfa3a-388e-72ab-ad58-bdeb258f96cd","","null","
                <div class=""stimulus-container"">
                    <img src=""images/causal_sequence/package_causal/package_causal_2.png"" class=""exp-image"">
                    <div class=""question-area""></div> 
                </div>","null","","","","","","","","","","","",""
"","","","","","html-button-response","62","180000","0.0-62.0","0F6A47F66891434184A840EEC77155AE","019cfa65-aef7-74f3-bd61-35362901d2b7","019cfa3a-388e-72ab-ad58-bdeb258f96cd","","1626","
                <div class=""stimulus-container"">
                    <img src=""images/causal_sequence/package_causal/package_causal_2.png"" class=""exp-image"">
                    <div class=""question-area"">
                        <p style=""font-size: 20px; font-weight: bold; margin: 0;"">Is there a person in this image?</p>
                    </div>
                </div>","0","main_experiment_trial","2","package_causal","causal_sequence","chronological","","","","","","",""
"","","","","","html-keyboard-response","63","181002","0.0-63.0","0F6A47F66891434184A840EEC77155AE","019cfa65-aef7-74f3-bd61-35362901d2b7","019cfa3a-388e-72ab-ad58-bdeb258f96cd","","null","
                <div class=""stimulus-container"">
                    <img src=""images/causal_sequence/package_causal/package_causal_3.png"" class=""exp-image"">
                    <div class=""question-area""></div> 
                </div>","null","","","","","","","","","","","",""
"","","","","","html-button-response","64","181580","0.0-64.0","0F6A47F66891434184A840EEC77155AE","019cfa65-aef7-74f3-bd61-35362901d2b7","019cfa3a-388e-72ab-ad58-bdeb258f96cd","","577","
                <div class=""stimulus-container"">
                    <img src=""images/causal_sequence/package_causal/package_causal_3.png"" class=""exp-image"">
                    <div class=""question-area"">
                        <p style=""font-size: 20px; font-weight: bold; margin: 0;"">Is there a person in this image?</p>
                    </div>
                </div>","0","main_experiment_trial","3","package_causal","causal_sequence","chronological","","","","","","",""
"","","","","","html-keyboard-response","65","182582","0.0-65.0","0F6A47F66891434184A840EEC77155AE","019cfa65-aef7-74f3-bd61-35362901d2b7","019cfa3a-388e-72ab-ad58-bdeb258f96cd","","null","
                <div class=""stimulus-container"">
                    <img src=""images/causal_sequence/package_causal/package_causal_4.png"" class=""exp-image"">
                    <div class=""question-area""></div> 
                </div>","null","","","","","","","","","","","",""
"","","","","","html-button-response","66","183026","0.0-66.0","0F6A47F66891434184A840EEC77155AE","019cfa65-aef7-74f3-bd61-35362901d2b7","019cfa3a-388e-72ab-ad58-bdeb258f96cd","","442","
                <div class=""stimulus-container"">
                    <img src=""images/causal_sequence/package_causal/package_causal_4.png"" class=""exp-image"">
                    <div class=""question-area"">
                        <p style=""font-size: 20px; font-weight: bold; margin: 0;"">Is there a person in this image?</p>
                    </div>
                </div>","1","main_experiment_trial","4","package_causal","causal_sequence","chronological","","","","","","",""
"","","","","","html-keyboard-response","67","184028","0.0-67.0","0F6A47F66891434184A840EEC77155AE","019cfa65-aef7-74f3-bd61-35362901d2b7","019cfa3a-388e-72ab-ad58-bdeb258f96cd","","null","
                <div class=""stimulus-container"">
                    <img src=""images/causal_sequence/package_causal/package_causal_5.png"" class=""exp-image"">
                    <div class=""question-area""></div> 
                </div>","null","","","","","","","","","","","",""
"","","","","","html-button-response","68","184382","0.0-68.0","0F6A47F66891434184A840EEC77155AE","019cfa65-aef7-74f3-bd61-35362901d2b7","019cfa3a-388e-72ab-ad58-bdeb258f96cd","","352","
                <div class=""stimulus-container"">
                    <img src=""images/causal_sequence/package_causal/package_causal_5.png"" class=""exp-image"">
                    <div class=""question-area"">
                        <p style=""font-size: 20px; font-weight: bold; margin: 0;"">Is there a person in this image?</p>
                    </div>
                </div>","0","main_experiment_trial","5","package_causal","causal_sequence","chronological","","","","","","",""
"","","","","","html-keyboard-response","69","185384","0.0-69.0","0F6A47F66891434184A840EEC77155AE","019cfa65-aef7-74f3-bd61-35362901d2b7","019cfa3a-388e-72ab-ad58-bdeb258f96cd","","null","
                <div class=""stimulus-container"">
                    <img src=""images/causal_sequence/package_causal/package_causal_6.png"" class=""exp-image"">
                    <div class=""question-area""></div> 
                </div>","null","","","","","","","","","","","",""
"","","","","","html-button-response","70","185768","0.0-70.0","0F6A47F66891434184A840EEC77155AE","019cfa65-aef7-74f3-bd61-35362901d2b7","019cfa3a-388e-72ab-ad58-bdeb258f96cd","","381","
                <div class=""stimulus-container"">
                    <img src=""images/causal_sequence/package_causal/package_causal_6.png"" class=""exp-image"">
                    <div class=""question-area"">
                        <p style=""font-size: 20px; font-weight: bold; margin: 0;"">Is there a person in this image?</p>
                    </div>
                </div>","0","main_experiment_trial","6","package_causal","causal_sequence","chronological","","","","","","",""
"","","","","","html-keyboard-response","71","186769","0.0-71.0","0F6A47F66891434184A840EEC77155AE","019cfa65-aef7-74f3-bd61-35362901d2b7","019cfa3a-388e-72ab-ad58-bdeb258f96cd","","null","
                <div class=""stimulus-container"">
                    <img src=""images/causal_sequence/package_causal/package_causal_7.png"" class=""exp-image"">
                    <div class=""question-area""></div> 
                </div>","null","","","","","","","","","","","",""
"","","","","","html-button-response","72","187011","0.0-72.0","0F6A47F66891434184A840EEC77155AE","019cfa65-aef7-74f3-bd61-35362901d2b7","019cfa3a-388e-72ab-ad58-bdeb258f96cd","","239","
                <div class=""stimulus-container"">
                    <img src=""images/causal_sequence/package_causal/package_causal_7.png"" class=""exp-image"">
                    <div class=""question-area"">
                        <p style=""font-size: 20px; font-weight: bold; margin: 0;"">Is there a person in this image?</p>
                    </div>
                </div>","0","main_experiment_trial","7","package_causal","causal_sequence","chronological","","","","","","",""
"","","","","","html-keyboard-response","73","188013","0.0-73.0","0F6A47F66891434184A840EEC77155AE","019cfa65-aef7-74f3-bd61-35362901d2b7","019cfa3a-388e-72ab-ad58-bdeb258f96cd","","null","
                <div class=""stimulus-container"">
                    <img src=""images/causal_sequence/package_causal/package_causal_8.png"" class=""exp-image"">
                    <div class=""question-area""></div> 
                </div>","null","","","","","","","","","","","",""
"","","","","","html-button-response","74","188699","0.0-74.0","0F6A47F66891434184A840EEC77155AE","019cfa65-aef7-74f3-bd61-35362901d2b7","019cfa3a-388e-72ab-ad58-bdeb258f96cd","","685","
                <div class=""stimulus-container"">
                    <img src=""images/causal_sequence/package_causal/package_causal_8.png"" class=""exp-image"">
                    <div class=""question-area"">
                        <p style=""font-size: 20px; font-weight: bold; margin: 0;"">Is there a person in this image?</p>
                    </div>
                </div>","0","main_experiment_trial","8","package_causal","causal_sequence","chronological","","","","","","",""
"","","","","","html-keyboard-response","75","189701","0.0-75.0","0F6A47F66891434184A840EEC77155AE","019cfa65-aef7-74f3-bd61-35362901d2b7","019cfa3a-388e-72ab-ad58-bdeb258f96cd","","null","
                <div class=""stimulus-container"">
                    <img src=""images/causal_sequence/package_causal/package_causal_9.png"" class=""exp-image"">
                    <div class=""question-area""></div> 
                </div>","null","","","","","","","","","","","",""
"","","","","","html-button-response","76","190082","0.0-76.0","0F6A47F66891434184A840EEC77155AE","019cfa65-aef7-74f3-bd61-35362901d2b7","019cfa3a-388e-72ab-ad58-bdeb258f96cd","","380","
                <div class=""stimulus-container"">
                    <img src=""images/causal_sequence/package_causal/package_causal_9.png"" class=""exp-image"">
                    <div class=""question-area"">
                        <p style=""font-size: 20px; font-weight: bold; margin: 0;"">Is there a person in this image?</p>
                    </div>
                </div>","0","main_experiment_trial","9","package_causal","causal_sequence","chronological","","","","","","",""
"","","","","","html-keyboard-response","77","191084","0.0-77.0","0F6A47F66891434184A840EEC77155AE","019cfa65-aef7-74f3-bd61-35362901d2b7","019cfa3a-388e-72ab-ad58-bdeb258f96cd","","null","
                <div class=""stimulus-container"">
                    <img src=""images/causal_sequence/package_causal/package_causal_ten.png"" class=""exp-image"">
                    <div class=""question-area""></div> 
                </div>","null","","","","","","","","","","","",""
"","","","","","html-button-response","78","191587","0.0-78.0","0F6A47F66891434184A840EEC77155AE","019cfa65-aef7-74f3-bd61-35362901d2b7","019cfa3a-388e-72ab-ad58-bdeb258f96cd","","502","
                <div class=""stimulus-container"">
                    <img src=""images/causal_sequence/package_causal/package_causal_ten.png"" class=""exp-image"">
                    <div class=""question-area"">
                        <p style=""font-size: 20px; font-weight: bold; margin: 0;"">Is there a person in this image?</p>
                    </div>
                </div>","0","main_experiment_trial","ten","package_causal","causal_sequence","chronological","","","","","","",""
"","","","","","html-keyboard-response","79","196589","0.0-79.0","0F6A47F66891434184A840EEC77155AE","019cfa65-aef7-74f3-bd61-35362901d2b7","019cfa3a-388e-72ab-ad58-bdeb258f96cd","","null","<div style=""background-color: white; width: 100vw; height: 100vh;""></div>","null","","","","","","","","","","","",""
"","","","","","html-keyboard-response","80","197591","0.0-80.0","0F6A47F66891434184A840EEC77155AE","019cfa65-aef7-74f3-bd61-35362901d2b7","019cfa3a-388e-72ab-ad58-bdeb258f96cd","","null","
                <div class=""stimulus-container"">
                    <img src=""images/semantic_sequence/exploring_nature_semantic/exploring_nature_semantic_1.png"" class=""exp-image"">
                    <div class=""question-area""></div> 
                </div>","null","","","","","","","","","","","",""
"","","","","","html-button-response","81","199797","0.0-81.0","0F6A47F66891434184A840EEC77155AE","019cfa65-aef7-74f3-bd61-35362901d2b7","019cfa3a-388e-72ab-ad58-bdeb258f96cd","","2204","
                <div class=""stimulus-container"">
                    <img src=""images/semantic_sequence/exploring_nature_semantic/exploring_nature_semantic_1.png"" class=""exp-image"">
                    <div class=""question-area"">
                        <p style=""font-size: 20px; font-weight: bold; margin: 0;"">Is there a person in this image?</p>
                    </div>
                </div>","0","main_experiment_trial","1","exploring_nature_semantic","semantic_sequence","chronological","","","","","","",""
"","","","","","html-keyboard-response","82","200799","0.0-82.0","0F6A47F66891434184A840EEC77155AE","019cfa65-aef7-74f3-bd61-35362901d2b7","019cfa3a-388e-72ab-ad58-bdeb258f96cd","","null","
                <div class=""stimulus-container"">
                    <img src=""images/semantic_sequence/exploring_nature_semantic/exploring_nature_semantic_2.png"" class=""exp-image"">
                    <div class=""question-area""></div> 
                </div>","null","","","","","","","","","","","",""
"","","","","","html-button-response","83","201179","0.0-83.0","0F6A47F66891434184A840EEC77155AE","019cfa65-aef7-74f3-bd61-35362901d2b7","019cfa3a-388e-72ab-ad58-bdeb258f96cd","","378","
                <div class=""stimulus-container"">
                    <img src=""images/semantic_sequence/exploring_nature_semantic/exploring_nature_semantic_2.png"" class=""exp-image"">
                    <div class=""question-area"">
                        <p style=""font-size: 20px; font-weight: bold; margin: 0;"">Is there a person in this image?</p>
                    </div>
                </div>","0","main_experiment_trial","2","exploring_nature_semantic","semantic_sequence","chronological","","","","","","",""
"","","","","","html-keyboard-response","84","202181","0.0-84.0","0F6A47F66891434184A840EEC77155AE","019cfa65-aef7-74f3-bd61-35362901d2b7","019cfa3a-388e-72ab-ad58-bdeb258f96cd","","null","
                <div class=""stimulus-container"">
                    <img src=""images/semantic_sequence/exploring_nature_semantic/exploring_nature_semantic_3.png"" class=""exp-image"">
                    <div class=""question-area""></div> 
                </div>","null","","","","","","","","","","","",""
"","","","","","html-button-response","85","202670","0.0-85.0","0F6A47F66891434184A840EEC77155AE","019cfa65-aef7-74f3-bd61-35362901d2b7","019cfa3a-388e-72ab-ad58-bdeb258f96cd","","487","
                <div class=""stimulus-container"">
                    <img src=""images/semantic_sequence/exploring_nature_semantic/exploring_nature_semantic_3.png"" class=""exp-image"">
                    <div class=""question-area"">
                        <p style=""font-size: 20px; font-weight: bold; margin: 0;"">Is there a person in this image?</p>
                    </div>
                </div>","0","main_experiment_trial","3","exploring_nature_semantic","semantic_sequence","chronological","","","","","","",""
"","","","","","html-keyboard-response","86","203671","0.0-86.0","0F6A47F66891434184A840EEC77155AE","019cfa65-aef7-74f3-bd61-35362901d2b7","019cfa3a-388e-72ab-ad58-bdeb258f96cd","","null","
                <div class=""stimulus-container"">
                    <img src=""images/semantic_sequence/exploring_nature_semantic/exploring_nature_semantic_4.png"" class=""exp-image"">
                    <div class=""question-area""></div> 
                </div>","null","","","","","","","","","","","",""
"","","","","","html-button-response","87","204140","0.0-87.0","0F6A47F66891434184A840EEC77155AE","019cfa65-aef7-74f3-bd61-35362901d2b7","019cfa3a-388e-72ab-ad58-bdeb258f96cd","","466","
                <div class=""stimulus-container"">
                    <img src=""images/semantic_sequence/exploring_nature_semantic/exploring_nature_semantic_4.png"" class=""exp-image"">
                    <div class=""question-area"">
                        <p style=""font-size: 20px; font-weight: bold; margin: 0;"">Is there a person in this image?</p>
                    </div>
                </div>","0","main_experiment_trial","4","exploring_nature_semantic","semantic_sequence","chronological","","","","","","",""
"","","","","","html-keyboard-response","88","205143","0.0-88.0","0F6A47F66891434184A840EEC77155AE","019cfa65-aef7-74f3-bd61-35362901d2b7","019cfa3a-388e-72ab-ad58-bdeb258f96cd","","null","
                <div class=""stimulus-container"">
                    <img src=""images/semantic_sequence/exploring_nature_semantic/exploring_nature_semantic_5.png"" class=""exp-image"">
                    <div class=""question-area""></div> 
                </div>","null","","","","","","","","","","","",""
"","","","","","html-button-response","89","205648","0.0-89.0","0F6A47F66891434184A840EEC77155AE","019cfa65-aef7-74f3-bd61-35362901d2b7","019cfa3a-388e-72ab-ad58-bdeb258f96cd","","503","
                <div class=""stimulus-container"">
                    <img src=""images/semantic_sequence/exploring_nature_semantic/exploring_nature_semantic_5.png"" class=""exp-image"">
                    <div class=""question-area"">
                        <p style=""font-size: 20px; font-weight: bold; margin: 0;"">Is there a person in this image?</p>
                    </div>
                </div>","0","main_experiment_trial","5","exploring_nature_semantic","semantic_sequence","chronological","","","","","","",""
"","","","","","html-keyboard-response","90","206649","0.0-90.0","0F6A47F66891434184A840EEC77155AE","019cfa65-aef7-74f3-bd61-35362901d2b7","019cfa3a-388e-72ab-ad58-bdeb258f96cd","","null","
                <div class=""stimulus-container"">
                    <img src=""images/semantic_sequence/exploring_nature_semantic/exploring_nature_semantic_6.png"" class=""exp-image"">
                    <div class=""question-area""></div> 
                </div>","null","","","","","","","","","","","",""
"","","","","","html-button-response","91","207276","0.0-91.0","0F6A47F66891434184A840EEC77155AE","019cfa65-aef7-74f3-bd61-35362901d2b7","019cfa3a-388e-72ab-ad58-bdeb258f96cd","","625","
                <div class=""stimulus-container"">
                    <img src=""images/semantic_sequence/exploring_nature_semantic/exploring_nature_semantic_6.png"" class=""exp-image"">
                    <div class=""question-area"">
                        <p style=""font-size: 20px; font-weight: bold; margin: 0;"">Is there a person in this image?</p>
                    </div>
                </div>","0","main_experiment_trial","6","exploring_nature_semantic","semantic_sequence","chronological","","","","","","",""
"","","","","","html-keyboard-response","92","208278","0.0-92.0","0F6A47F66891434184A840EEC77155AE","019cfa65-aef7-74f3-bd61-35362901d2b7","019cfa3a-388e-72ab-ad58-bdeb258f96cd","","null","
                <div class=""stimulus-container"">
                    <img src=""images/semantic_sequence/exploring_nature_semantic/exploring_nature_semantic_7.png"" class=""exp-image"">
                    <div class=""question-area""></div> 
                </div>","null","","","","","","","","","","","",""
"","","","","","html-button-response","93","208990","0.0-93.0","0F6A47F66891434184A840EEC77155AE","019cfa65-aef7-74f3-bd61-35362901d2b7","019cfa3a-388e-72ab-ad58-bdeb258f96cd","","709","
                <div class=""stimulus-container"">
                    <img src=""images/semantic_sequence/exploring_nature_semantic/exploring_nature_semantic_7.png"" class=""exp-image"">
                    <div class=""question-area"">
                        <p style=""font-size: 20px; font-weight: bold; margin: 0;"">Is there a person in this image?</p>
                    </div>
                </div>","0","main_experiment_trial","7","exploring_nature_semantic","semantic_sequence","chronological","","","","","","",""
"","","","","","html-keyboard-response","94","209993","0.0-94.0","0F6A47F66891434184A840EEC77155AE","019cfa65-aef7-74f3-bd61-35362901d2b7","019cfa3a-388e-72ab-ad58-bdeb258f96cd","","null","
                <div class=""stimulus-container"">
                    <img src=""images/semantic_sequence/exploring_nature_semantic/exploring_nature_semantic_8.png"" class=""exp-image"">
                    <div class=""question-area""></div> 
                </div>","null","","","","","","","","","","","",""
"","","","","","html-button-response","95","210680","0.0-95.0","0F6A47F66891434184A840EEC77155AE","019cfa65-aef7-74f3-bd61-35362901d2b7","019cfa3a-388e-72ab-ad58-bdeb258f96cd","","686","
                <div class=""stimulus-container"">
                    <img src=""images/semantic_sequence/exploring_nature_semantic/exploring_nature_semantic_8.png"" class=""exp-image"">
                    <div class=""question-area"">
                        <p style=""font-size: 20px; font-weight: bold; margin: 0;"">Is there a person in this image?</p>
                    </div>
                </div>","0","main_experiment_trial","8","exploring_nature_semantic","semantic_sequence","chronological","","","","","","",""
"","","","","","html-keyboard-response","96","211681","0.0-96.0","0F6A47F66891434184A840EEC77155AE","019cfa65-aef7-74f3-bd61-35362901d2b7","019cfa3a-388e-72ab-ad58-bdeb258f96cd","","null","
                <div class=""stimulus-container"">
                    <img src=""images/semantic_sequence/exploring_nature_semantic/exploring_nature_semantic_9.png"" class=""exp-image"">
                    <div class=""question-area""></div> 
                </div>","null","","","","","","","","","","","",""
"","","","","","html-button-response","97","212192","0.0-97.0","0F6A47F66891434184A840EEC77155AE","019cfa65-aef7-74f3-bd61-35362901d2b7","019cfa3a-388e-72ab-ad58-bdeb258f96cd","","509","
                <div class=""stimulus-container"">
                    <img src=""images/semantic_sequence/exploring_nature_semantic/exploring_nature_semantic_9.png"" class=""exp-image"">
                    <div class=""question-area"">
                        <p style=""font-size: 20px; font-weight: bold; margin: 0;"">Is there a person in this image?</p>
                    </div>
                </div>","0","main_experiment_trial","9","exploring_nature_semantic","semantic_sequence","chronological","","","","","","",""
"","","","","","html-keyboard-response","98","213193","0.0-98.0","0F6A47F66891434184A840EEC77155AE","019cfa65-aef7-74f3-bd61-35362901d2b7","019cfa3a-388e-72ab-ad58-bdeb258f96cd","","null","
                <div class=""stimulus-container"">
                    <img src=""images/semantic_sequence/exploring_nature_semantic/exploring_nature_semantic_ten.png"" class=""exp-image"">
                    <div class=""question-area""></div> 
                </div>","null","","","","","","","","","","","",""
"","","","","","html-button-response","99","213669","0.0-99.0","0F6A47F66891434184A840EEC77155AE","019cfa65-aef7-74f3-bd61-35362901d2b7","019cfa3a-388e-72ab-ad58-bdeb258f96cd","","473","
                <div class=""stimulus-container"">
                    <img src=""images/semantic_sequence/exploring_nature_semantic/exploring_nature_semantic_ten.png"" class=""exp-image"">
                    <div class=""question-area"">
                        <p style=""font-size: 20px; font-weight: bold; margin: 0;"">Is there a person in this image?</p>
                    </div>
                </div>","0","main_experiment_trial","ten","exploring_nature_semantic","semantic_sequence","chronological","","","","","","",""
"","","","","","html-keyboard-response","100","218672","0.0-100.0","0F6A47F66891434184A840EEC77155AE","019cfa65-aef7-74f3-bd61-35362901d2b7","019cfa3a-388e-72ab-ad58-bdeb258f96cd","","null","<div style=""background-color: white; width: 100vw; height: 100vh;""></div>","null","","","","","","","","","","","",""
"","","","","","html-keyboard-response","101","219674","0.0-101.0","0F6A47F66891434184A840EEC77155AE","019cfa65-aef7-74f3-bd61-35362901d2b7","019cfa3a-388e-72ab-ad58-bdeb258f96cd","","null","
                <div class=""stimulus-container"">
                    <img src=""images/semantic_sequence/kitchen_operations_semantic/kitchen_operations_semantic_1.png"" class=""exp-image"">
                    <div class=""question-area""></div> 
                </div>","null","","","","","","","","","","","",""
"","","","","","html-button-response","102","220506","0.0-102.0","0F6A47F66891434184A840EEC77155AE","019cfa65-aef7-74f3-bd61-35362901d2b7","019cfa3a-388e-72ab-ad58-bdeb258f96cd","","831","
                <div class=""stimulus-container"">
                    <img src=""images/semantic_sequence/kitchen_operations_semantic/kitchen_operations_semantic_1.png"" class=""exp-image"">
                    <div class=""question-area"">
                        <p style=""font-size: 20px; font-weight: bold; margin: 0;"">Is there a person in this image?</p>
                    </div>
                </div>","0","main_experiment_trial","1","kitchen_operations_semantic","semantic_sequence","chronological","","","","","","",""
"","","","","","html-keyboard-response","103","221509","0.0-103.0","0F6A47F66891434184A840EEC77155AE","019cfa65-aef7-74f3-bd61-35362901d2b7","019cfa3a-388e-72ab-ad58-bdeb258f96cd","","null","
                <div class=""stimulus-container"">
                    <img src=""images/semantic_sequence/kitchen_operations_semantic/kitchen_operations_semantic_2.png"" class=""exp-image"">
                    <div class=""question-area""></div> 
                </div>","null","","","","","","","","","","","",""
"","","","","","html-button-response","104","222130","0.0-104.0","0F6A47F66891434184A840EEC77155AE","019cfa65-aef7-74f3-bd61-35362901d2b7","019cfa3a-388e-72ab-ad58-bdeb258f96cd","","620","
                <div class=""stimulus-container"">
                    <img src=""images/semantic_sequence/kitchen_operations_semantic/kitchen_operations_semantic_2.png"" class=""exp-image"">
                    <div class=""question-area"">
                        <p style=""font-size: 20px; font-weight: bold; margin: 0;"">Is there a person in this image?</p>
                    </div>
                </div>","0","main_experiment_trial","2","kitchen_operations_semantic","semantic_sequence","chronological","","","","","","",""
"","","","","","html-keyboard-response","105","223133","0.0-105.0","0F6A47F66891434184A840EEC77155AE","019cfa65-aef7-74f3-bd61-35362901d2b7","019cfa3a-388e-72ab-ad58-bdeb258f96cd","","null","
                <div class=""stimulus-container"">
                    <img src=""images/semantic_sequence/kitchen_operations_semantic/kitchen_operations_semantic_3.png"" class=""exp-image"">
                    <div class=""question-area""></div> 
                </div>","null","","","","","","","","","","","",""
"","","","","","html-button-response","106","223628","0.0-106.0","0F6A47F66891434184A840EEC77155AE","019cfa65-aef7-74f3-bd61-35362901d2b7","019cfa3a-388e-72ab-ad58-bdeb258f96cd","","493","
                <div class=""stimulus-container"">
                    <img src=""images/semantic_sequence/kitchen_operations_semantic/kitchen_operations_semantic_3.png"" class=""exp-image"">
                    <div class=""question-area"">
                        <p style=""font-size: 20px; font-weight: bold; margin: 0;"">Is there a person in this image?</p>
                    </div>
                </div>","0","main_experiment_trial","3","kitchen_operations_semantic","semantic_sequence","chronological","","","","","","",""
"","","","","","html-keyboard-response","107","224630","0.0-107.0","0F6A47F66891434184A840EEC77155AE","019cfa65-aef7-74f3-bd61-35362901d2b7","019cfa3a-388e-72ab-ad58-bdeb258f96cd","","null","
                <div class=""stimulus-container"">
                    <img src=""images/semantic_sequence/kitchen_operations_semantic/kitchen_operations_semantic_4.png"" class=""exp-image"">
                    <div class=""question-area""></div> 
                </div>","null","","","","","","","","","","","",""
"","","","","","html-button-response","108","225181","0.0-108.0","0F6A47F66891434184A840EEC77155AE","019cfa65-aef7-74f3-bd61-35362901d2b7","019cfa3a-388e-72ab-ad58-bdeb258f96cd","","547","
                <div class=""stimulus-container"">
                    <img src=""images/semantic_sequence/kitchen_operations_semantic/kitchen_operations_semantic_4.png"" class=""exp-image"">
                    <div class=""question-area"">
                        <p style=""font-size: 20px; font-weight: bold; margin: 0;"">Is there a person in this image?</p>
                    </div>
                </div>","0","main_experiment_trial","4","kitchen_operations_semantic","semantic_sequence","chronological","","","","","","",""
"","","","","","html-keyboard-response","109","226184","0.0-109.0","0F6A47F66891434184A840EEC77155AE","019cfa65-aef7-74f3-bd61-35362901d2b7","019cfa3a-388e-72ab-ad58-bdeb258f96cd","","null","
                <div class=""stimulus-container"">
                    <img src=""images/semantic_sequence/kitchen_operations_semantic/kitchen_operations_semantic_5.png"" class=""exp-image"">
                    <div class=""question-area""></div> 
                </div>","null","","","","","","","","","","","",""
"","","","","","html-button-response","110","228016","0.0-110.0","0F6A47F66891434184A840EEC77155AE","019cfa65-aef7-74f3-bd61-35362901d2b7","019cfa3a-388e-72ab-ad58-bdeb258f96cd","","1829","
                <div class=""stimulus-container"">
                    <img src=""images/semantic_sequence/kitchen_operations_semantic/kitchen_operations_semantic_5.png"" class=""exp-image"">
                    <div class=""question-area"">
                        <p style=""font-size: 20px; font-weight: bold; margin: 0;"">Is there a person in this image?</p>
                    </div>
                </div>","0","main_experiment_trial","5","kitchen_operations_semantic","semantic_sequence","chronological","","","","","","",""
"","","","","","html-keyboard-response","111","229019","0.0-111.0","0F6A47F66891434184A840EEC77155AE","019cfa65-aef7-74f3-bd61-35362901d2b7","019cfa3a-388e-72ab-ad58-bdeb258f96cd","","null","
                <div class=""stimulus-container"">
                    <img src=""images/semantic_sequence/kitchen_operations_semantic/kitchen_operations_semantic_6.png"" class=""exp-image"">
                    <div class=""question-area""></div> 
                </div>","null","","","","","","","","","","","",""
"","","","","","html-button-response","112","229539","0.0-112.0","0F6A47F66891434184A840EEC77155AE","019cfa65-aef7-74f3-bd61-35362901d2b7","019cfa3a-388e-72ab-ad58-bdeb258f96cd","","517","
                <div class=""stimulus-container"">
                    <img src=""images/semantic_sequence/kitchen_operations_semantic/kitchen_operations_semantic_6.png"" class=""exp-image"">
                    <div class=""question-area"">
                        <p style=""font-size: 20px; font-weight: bold; margin: 0;"">Is there a person in this image?</p>
                    </div>
                </div>","0","main_experiment_trial","6","kitchen_operations_semantic","semantic_sequence","chronological","","","","","","",""
"","","","","","html-keyboard-response","113","230540","0.0-113.0","0F6A47F66891434184A840EEC77155AE","019cfa65-aef7-74f3-bd61-35362901d2b7","019cfa3a-388e-72ab-ad58-bdeb258f96cd","","null","
                <div class=""stimulus-container"">
                    <img src=""images/semantic_sequence/kitchen_operations_semantic/kitchen_operations_semantic_7.png"" class=""exp-image"">
                    <div class=""question-area""></div> 
                </div>","null","","","","","","","","","","","",""
"","","","","","html-button-response","114","231069","0.0-114.0","0F6A47F66891434184A840EEC77155AE","019cfa65-aef7-74f3-bd61-35362901d2b7","019cfa3a-388e-72ab-ad58-bdeb258f96cd","","527","
                <div class=""stimulus-container"">
                    <img src=""images/semantic_sequence/kitchen_operations_semantic/kitchen_operations_semantic_7.png"" class=""exp-image"">
                    <div class=""question-area"">
                        <p style=""font-size: 20px; font-weight: bold; margin: 0;"">Is there a person in this image?</p>
                    </div>
                </div>","0","main_experiment_trial","7","kitchen_operations_semantic","semantic_sequence","chronological","","","","","","",""
"","","","","","html-keyboard-response","115","232071","0.0-115.0","0F6A47F66891434184A840EEC77155AE","019cfa65-aef7-74f3-bd61-35362901d2b7","019cfa3a-388e-72ab-ad58-bdeb258f96cd","","null","
                <div class=""stimulus-container"">
                    <img src=""images/semantic_sequence/kitchen_operations_semantic/kitchen_operations_semantic_8.png"" class=""exp-image"">
                    <div class=""question-area""></div> 
                </div>","null","","","","","","","","","","","",""
"","","","","","html-button-response","116","232596","0.0-116.0","0F6A47F66891434184A840EEC77155AE","019cfa65-aef7-74f3-bd61-35362901d2b7","019cfa3a-388e-72ab-ad58-bdeb258f96cd","","523","
                <div class=""stimulus-container"">
                    <img src=""images/semantic_sequence/kitchen_operations_semantic/kitchen_operations_semantic_8.png"" class=""exp-image"">
                    <div class=""question-area"">
                        <p style=""font-size: 20px; font-weight: bold; margin: 0;"">Is there a person in this image?</p>
                    </div>
                </div>","0","main_experiment_trial","8","kitchen_operations_semantic","semantic_sequence","chronological","","","","","","",""
"","","","","","html-keyboard-response","117","233598","0.0-117.0","0F6A47F66891434184A840EEC77155AE","019cfa65-aef7-74f3-bd61-35362901d2b7","019cfa3a-388e-72ab-ad58-bdeb258f96cd","","null","
                <div class=""stimulus-container"">
                    <img src=""images/semantic_sequence/kitchen_operations_semantic/kitchen_operations_semantic_9.png"" class=""exp-image"">
                    <div class=""question-area""></div> 
                </div>","null","","","","","","","","","","","",""
"","","","","","html-button-response","118","234216","0.0-118.0","0F6A47F66891434184A840EEC77155AE","019cfa65-aef7-74f3-bd61-35362901d2b7","019cfa3a-388e-72ab-ad58-bdeb258f96cd","","616","
                <div class=""stimulus-container"">
                    <img src=""images/semantic_sequence/kitchen_operations_semantic/kitchen_operations_semantic_9.png"" class=""exp-image"">
                    <div class=""question-area"">
                        <p style=""font-size: 20px; font-weight: bold; margin: 0;"">Is there a person in this image?</p>
                    </div>
                </div>","0","main_experiment_trial","9","kitchen_operations_semantic","semantic_sequence","chronological","","","","","","",""
"","","","","","html-keyboard-response","119","235218","0.0-119.0","0F6A47F66891434184A840EEC77155AE","019cfa65-aef7-74f3-bd61-35362901d2b7","019cfa3a-388e-72ab-ad58-bdeb258f96cd","","null","
                <div class=""stimulus-container"">
                    <img src=""images/semantic_sequence/kitchen_operations_semantic/kitchen_operations_semantic_ten.png"" class=""exp-image"">
                    <div class=""question-area""></div> 
                </div>","null","","","","","","","","","","","",""
"","","","","","html-button-response","120","235835","0.0-120.0","0F6A47F66891434184A840EEC77155AE","019cfa65-aef7-74f3-bd61-35362901d2b7","019cfa3a-388e-72ab-ad58-bdeb258f96cd","","615","
                <div class=""stimulus-container"">
                    <img src=""images/semantic_sequence/kitchen_operations_semantic/kitchen_operations_semantic_ten.png"" class=""exp-image"">
                    <div class=""question-area"">
                        <p style=""font-size: 20px; font-weight: bold; margin: 0;"">Is there a person in this image?</p>
                    </div>
                </div>","0","main_experiment_trial","ten","kitchen_operations_semantic","semantic_sequence","chronological","","","","","","",""
"","","","","","html-keyboard-response","121","240837","0.0-121.0","0F6A47F66891434184A840EEC77155AE","019cfa65-aef7-74f3-bd61-35362901d2b7","019cfa3a-388e-72ab-ad58-bdeb258f96cd","","null","<div style=""background-color: white; width: 100vw; height: 100vh;""></div>","null","","","","","","","","","","","",""
"","","","","","html-keyboard-response","122","241839","0.0-122.0","0F6A47F66891434184A840EEC77155AE","019cfa65-aef7-74f3-bd61-35362901d2b7","019cfa3a-388e-72ab-ad58-bdeb258f96cd","","null","
                <div class=""stimulus-container"">
                    <img src=""images/semantic_sequence/market_semantic/market_semantic_1.png"" class=""exp-image"">
                    <div class=""question-area""></div> 
                </div>","null","","","","","","","","","","","",""
"","","","","","html-button-response","123","242583","0.0-123.0","0F6A47F66891434184A840EEC77155AE","019cfa65-aef7-74f3-bd61-35362901d2b7","019cfa3a-388e-72ab-ad58-bdeb258f96cd","","742","
                <div class=""stimulus-container"">
                    <img src=""images/semantic_sequence/market_semantic/market_semantic_1.png"" class=""exp-image"">
                    <div class=""question-area"">
                        <p style=""font-size: 20px; font-weight: bold; margin: 0;"">Is there a person in this image?</p>
                    </div>
                </div>","1","main_experiment_trial","1","market_semantic","semantic_sequence","chronological","","","","","","",""
"","","","","","html-keyboard-response","124","243586","0.0-124.0","0F6A47F66891434184A840EEC77155AE","019cfa65-aef7-74f3-bd61-35362901d2b7","019cfa3a-388e-72ab-ad58-bdeb258f96cd","","null","
                <div class=""stimulus-container"">
                    <img src=""images/semantic_sequence/market_semantic/market_semantic_2.png"" class=""exp-image"">
                    <div class=""question-area""></div> 
                </div>","null","","","","","","","","","","","",""
"","","","","","html-button-response","125","244229","0.0-125.0","0F6A47F66891434184A840EEC77155AE","019cfa65-aef7-74f3-bd61-35362901d2b7","019cfa3a-388e-72ab-ad58-bdeb258f96cd","","642","
                <div class=""stimulus-container"">
                    <img src=""images/semantic_sequence/market_semantic/market_semantic_2.png"" class=""exp-image"">
                    <div class=""question-area"">
                        <p style=""font-size: 20px; font-weight: bold; margin: 0;"">Is there a person in this image?</p>
                    </div>
                </div>","1","main_experiment_trial","2","market_semantic","semantic_sequence","chronological","","","","","","",""
"","","","","","html-keyboard-response","126","245231","0.0-126.0","0F6A47F66891434184A840EEC77155AE","019cfa65-aef7-74f3-bd61-35362901d2b7","019cfa3a-388e-72ab-ad58-bdeb258f96cd","","null","
                <div class=""stimulus-container"">
                    <img src=""images/semantic_sequence/market_semantic/market_semantic_3.png"" class=""exp-image"">
                    <div class=""question-area""></div> 
                </div>","null","","","","","","","","","","","",""
"","","","","","html-button-response","127","248233","0.0-127.0","0F6A47F66891434184A840EEC77155AE","019cfa65-aef7-74f3-bd61-35362901d2b7","019cfa3a-388e-72ab-ad58-bdeb258f96cd","","null","
                <div class=""stimulus-container"">
                    <img src=""images/semantic_sequence/market_semantic/market_semantic_3.png"" class=""exp-image"">
                    <div class=""question-area"">
                        <p style=""font-size: 20px; font-weight: bold; margin: 0;"">Is there a person in this image?</p>
                    </div>
                </div>","null","main_experiment_trial","3","market_semantic","semantic_sequence","chronological","","","","","","",""
"","","","","","html-keyboard-response","128","249234","0.0-128.0","0F6A47F66891434184A840EEC77155AE","019cfa65-aef7-74f3-bd61-35362901d2b7","019cfa3a-388e-72ab-ad58-bdeb258f96cd","","null","
                <div class=""stimulus-container"">
                    <img src=""images/semantic_sequence/market_semantic/market_semantic_4.png"" class=""exp-image"">
                    <div class=""question-area""></div> 
                </div>","null","","","","","","","","","","","",""
"","","","","","html-button-response","129","250232","0.0-129.0","0F6A47F66891434184A840EEC77155AE","019cfa65-aef7-74f3-bd61-35362901d2b7","019cfa3a-388e-72ab-ad58-bdeb258f96cd","","996","
                <div class=""stimulus-container"">
                    <img src=""images/semantic_sequence/market_semantic/market_semantic_4.png"" class=""exp-image"">
                    <div class=""question-area"">
                        <p style=""font-size: 20px; font-weight: bold; margin: 0;"">Is there a person in this image?</p>
                    </div>
                </div>","0","main_experiment_trial","4","market_semantic","semantic_sequence","chronological","","","","","","",""
"","","","","","html-keyboard-response","130","251234","0.0-130.0","0F6A47F66891434184A840EEC77155AE","019cfa65-aef7-74f3-bd61-35362901d2b7","019cfa3a-388e-72ab-ad58-bdeb258f96cd","","null","
                <div class=""stimulus-container"">
                    <img src=""images/semantic_sequence/market_semantic/market_semantic_5.png"" class=""exp-image"">
                    <div class=""question-area""></div> 
                </div>","null","","","","","","","","","","","",""
"","","","","","html-button-response","131","251775","0.0-131.0","0F6A47F66891434184A840EEC77155AE","019cfa65-aef7-74f3-bd61-35362901d2b7","019cfa3a-388e-72ab-ad58-bdeb258f96cd","","540","
                <div class=""stimulus-container"">
                    <img src=""images/semantic_sequence/market_semantic/market_semantic_5.png"" class=""exp-image"">
                    <div class=""question-area"">
                        <p style=""font-size: 20px; font-weight: bold; margin: 0;"">Is there a person in this image?</p>
                    </div>
                </div>","1","main_experiment_trial","5","market_semantic","semantic_sequence","chronological","","","","","","",""
"","","","","","html-keyboard-response","132","252777","0.0-132.0","0F6A47F66891434184A840EEC77155AE","019cfa65-aef7-74f3-bd61-35362901d2b7","019cfa3a-388e-72ab-ad58-bdeb258f96cd","","null","
                <div class=""stimulus-container"">
                    <img src=""images/semantic_sequence/market_semantic/market_semantic_6.png"" class=""exp-image"">
                    <div class=""question-area""></div> 
                </div>","null","","","","","","","","","","","",""
"","","","","","html-button-response","133","253421","0.0-133.0","0F6A47F66891434184A840EEC77155AE","019cfa65-aef7-74f3-bd61-35362901d2b7","019cfa3a-388e-72ab-ad58-bdeb258f96cd","","642","
                <div class=""stimulus-container"">
                    <img src=""images/semantic_sequence/market_semantic/market_semantic_6.png"" class=""exp-image"">
                    <div class=""question-area"">
                        <p style=""font-size: 20px; font-weight: bold; margin: 0;"">Is there a person in this image?</p>
                    </div>
                </div>","1","main_experiment_trial","6","market_semantic","semantic_sequence","chronological","","","","","","",""
"","","","","","html-keyboard-response","134","254424","0.0-134.0","0F6A47F66891434184A840EEC77155AE","019cfa65-aef7-74f3-bd61-35362901d2b7","019cfa3a-388e-72ab-ad58-bdeb258f96cd","","null","
                <div class=""stimulus-container"">
                    <img src=""images/semantic_sequence/market_semantic/market_semantic_7.png"" class=""exp-image"">
                    <div class=""question-area""></div> 
                </div>","null","","","","","","","","","","","",""
"","","","","","html-button-response","135","254896","0.0-135.0","0F6A47F66891434184A840EEC77155AE","019cfa65-aef7-74f3-bd61-35362901d2b7","019cfa3a-388e-72ab-ad58-bdeb258f96cd","","470","
                <div class=""stimulus-container"">
                    <img src=""images/semantic_sequence/market_semantic/market_semantic_7.png"" class=""exp-image"">
                    <div class=""question-area"">
                        <p style=""font-size: 20px; font-weight: bold; margin: 0;"">Is there a person in this image?</p>
                    </div>
                </div>","0","main_experiment_trial","7","market_semantic","semantic_sequence","chronological","","","","","","",""
"","","","","","html-keyboard-response","136","255898","0.0-136.0","0F6A47F66891434184A840EEC77155AE","019cfa65-aef7-74f3-bd61-35362901d2b7","019cfa3a-388e-72ab-ad58-bdeb258f96cd","","null","
                <div class=""stimulus-container"">
                    <img src=""images/semantic_sequence/market_semantic/market_semantic_8.png"" class=""exp-image"">
                    <div class=""question-area""></div> 
                </div>","null","","","","","","","","","","","",""
"","","","","","html-button-response","137","256370","0.0-137.0","0F6A47F66891434184A840EEC77155AE","019cfa65-aef7-74f3-bd61-35362901d2b7","019cfa3a-388e-72ab-ad58-bdeb258f96cd","","470","
                <div class=""stimulus-container"">
                    <img src=""images/semantic_sequence/market_semantic/market_semantic_8.png"" class=""exp-image"">
                    <div class=""question-area"">
                        <p style=""font-size: 20px; font-weight: bold; margin: 0;"">Is there a person in this image?</p>
                    </div>
                </div>","1","main_experiment_trial","8","market_semantic","semantic_sequence","chronological","","","","","","",""
"","","","","","html-keyboard-response","138","257372","0.0-138.0","0F6A47F66891434184A840EEC77155AE","019cfa65-aef7-74f3-bd61-35362901d2b7","019cfa3a-388e-72ab-ad58-bdeb258f96cd","","null","
                <div class=""stimulus-container"">
                    <img src=""images/semantic_sequence/market_semantic/market_semantic_9.png"" class=""exp-image"">
                    <div class=""question-area""></div> 
                </div>","null","","","","","","","","","","","",""
"","","","","","html-button-response","139","257450","0.0-139.0","0F6A47F66891434184A840EEC77155AE","019cfa65-aef7-74f3-bd61-35362901d2b7","019cfa3a-388e-72ab-ad58-bdeb258f96cd","","77","
                <div class=""stimulus-container"">
                    <img src=""images/semantic_sequence/market_semantic/market_semantic_9.png"" class=""exp-image"">
                    <div class=""question-area"">
                        <p style=""font-size: 20px; font-weight: bold; margin: 0;"">Is there a person in this image?</p>
                    </div>
                </div>","1","main_experiment_trial","9","market_semantic","semantic_sequence","chronological","","","","","","",""
"","","","","","html-keyboard-response","140","258452","0.0-140.0","0F6A47F66891434184A840EEC77155AE","019cfa65-aef7-74f3-bd61-35362901d2b7","019cfa3a-388e-72ab-ad58-bdeb258f96cd","","null","
                <div class=""stimulus-container"">
                    <img src=""images/semantic_sequence/market_semantic/market_semantic_ten.png"" class=""exp-image"">
                    <div class=""question-area""></div> 
                </div>","null","","","","","","","","","","","",""
"","","","","","html-button-response","141","258703","0.0-141.0","0F6A47F66891434184A840EEC77155AE","019cfa65-aef7-74f3-bd61-35362901d2b7","019cfa3a-388e-72ab-ad58-bdeb258f96cd","","250","
                <div class=""stimulus-container"">
                    <img src=""images/semantic_sequence/market_semantic/market_semantic_ten.png"" class=""exp-image"">
                    <div class=""question-area"">
                        <p style=""font-size: 20px; font-weight: bold; margin: 0;"">Is there a person in this image?</p>
                    </div>
                </div>","1","main_experiment_trial","ten","market_semantic","semantic_sequence","chronological","","","","","","",""
"","","","","","html-keyboard-response","142","263704","0.0-142.0","0F6A47F66891434184A840EEC77155AE","019cfa65-aef7-74f3-bd61-35362901d2b7","019cfa3a-388e-72ab-ad58-bdeb258f96cd","","null","<div style=""background-color: white; width: 100vw; height: 100vh;""></div>","null","","","","","","","","","","","",""
"","","","","","html-keyboard-response","143","264706","0.0-143.0","0F6A47F66891434184A840EEC77155AE","019cfa65-aef7-74f3-bd61-35362901d2b7","019cfa3a-388e-72ab-ad58-bdeb258f96cd","","null","
                <div class=""stimulus-container"">
                    <img src=""images/semantic_sequence/housework_semantic/housework_semantic_1.png"" class=""exp-image"">
                    <div class=""question-area""></div> 
                </div>","null","","","","","","","","","","","",""
"","","","","","html-button-response","144","265809","0.0-144.0","0F6A47F66891434184A840EEC77155AE","019cfa65-aef7-74f3-bd61-35362901d2b7","019cfa3a-388e-72ab-ad58-bdeb258f96cd","","1101","
                <div class=""stimulus-container"">
                    <img src=""images/semantic_sequence/housework_semantic/housework_semantic_1.png"" class=""exp-image"">
                    <div class=""question-area"">
                        <p style=""font-size: 20px; font-weight: bold; margin: 0;"">Is there a person in this image?</p>
                    </div>
                </div>","0","main_experiment_trial","1","housework_semantic","semantic_sequence","chronological","","","","","","",""
"","","","","","html-keyboard-response","145","266811","0.0-145.0","0F6A47F66891434184A840EEC77155AE","019cfa65-aef7-74f3-bd61-35362901d2b7","019cfa3a-388e-72ab-ad58-bdeb258f96cd","","null","
                <div class=""stimulus-container"">
                    <img src=""images/semantic_sequence/housework_semantic/housework_semantic_2.png"" class=""exp-image"">
                    <div class=""question-area""></div> 
                </div>","null","","","","","","","","","","","",""
"","","","","","html-button-response","146","267275","0.0-146.0","0F6A47F66891434184A840EEC77155AE","019cfa65-aef7-74f3-bd61-35362901d2b7","019cfa3a-388e-72ab-ad58-bdeb258f96cd","","462","
                <div class=""stimulus-container"">
                    <img src=""images/semantic_sequence/housework_semantic/housework_semantic_2.png"" class=""exp-image"">
                    <div class=""question-area"">
                        <p style=""font-size: 20px; font-weight: bold; margin: 0;"">Is there a person in this image?</p>
                    </div>
                </div>","0","main_experiment_trial","2","housework_semantic","semantic_sequence","chronological","","","","","","",""
"","","","","","html-keyboard-response","147","268278","0.0-147.0","0F6A47F66891434184A840EEC77155AE","019cfa65-aef7-74f3-bd61-35362901d2b7","019cfa3a-388e-72ab-ad58-bdeb258f96cd","","null","
                <div class=""stimulus-container"">
                    <img src=""images/semantic_sequence/housework_semantic/housework_semantic_3.png"" class=""exp-image"">
                    <div class=""question-area""></div> 
                </div>","null","","","","","","","","","","","",""
"","","","","","html-button-response","148","268661","0.0-148.0","0F6A47F66891434184A840EEC77155AE","019cfa65-aef7-74f3-bd61-35362901d2b7","019cfa3a-388e-72ab-ad58-bdeb258f96cd","","382","
                <div class=""stimulus-container"">
                    <img src=""images/semantic_sequence/housework_semantic/housework_semantic_3.png"" class=""exp-image"">
                    <div class=""question-area"">
                        <p style=""font-size: 20px; font-weight: bold; margin: 0;"">Is there a person in this image?</p>
                    </div>
                </div>","0","main_experiment_trial","3","housework_semantic","semantic_sequence","chronological","","","","","","",""
"","","","","","html-keyboard-response","149","269663","0.0-149.0","0F6A47F66891434184A840EEC77155AE","019cfa65-aef7-74f3-bd61-35362901d2b7","019cfa3a-388e-72ab-ad58-bdeb258f96cd","","null","
                <div class=""stimulus-container"">
                    <img src=""images/semantic_sequence/housework_semantic/housework_semantic_4.png"" class=""exp-image"">
                    <div class=""question-area""></div> 
                </div>","null","","","","","","","","","","","",""
"","","","","","html-button-response","150","270001","0.0-150.0","0F6A47F66891434184A840EEC77155AE","019cfa65-aef7-74f3-bd61-35362901d2b7","019cfa3a-388e-72ab-ad58-bdeb258f96cd","","336","
                <div class=""stimulus-container"">
                    <img src=""images/semantic_sequence/housework_semantic/housework_semantic_4.png"" class=""exp-image"">
                    <div class=""question-area"">
                        <p style=""font-size: 20px; font-weight: bold; margin: 0;"">Is there a person in this image?</p>
                    </div>
                </div>","0","main_experiment_trial","4","housework_semantic","semantic_sequence","chronological","","","","","","",""
"","","","","","html-keyboard-response","151","271004","0.0-151.0","0F6A47F66891434184A840EEC77155AE","019cfa65-aef7-74f3-bd61-35362901d2b7","019cfa3a-388e-72ab-ad58-bdeb258f96cd","","null","
                <div class=""stimulus-container"">
                    <img src=""images/semantic_sequence/housework_semantic/housework_semantic_5.png"" class=""exp-image"">
                    <div class=""question-area""></div> 
                </div>","null","","","","","","","","","","","",""
"","","","","","html-button-response","152","271376","0.0-152.0","0F6A47F66891434184A840EEC77155AE","019cfa65-aef7-74f3-bd61-35362901d2b7","019cfa3a-388e-72ab-ad58-bdeb258f96cd","","370","
                <div class=""stimulus-container"">
                    <img src=""images/semantic_sequence/housework_semantic/housework_semantic_5.png"" class=""exp-image"">
                    <div class=""question-area"">
                        <p style=""font-size: 20px; font-weight: bold; margin: 0;"">Is there a person in this image?</p>
                    </div>
                </div>","0","main_experiment_trial","5","housework_semantic","semantic_sequence","chronological","","","","","","",""
"","","","","","html-keyboard-response","153","272379","0.0-153.0","0F6A47F66891434184A840EEC77155AE","019cfa65-aef7-74f3-bd61-35362901d2b7","019cfa3a-388e-72ab-ad58-bdeb258f96cd","","null","
                <div class=""stimulus-container"">
                    <img src=""images/semantic_sequence/housework_semantic/housework_semantic_6.png"" class=""exp-image"">
                    <div class=""question-area""></div> 
                </div>","null","","","","","","","","","","","",""
"","","","","","html-button-response","154","272772","0.0-154.0","0F6A47F66891434184A840EEC77155AE","019cfa65-aef7-74f3-bd61-35362901d2b7","019cfa3a-388e-72ab-ad58-bdeb258f96cd","","390","
                <div class=""stimulus-container"">
                    <img src=""images/semantic_sequence/housework_semantic/housework_semantic_6.png"" class=""exp-image"">
                    <div class=""question-area"">
                        <p style=""font-size: 20px; font-weight: bold; margin: 0;"">Is there a person in this image?</p>
                    </div>
                </div>","0","main_experiment_trial","6","housework_semantic","semantic_sequence","chronological","","","","","","",""
"","","","","","html-keyboard-response","155","273773","0.0-155.0","0F6A47F66891434184A840EEC77155AE","019cfa65-aef7-74f3-bd61-35362901d2b7","019cfa3a-388e-72ab-ad58-bdeb258f96cd","","null","
                <div class=""stimulus-container"">
                    <img src=""images/semantic_sequence/housework_semantic/housework_semantic_7.png"" class=""exp-image"">
                    <div class=""question-area""></div> 
                </div>","null","","","","","","","","","","","",""
"","","","","","html-button-response","156","274186","0.0-156.0","0F6A47F66891434184A840EEC77155AE","019cfa65-aef7-74f3-bd61-35362901d2b7","019cfa3a-388e-72ab-ad58-bdeb258f96cd","","410","
                <div class=""stimulus-container"">
                    <img src=""images/semantic_sequence/housework_semantic/housework_semantic_7.png"" class=""exp-image"">
                    <div class=""question-area"">
                        <p style=""font-size: 20px; font-weight: bold; margin: 0;"">Is there a person in this image?</p>
                    </div>
                </div>","0","main_experiment_trial","7","housework_semantic","semantic_sequence","chronological","","","","","","",""
"","","","","","html-keyboard-response","157","275188","0.0-157.0","0F6A47F66891434184A840EEC77155AE","019cfa65-aef7-74f3-bd61-35362901d2b7","019cfa3a-388e-72ab-ad58-bdeb258f96cd","","null","
                <div class=""stimulus-container"">
                    <img src=""images/semantic_sequence/housework_semantic/housework_semantic_8.png"" class=""exp-image"">
                    <div class=""question-area""></div> 
                </div>","null","","","","","","","","","","","",""
"","","","","","html-button-response","158","275672","0.0-158.0","0F6A47F66891434184A840EEC77155AE","019cfa65-aef7-74f3-bd61-35362901d2b7","019cfa3a-388e-72ab-ad58-bdeb258f96cd","","483","
                <div class=""stimulus-container"">
                    <img src=""images/semantic_sequence/housework_semantic/housework_semantic_8.png"" class=""exp-image"">
                    <div class=""question-area"">
                        <p style=""font-size: 20px; font-weight: bold; margin: 0;"">Is there a person in this image?</p>
                    </div>
                </div>","0","main_experiment_trial","8","housework_semantic","semantic_sequence","chronological","","","","","","",""
"","","","","","html-keyboard-response","159","276674","0.0-159.0","0F6A47F66891434184A840EEC77155AE","019cfa65-aef7-74f3-bd61-35362901d2b7","019cfa3a-388e-72ab-ad58-bdeb258f96cd","","null","
                <div class=""stimulus-container"">
                    <img src=""images/semantic_sequence/housework_semantic/housework_semantic_9.png"" class=""exp-image"">
                    <div class=""question-area""></div> 
                </div>","null","","","","","","","","","","","",""
"","","","","","html-button-response","160","277149","0.0-160.0","0F6A47F66891434184A840EEC77155AE","019cfa65-aef7-74f3-bd61-35362901d2b7","019cfa3a-388e-72ab-ad58-bdeb258f96cd","","472","
                <div class=""stimulus-container"">
                    <img src=""images/semantic_sequence/housework_semantic/housework_semantic_9.png"" class=""exp-image"">
                    <div class=""question-area"">
                        <p style=""font-size: 20px; font-weight: bold; margin: 0;"">Is there a person in this image?</p>
                    </div>
                </div>","0","main_experiment_trial","9","housework_semantic","semantic_sequence","chronological","","","","","","",""
"","","","","","html-keyboard-response","161","278151","0.0-161.0","0F6A47F66891434184A840EEC77155AE","019cfa65-aef7-74f3-bd61-35362901d2b7","019cfa3a-388e-72ab-ad58-bdeb258f96cd","","null","
                <div class=""stimulus-container"">
                    <img src=""images/semantic_sequence/housework_semantic/housework_semantic_ten.png"" class=""exp-image"">
                    <div class=""question-area""></div> 
                </div>","null","","","","","","","","","","","",""
"","","","","","html-button-response","162","278638","0.0-162.0","0F6A47F66891434184A840EEC77155AE","019cfa65-aef7-74f3-bd61-35362901d2b7","019cfa3a-388e-72ab-ad58-bdeb258f96cd","","484","
                <div class=""stimulus-container"">
                    <img src=""images/semantic_sequence/housework_semantic/housework_semantic_ten.png"" class=""exp-image"">
                    <div class=""question-area"">
                        <p style=""font-size: 20px; font-weight: bold; margin: 0;"">Is there a person in this image?</p>
                    </div>
                </div>","0","main_experiment_trial","ten","housework_semantic","semantic_sequence","chronological","","","","","","",""
"","","","","","html-keyboard-response","163","283639","0.0-163.0","0F6A47F66891434184A840EEC77155AE","019cfa65-aef7-74f3-bd61-35362901d2b7","019cfa3a-388e-72ab-ad58-bdeb258f96cd","","null","<div style=""background-color: white; width: 100vw; height: 100vh;""></div>","null","","","","","","","","","","","",""
"","","","","","html-keyboard-response","164","284640","0.0-164.0","0F6A47F66891434184A840EEC77155AE","019cfa65-aef7-74f3-bd61-35362901d2b7","019cfa3a-388e-72ab-ad58-bdeb258f96cd","","null","
                <div class=""stimulus-container"">
                    <img src=""images/causal_sequence/saving_a_cat_causal/saving_a_cat_causal_1.png"" class=""exp-image"">
                    <div class=""question-area""></div> 
                </div>","null","","","","","","","","","","","",""
"","","","","","html-button-response","165","285203","0.0-165.0","0F6A47F66891434184A840EEC77155AE","019cfa65-aef7-74f3-bd61-35362901d2b7","019cfa3a-388e-72ab-ad58-bdeb258f96cd","","562","
                <div class=""stimulus-container"">
                    <img src=""images/causal_sequence/saving_a_cat_causal/saving_a_cat_causal_1.png"" class=""exp-image"">
                    <div class=""question-area"">
                        <p style=""font-size: 20px; font-weight: bold; margin: 0;"">Is there a person in this image?</p>
                    </div>
                </div>","0","main_experiment_trial","1","saving_a_cat_causal","causal_sequence","chronological","","","","","","",""
"","","","","","html-keyboard-response","166","286205","0.0-166.0","0F6A47F66891434184A840EEC77155AE","019cfa65-aef7-74f3-bd61-35362901d2b7","019cfa3a-388e-72ab-ad58-bdeb258f96cd","","null","
                <div class=""stimulus-container"">
                    <img src=""images/causal_sequence/saving_a_cat_causal/saving_a_cat_causal_2.png"" class=""exp-image"">
                    <div class=""question-area""></div> 
                </div>","null","","","","","","","","","","","",""
"","","","","","html-button-response","167","287150","0.0-167.0","0F6A47F66891434184A840EEC77155AE","019cfa65-aef7-74f3-bd61-35362901d2b7","019cfa3a-388e-72ab-ad58-bdeb258f96cd","","944","
                <div class=""stimulus-container"">
                    <img src=""images/causal_sequence/saving_a_cat_causal/saving_a_cat_causal_2.png"" class=""exp-image"">
                    <div class=""question-area"">
                        <p style=""font-size: 20px; font-weight: bold; margin: 0;"">Is there a person in this image?</p>
                    </div>
                </div>","1","main_experiment_trial","2","saving_a_cat_causal","causal_sequence","chronological","","","","","","",""
"","","","","","html-keyboard-response","168","288152","0.0-168.0","0F6A47F66891434184A840EEC77155AE","019cfa65-aef7-74f3-bd61-35362901d2b7","019cfa3a-388e-72ab-ad58-bdeb258f96cd","","null","
                <div class=""stimulus-container"">
                    <img src=""images/causal_sequence/saving_a_cat_causal/saving_a_cat_causal_3.png"" class=""exp-image"">
                    <div class=""question-area""></div> 
                </div>","null","","","","","","","","","","","",""
"","","","","","html-button-response","169","288682","0.0-169.0","0F6A47F66891434184A840EEC77155AE","019cfa65-aef7-74f3-bd61-35362901d2b7","019cfa3a-388e-72ab-ad58-bdeb258f96cd","","527","
                <div class=""stimulus-container"">
                    <img src=""images/causal_sequence/saving_a_cat_causal/saving_a_cat_causal_3.png"" class=""exp-image"">
                    <div class=""question-area"">
                        <p style=""font-size: 20px; font-weight: bold; margin: 0;"">Is there a person in this image?</p>
                    </div>
                </div>","1","main_experiment_trial","3","saving_a_cat_causal","causal_sequence","chronological","","","","","","",""
"","","","","","html-keyboard-response","170","289684","0.0-170.0","0F6A47F66891434184A840EEC77155AE","019cfa65-aef7-74f3-bd61-35362901d2b7","019cfa3a-388e-72ab-ad58-bdeb258f96cd","","null","
                <div class=""stimulus-container"">
                    <img src=""images/causal_sequence/saving_a_cat_causal/saving_a_cat_causal_4.png"" class=""exp-image"">
                    <div class=""question-area""></div> 
                </div>","null","","","","","","","","","","","",""
"","","","","","html-button-response","171","290894","0.0-171.0","0F6A47F66891434184A840EEC77155AE","019cfa65-aef7-74f3-bd61-35362901d2b7","019cfa3a-388e-72ab-ad58-bdeb258f96cd","","1207","
                <div class=""stimulus-container"">
                    <img src=""images/causal_sequence/saving_a_cat_causal/saving_a_cat_causal_4.png"" class=""exp-image"">
                    <div class=""question-area"">
                        <p style=""font-size: 20px; font-weight: bold; margin: 0;"">Is there a person in this image?</p>
                    </div>
                </div>","0","main_experiment_trial","4","saving_a_cat_causal","causal_sequence","chronological","","","","","","",""
"","","","","","html-keyboard-response","172","291897","0.0-172.0","0F6A47F66891434184A840EEC77155AE","019cfa65-aef7-74f3-bd61-35362901d2b7","019cfa3a-388e-72ab-ad58-bdeb258f96cd","","null","
                <div class=""stimulus-container"">
                    <img src=""images/causal_sequence/saving_a_cat_causal/saving_a_cat_causal_5.png"" class=""exp-image"">
                    <div class=""question-area""></div> 
                </div>","null","","","","","","","","","","","",""
"","","","","","html-button-response","173","292207","0.0-173.0","0F6A47F66891434184A840EEC77155AE","019cfa65-aef7-74f3-bd61-35362901d2b7","019cfa3a-388e-72ab-ad58-bdeb258f96cd","","309","
                <div class=""stimulus-container"">
                    <img src=""images/causal_sequence/saving_a_cat_causal/saving_a_cat_causal_5.png"" class=""exp-image"">
                    <div class=""question-area"">
                        <p style=""font-size: 20px; font-weight: bold; margin: 0;"">Is there a person in this image?</p>
                    </div>
                </div>","0","main_experiment_trial","5","saving_a_cat_causal","causal_sequence","chronological","","","","","","",""
"","","","","","html-keyboard-response","174","293209","0.0-174.0","0F6A47F66891434184A840EEC77155AE","019cfa65-aef7-74f3-bd61-35362901d2b7","019cfa3a-388e-72ab-ad58-bdeb258f96cd","","null","
                <div class=""stimulus-container"">
                    <img src=""images/causal_sequence/saving_a_cat_causal/saving_a_cat_causal_6.png"" class=""exp-image"">
                    <div class=""question-area""></div> 
                </div>","null","","","","","","","","","","","",""
"","","","","","html-button-response","175","293756","0.0-175.0","0F6A47F66891434184A840EEC77155AE","019cfa65-aef7-74f3-bd61-35362901d2b7","019cfa3a-388e-72ab-ad58-bdeb258f96cd","","546","
                <div class=""stimulus-container"">
                    <img src=""images/causal_sequence/saving_a_cat_causal/saving_a_cat_causal_6.png"" class=""exp-image"">
                    <div class=""question-area"">
                        <p style=""font-size: 20px; font-weight: bold; margin: 0;"">Is there a person in this image?</p>
                    </div>
                </div>","0","main_experiment_trial","6","saving_a_cat_causal","causal_sequence","chronological","","","","","","",""
"","","","","","html-keyboard-response","176","294759","0.0-176.0","0F6A47F66891434184A840EEC77155AE","019cfa65-aef7-74f3-bd61-35362901d2b7","019cfa3a-388e-72ab-ad58-bdeb258f96cd","","null","
                <div class=""stimulus-container"">
                    <img src=""images/causal_sequence/saving_a_cat_causal/saving_a_cat_causal_7.png"" class=""exp-image"">
                    <div class=""question-area""></div> 
                </div>","null","","","","","","","","","","","",""
"","","","","","html-button-response","177","295166","0.0-177.0","0F6A47F66891434184A840EEC77155AE","019cfa65-aef7-74f3-bd61-35362901d2b7","019cfa3a-388e-72ab-ad58-bdeb258f96cd","","405","
                <div class=""stimulus-container"">
                    <img src=""images/causal_sequence/saving_a_cat_causal/saving_a_cat_causal_7.png"" class=""exp-image"">
                    <div class=""question-area"">
                        <p style=""font-size: 20px; font-weight: bold; margin: 0;"">Is there a person in this image?</p>
                    </div>
