"success","timeout","failed_images","failed_audio","failed_video","trial_type","trial_index","time_elapsed","internal_node_id","view_history","rt","stimulus","response","task","folder","sequence_type","image_index","reward_type","valuable_image_index","correct_choice","target_X","dist_left","dist_right","chosen_image_index","chosen_dist","selected_after_X"
"true","false","[]","[]","[]","preload","0","7384","0.0-0.0","","","","","","","","","","","","","","","","",""
"","","","","","instructions","1","19871","0.0-1.0","[{""page_index"":0,""viewing_time"":12486}]","12487","","","","","","","","","","","","","","",""
"","","","","","instructions","2","53991","0.0-2.0","[{""page_index"":0,""viewing_time"":34119}]","34120","","","","","","","","","","","","","","",""
"true","","","","","fullscreen","3","334422","0.0-3.0","","279428","","","","","","","","","","","","","","",""
"","","","","","instructions","4","336296","0.0-4.0","[{""page_index"":0,""viewing_time"":1873}]","1874","","","","","","","","","","","","","","",""
"","","","","","instructions","5","337695","0.0-5.0","[{""page_index"":0,""viewing_time"":1398}]","1398","","","","","","","","","","","","","","",""
"","","","","","html-keyboard-response","6","340698","0.0-6.0","","null","<div class=""stimulus-container""><img src=""images/instructions/movie_1.png"" class=""exp-image""><div class=""question-area""></div></div>","null","","","","","","","","","","","","",""
"","","","","","html-button-response","7","343207","0.0-7.0","","2507","<div class=""stimulus-container""><img src=""images/instructions/movie_1.png"" class=""exp-image""><div class=""question-area""><p>Is there a person?</p></div></div>","1","","","","","","","","","","","","",""
"","","","","","html-keyboard-response","8","346209","0.0-8.0","","null","<div class=""stimulus-container""><img src=""images/instructions/movie_2.png"" class=""exp-image""><div class=""question-area""></div></div>","null","","","","","","","","","","","","",""
"","","","","","html-button-response","9","348610","0.0-9.0","","2399","<div class=""stimulus-container""><img src=""images/instructions/movie_2.png"" class=""exp-image""><div class=""question-area""><p>Is there a person?</p></div></div>","1","","","","","","","","","","","","",""
"","","","","","html-keyboard-response","10","351611","0.0-10.0","","null","<div class=""stimulus-container""><img src=""images/instructions/movie_3.png"" class=""exp-image""><div class=""question-area""></div></div>","null","","","","","","","","","","","","",""
"","","","","","html-button-response","11","354906","0.0-11.0","","3294","<div class=""stimulus-container""><img src=""images/instructions/movie_3.png"" class=""exp-image""><div class=""question-area""><p>Is there a person?</p></div></div>","0","","","","","","","","","","","","",""
"","","","","","instructions","12","357183","0.0-12.0","[{""page_index"":0,""viewing_time"":2276}]","2276","","","","","","","","","","","","","","",""
"","","","","","html-keyboard-response","13","359186","0.0-13.0","","null","<div style=""background-color: white; width: 100vw; height: 100vh;""></div>","null","","","","","","","","","","","","",""
"","","","","","html-keyboard-response","14","363188","0.0-14.0","","null","<div class=""stimulus-container""><img src=""images/causal_sequence/museum_causal/museum_causal_1.png"" class=""exp-image""></div>","null","","","","","","","","","","","","",""
"","","","","","html-button-response","15","376926","0.0-15.0","","13737","<div class=""stimulus-container""><img src=""images/causal_sequence/museum_causal/museum_causal_1.png"" class=""exp-image""><div class=""question-area""><p>Is there a person?</p></div></div>","0","observation","museum_causal","causal_sequence","1","","","","","","","","",""
"","","","","","html-keyboard-response","16","380928","0.0-16.0","","null","<div class=""stimulus-container""><img src=""images/causal_sequence/museum_causal/museum_causal_2.png"" class=""exp-image""></div>","null","","","","","","","","","","","","",""
"","","","","","html-button-response","17","388853","0.0-17.0","","7923","<div class=""stimulus-container""><img src=""images/causal_sequence/museum_causal/museum_causal_2.png"" class=""exp-image""><div class=""question-area""><p>Is there a person?</p></div></div>","1","observation","museum_causal","causal_sequence","2","","","","","","","","",""
"","","","","","html-keyboard-response","18","392855","0.0-18.0","","null","<div class=""stimulus-container""><img src=""images/causal_sequence/museum_causal/museum_causal_3.png"" class=""exp-image""></div>","null","","","","","","","","","","","","",""
"","","","","","html-button-response","19","428076","0.0-19.0","","35220","<div class=""stimulus-container""><img src=""images/causal_sequence/museum_causal/museum_causal_3.png"" class=""exp-image""><div class=""question-area""><p>Is there a person?</p></div></div>","1","observation","museum_causal","causal_sequence","3","","","","","","","","",""
"","","","","","html-keyboard-response","20","432078","0.0-20.0","","null","<div class=""stimulus-container""><img src=""images/causal_sequence/museum_causal/museum_causal_4.png"" class=""exp-image""></div>","null","","","","","","","","","","","","",""
"","","","","","html-button-response","21","459565","0.0-21.0","","27485","<div class=""stimulus-container""><img src=""images/causal_sequence/museum_causal/museum_causal_4.png"" class=""exp-image""><div class=""question-area""><p>Is there a person?</p></div></div>","1","observation","museum_causal","causal_sequence","4","","","","","","","","",""
"","","","","","html-keyboard-response","22","463566","0.0-22.0","","null","<div class=""stimulus-container""><img src=""images/causal_sequence/museum_causal/museum_causal_5.png"" class=""exp-image""></div>","null","","","","","","","","","","","","",""
"","","","","","html-button-response","23","468391","0.0-23.0","","4824","<div class=""stimulus-container""><img src=""images/causal_sequence/museum_causal/museum_causal_5.png"" class=""exp-image""><div class=""question-area""><p>Is there a person?</p></div></div>","0","observation","museum_causal","causal_sequence","5","","","","","","","","",""
"","","","","","html-keyboard-response","24","472394","0.0-24.0","","null","<div class=""stimulus-container""><img src=""images/causal_sequence/museum_causal/museum_causal_6.png"" class=""exp-image""></div>","null","","","","","","","","","","","","",""
"","","","","","html-button-response","25","531399","0.0-25.0","","59004","<div class=""stimulus-container""><img src=""images/causal_sequence/museum_causal/museum_causal_6.png"" class=""exp-image""><div class=""question-area""><p>Is there a person?</p></div></div>","0","observation","museum_causal","causal_sequence","6","","","","","","","","",""
"","","","","","html-keyboard-response","26","535401","0.0-26.0","","null","<div class=""stimulus-container""><img src=""images/causal_sequence/museum_causal/museum_causal_7.png"" class=""exp-image""></div>","null","","","","","","","","","","","","",""
"","","","","","html-button-response","27","653586","0.0-27.0","","118184","<div class=""stimulus-container""><img src=""images/causal_sequence/museum_causal/museum_causal_7.png"" class=""exp-image""><div class=""question-area""><p>Is there a person?</p></div></div>","1","observation","museum_causal","causal_sequence","7","","","","","","","","",""
"","","","","","html-keyboard-response","28","657588","0.0-28.0","","null","<div class=""stimulus-container""><img src=""images/causal_sequence/museum_causal/museum_causal_8.png"" class=""exp-image""></div>","null","","","","","","","","","","","","",""
"","","","","","html-button-response","29","685407","0.0-29.0","","27818","<div class=""stimulus-container""><img src=""images/causal_sequence/museum_causal/museum_causal_8.png"" class=""exp-image""><div class=""question-area""><p>Is there a person?</p></div></div>","0","observation","museum_causal","causal_sequence","8","","","","","","","","",""
"","","","","","html-keyboard-response","30","689410","0.0-30.0","","null","<div class=""stimulus-container""><img src=""images/causal_sequence/museum_causal/museum_causal_9.png"" class=""exp-image""></div>","null","","","","","","","","","","","","",""
"","","","","","html-button-response","31","714574","0.0-31.0","","25163","<div class=""stimulus-container""><img src=""images/causal_sequence/museum_causal/museum_causal_9.png"" class=""exp-image""><div class=""question-area""><p>Is there a person?</p></div></div>","1","observation","museum_causal","causal_sequence","9","","","","","","","","",""
"","","","","","html-keyboard-response","32","718576","0.0-32.0","","null","<div class=""stimulus-container""><img src=""images/causal_sequence/museum_causal/museum_causal_ten.png"" class=""exp-image""></div>","null","","","","","","","","","","","","",""
"","","","","","html-button-response","33","730515","0.0-33.0","","11938","<div class=""stimulus-container""><img src=""images/causal_sequence/museum_causal/museum_causal_ten.png"" class=""exp-image""><div class=""question-area""><p>Is there a person?</p></div></div>","0","observation","museum_causal","causal_sequence","ten","","","","","","","","",""
"","","","","","html-keyboard-response","34","732517","0.0-34.0","","null","<div style=""background-color: white; width: 100vw; height: 100vh;""></div>","null","","","","","","","","","","","","",""
"","","","","","html-keyboard-response","35","736519","0.0-35.0","","null","<div class=""stimulus-container""><img src=""images/causal_sequence/dog_causal/dog_causal_1.png"" class=""exp-image""></div>","null","","","","","","","","","","","","",""
"","","","","","html-button-response","36","739752","0.0-36.0","","3232","<div class=""stimulus-container""><img src=""images/causal_sequence/dog_causal/dog_causal_1.png"" class=""exp-image""><div class=""question-area""><p>Is there a person?</p></div></div>","0","observation","dog_causal","causal_sequence","1","","","","","","","","",""
"","","","","","html-keyboard-response","37","743753","0.0-37.0","","null","<div class=""stimulus-container""><img src=""images/causal_sequence/dog_causal/dog_causal_2.png"" class=""exp-image""></div>","null","","","","","","","","","","","","",""
"","","","","","html-button-response","38","748166","0.0-38.0","","4412","<div class=""stimulus-container""><img src=""images/causal_sequence/dog_causal/dog_causal_2.png"" class=""exp-image""><div class=""question-area""><p>Is there a person?</p></div></div>","0","observation","dog_causal","causal_sequence","2","","","","","","","","",""
"","","","","","html-keyboard-response","39","752168","0.0-39.0","","null","<div class=""stimulus-container""><img src=""images/causal_sequence/dog_causal/dog_causal_3.png"" class=""exp-image""></div>","null","","","","","","","","","","","","",""
"","","","","","html-button-response","40","753964","0.0-40.0","","1794","<div class=""stimulus-container""><img src=""images/causal_sequence/dog_causal/dog_causal_3.png"" class=""exp-image""><div class=""question-area""><p>Is there a person?</p></div></div>","0","observation","dog_causal","causal_sequence","3","","","","","","","","",""
"","","","","","html-keyboard-response","41","757966","0.0-41.0","","null","<div class=""stimulus-container""><img src=""images/causal_sequence/dog_causal/dog_causal_4.png"" class=""exp-image""></div>","null","","","","","","","","","","","","",""
"","","","","","html-button-response","42","760000","0.0-42.0","","2033","<div class=""stimulus-container""><img src=""images/causal_sequence/dog_causal/dog_causal_4.png"" class=""exp-image""><div class=""question-area""><p>Is there a person?</p></div></div>","0","observation","dog_causal","causal_sequence","4","","","","","","","","",""
"","","","","","html-keyboard-response","43","764001","0.0-43.0","","null","<div class=""stimulus-container""><img src=""images/causal_sequence/dog_causal/dog_causal_5.png"" class=""exp-image""></div>","null","","","","","","","","","","","","",""
"","","","","","html-button-response","44","767586","0.0-44.0","","3584","<div class=""stimulus-container""><img src=""images/causal_sequence/dog_causal/dog_causal_5.png"" class=""exp-image""><div class=""question-area""><p>Is there a person?</p></div></div>","0","observation","dog_causal","causal_sequence","5","","","","","","","","",""
"","","","","","html-keyboard-response","45","771589","0.0-45.0","","null","<div class=""stimulus-container""><img src=""images/causal_sequence/dog_causal/dog_causal_6.png"" class=""exp-image""></div>","null","","","","","","","","","","","","",""
"","","","","","html-button-response","46","783268","0.0-46.0","","11678","<div class=""stimulus-container""><img src=""images/causal_sequence/dog_causal/dog_causal_6.png"" class=""exp-image""><div class=""question-area""><p>Is there a person?</p></div></div>","0","observation","dog_causal","causal_sequence","6","","","","","","","","",""
"","","","","","html-keyboard-response","47","787270","0.0-47.0","","null","<div class=""stimulus-container""><img src=""images/causal_sequence/dog_causal/dog_causal_7.png"" class=""exp-image""></div>","null","","","","","","","","","","","","",""
"","","","","","html-button-response","48","789492","0.0-48.0","","2221","<div class=""stimulus-container""><img src=""images/causal_sequence/dog_causal/dog_causal_7.png"" class=""exp-image""><div class=""question-area""><p>Is there a person?</p></div></div>","0","observation","dog_causal","causal_sequence","7","","","","","","","","",""
"","","","","","html-keyboard-response","49","793495","0.0-49.0","","null","<div class=""stimulus-container""><img src=""images/causal_sequence/dog_causal/dog_causal_8.png"" class=""exp-image""></div>","null","","","","","","","","","","","","",""
"","","","","","html-button-response","50","801580","0.0-50.0","","8085","<div class=""stimulus-container""><img src=""images/causal_sequence/dog_causal/dog_causal_8.png"" class=""exp-image""><div class=""question-area""><p>Is there a person?</p></div></div>","0","observation","dog_causal","causal_sequence","8","","","","","","","","",""
"","","","","","html-keyboard-response","51","805582","0.0-51.0","","null","<div class=""stimulus-container""><img src=""images/causal_sequence/dog_causal/dog_causal_9.png"" class=""exp-image""></div>","null","","","","","","","","","","","","",""
"","","","","","html-button-response","52","809895","0.0-52.0","","4312","<div class=""stimulus-container""><img src=""images/causal_sequence/dog_causal/dog_causal_9.png"" class=""exp-image""><div class=""question-area""><p>Is there a person?</p></div></div>","0","observation","dog_causal","causal_sequence","9","","","","","","","","",""
"","","","","","html-keyboard-response","53","813897","0.0-53.0","","null","<div class=""stimulus-container""><img src=""images/causal_sequence/dog_causal/dog_causal_ten.png"" class=""exp-image""></div>","null","","","","","","","","","","","","",""
"","","","","","html-button-response","54","815373","0.0-54.0","","1475","<div class=""stimulus-container""><img src=""images/causal_sequence/dog_causal/dog_causal_ten.png"" class=""exp-image""><div class=""question-area""><p>Is there a person?</p></div></div>","0","observation","dog_causal","causal_sequence","ten","","","","","","","","",""
"","","","","","html-keyboard-response","55","817376","0.0-55.0","","null","<div style=""background-color: white; width: 100vw; height: 100vh;""></div>","null","","","","","","","","","","","","",""
"","","","","","html-keyboard-response","56","821378","0.0-56.0","","null","<div class=""stimulus-container""><img src=""images/semantic_sequence/self_care_activities_semantic/self_care_activities_semantic_1.png"" class=""exp-image""></div>","null","","","","","","","","","","","","",""
"","","","","","html-button-response","57","823179","0.0-57.0","","1800","<div class=""stimulus-container""><img src=""images/semantic_sequence/self_care_activities_semantic/self_care_activities_semantic_1.png"" class=""exp-image""><div class=""question-area""><p>Is there a person?</p></div></div>","0","observation","self_care_activities_semantic","semantic_sequence","1","","","","","","","","",""
"","","","","","html-keyboard-response","58","827182","0.0-58.0","","null","<div class=""stimulus-container""><img src=""images/semantic_sequence/self_care_activities_semantic/self_care_activities_semantic_2.png"" class=""exp-image""></div>","null","","","","","","","","","","","","",""
"","","","","","html-button-response","59","831464","0.0-59.0","","4281","<div class=""stimulus-container""><img src=""images/semantic_sequence/self_care_activities_semantic/self_care_activities_semantic_2.png"" class=""exp-image""><div class=""question-area""><p>Is there a person?</p></div></div>","0","observation","self_care_activities_semantic","semantic_sequence","2","","","","","","","","",""
"","","","","","html-keyboard-response","60","835466","0.0-60.0","","null","<div class=""stimulus-container""><img src=""images/semantic_sequence/self_care_activities_semantic/self_care_activities_semantic_3.png"" class=""exp-image""></div>","null","","","","","","","","","","","","",""
"","","","","","html-button-response","61","847855","0.0-61.0","","12388","<div class=""stimulus-container""><img src=""images/semantic_sequence/self_care_activities_semantic/self_care_activities_semantic_3.png"" class=""exp-image""><div class=""question-area""><p>Is there a person?</p></div></div>","0","observation","self_care_activities_semantic","semantic_sequence","3","","","","","","","","",""
"","","","","","html-keyboard-response","62","851857","0.0-62.0","","null","<div class=""stimulus-container""><img src=""images/semantic_sequence/self_care_activities_semantic/self_care_activities_semantic_4.png"" class=""exp-image""></div>","null","","","","","","","","","","","","",""
"","","","","","html-button-response","63","853085","0.0-63.0","","1227","<div class=""stimulus-container""><img src=""images/semantic_sequence/self_care_activities_semantic/self_care_activities_semantic_4.png"" class=""exp-image""><div class=""question-area""><p>Is there a person?</p></div></div>","0","observation","self_care_activities_semantic","semantic_sequence","4","","","","","","","","",""
"","","","","","html-keyboard-response","64","857087","0.0-64.0","","null","<div class=""stimulus-container""><img src=""images/semantic_sequence/self_care_activities_semantic/self_care_activities_semantic_5.png"" class=""exp-image""></div>","null","","","","","","","","","","","","",""
"","","","","","html-button-response","65","858200","0.0-65.0","","1113","<div class=""stimulus-container""><img src=""images/semantic_sequence/self_care_activities_semantic/self_care_activities_semantic_5.png"" class=""exp-image""><div class=""question-area""><p>Is there a person?</p></div></div>","0","observation","self_care_activities_semantic","semantic_sequence","5","","","","","","","","",""
"","","","","","html-keyboard-response","66","862201","0.0-66.0","","null","<div class=""stimulus-container""><img src=""images/semantic_sequence/self_care_activities_semantic/self_care_activities_semantic_6.png"" class=""exp-image""></div>","null","","","","","","","","","","","","",""
"","","","","","html-button-response","67","863540","0.0-67.0","","1338","<div class=""stimulus-container""><img src=""images/semantic_sequence/self_care_activities_semantic/self_care_activities_semantic_6.png"" class=""exp-image""><div class=""question-area""><p>Is there a person?</p></div></div>","0","observation","self_care_activities_semantic","semantic_sequence","6","","","","","","","","",""
"","","","","","html-keyboard-response","68","867544","0.0-68.0","","null","<div class=""stimulus-container""><img src=""images/semantic_sequence/self_care_activities_semantic/self_care_activities_semantic_7.png"" class=""exp-image""></div>","null","","","","","","","","","","","","",""
"","","","","","html-button-response","69","869763","0.0-69.0","","2218","<div class=""stimulus-container""><img src=""images/semantic_sequence/self_care_activities_semantic/self_care_activities_semantic_7.png"" class=""exp-image""><div class=""question-area""><p>Is there a person?</p></div></div>","0","observation","self_care_activities_semantic","semantic_sequence","7","","","","","","","","",""
"","","","","","html-keyboard-response","70","873764","0.0-70.0","","null","<div class=""stimulus-container""><img src=""images/semantic_sequence/self_care_activities_semantic/self_care_activities_semantic_8.png"" class=""exp-image""></div>","null","","","","","","","","","","","","",""
"","","","","","html-button-response","71","906378","0.0-71.0","","32613","<div class=""stimulus-container""><img src=""images/semantic_sequence/self_care_activities_semantic/self_care_activities_semantic_8.png"" class=""exp-image""><div class=""question-area""><p>Is there a person?</p></div></div>","0","observation","self_care_activities_semantic","semantic_sequence","8","","","","","","","","",""
"","","","","","html-keyboard-response","72","910380","0.0-72.0","","null","<div class=""stimulus-container""><img src=""images/semantic_sequence/self_care_activities_semantic/self_care_activities_semantic_9.png"" class=""exp-image""></div>","null","","","","","","","","","","","","",""
"","","","","","html-button-response","73","911969","0.0-73.0","","1589","<div class=""stimulus-container""><img src=""images/semantic_sequence/self_care_activities_semantic/self_care_activities_semantic_9.png"" class=""exp-image""><div class=""question-area""><p>Is there a person?</p></div></div>","0","observation","self_care_activities_semantic","semantic_sequence","9","","","","","","","","",""
"","","","","","html-keyboard-response","74","915971","0.0-74.0","","null","<div class=""stimulus-container""><img src=""images/semantic_sequence/self_care_activities_semantic/self_care_activities_semantic_ten.png"" class=""exp-image""></div>","null","","","","","","","","","","","","",""
"","","","","","html-button-response","75","917040","0.0-75.0","","1067","<div class=""stimulus-container""><img src=""images/semantic_sequence/self_care_activities_semantic/self_care_activities_semantic_ten.png"" class=""exp-image""><div class=""question-area""><p>Is there a person?</p></div></div>","0","observation","self_care_activities_semantic","semantic_sequence","ten","","","","","","","","",""
"","","","","","html-keyboard-response","76","919042","0.0-76.0","","null","<div style=""background-color: white; width: 100vw; height: 100vh;""></div>","null","","","","","","","","","","","","",""
"","","","","","html-keyboard-response","77","923045","0.0-77.0","","null","<div class=""stimulus-container""><img src=""images/causal_sequence/package_causal/package_causal_1.png"" class=""exp-image""></div>","null","","","","","","","","","","","","",""
"","","","","","html-button-response","78","924730","0.0-78.0","","1684","<div class=""stimulus-container""><img src=""images/causal_sequence/package_causal/package_causal_1.png"" class=""exp-image""><div class=""question-area""><p>Is there a person?</p></div></div>","0","observation","package_causal","causal_sequence","1","","","","","","","","",""
"","","","","","html-keyboard-response","79","928732","0.0-79.0","","null","<div class=""stimulus-container""><img src=""images/causal_sequence/package_causal/package_causal_2.png"" class=""exp-image""></div>","null","","","","","","","","","","","","",""
"","","","","","html-button-response","80","970984","0.0-80.0","","42251","<div class=""stimulus-container""><img src=""images/causal_sequence/package_causal/package_causal_2.png"" class=""exp-image""><div class=""question-area""><p>Is there a person?</p></div></div>","0","observation","package_causal","causal_sequence","2","","","","","","","","",""
"","","","","","html-keyboard-response","81","974987","0.0-81.0","","null","<div class=""stimulus-container""><img src=""images/causal_sequence/package_causal/package_causal_3.png"" class=""exp-image""></div>","null","","","","","","","","","","","","",""
"","","","","","html-button-response","82","976570","0.0-82.0","","1582","<div class=""stimulus-container""><img src=""images/causal_sequence/package_causal/package_causal_3.png"" class=""exp-image""><div class=""question-area""><p>Is there a person?</p></div></div>","0","observation","package_causal","causal_sequence","3","","","","","","","","",""
"","","","","","html-keyboard-response","83","980572","0.0-83.0","","null","<div class=""stimulus-container""><img src=""images/causal_sequence/package_causal/package_causal_4.png"" class=""exp-image""></div>","null","","","","","","","","","","","","",""
"","","","","","html-button-response","84","1038429","0.0-84.0","","57856","<div class=""stimulus-container""><img src=""images/causal_sequence/package_causal/package_causal_4.png"" class=""exp-image""><div class=""question-area""><p>Is there a person?</p></div></div>","1","observation","package_causal","causal_sequence","4","","","","","","","","",""
"","","","","","html-keyboard-response","85","1042431","0.0-85.0","","null","<div class=""stimulus-container""><img src=""images/causal_sequence/package_causal/package_causal_5.png"" class=""exp-image""></div>","null","","","","","","","","","","","","",""
"","","","","","html-button-response","86","1065853","0.0-86.0","","23421","<div class=""stimulus-container""><img src=""images/causal_sequence/package_causal/package_causal_5.png"" class=""exp-image""><div class=""question-area""><p>Is there a person?</p></div></div>","0","observation","package_causal","causal_sequence","5","","","","","","","","",""
"","","","","","html-keyboard-response","87","1069855","0.0-87.0","","null","<div class=""stimulus-container""><img src=""images/causal_sequence/package_causal/package_causal_6.png"" class=""exp-image""></div>","null","","","","","","","","","","","","",""
"","","","","","html-button-response","88","1074508","0.0-88.0","","4652","<div class=""stimulus-container""><img src=""images/causal_sequence/package_causal/package_causal_6.png"" class=""exp-image""><div class=""question-area""><p>Is there a person?</p></div></div>","0","observation","package_causal","causal_sequence","6","","","","","","","","",""
"","","","","","html-keyboard-response","89","1078510","0.0-89.0","","null","<div class=""stimulus-container""><img src=""images/causal_sequence/package_causal/package_causal_7.png"" class=""exp-image""></div>","null","","","","","","","","","","","","",""
"","","","","","html-button-response","90","1080573","0.0-90.0","","2061","<div class=""stimulus-container""><img src=""images/causal_sequence/package_causal/package_causal_7.png"" class=""exp-image""><div class=""question-area""><p>Is there a person?</p></div></div>","0","observation","package_causal","causal_sequence","7","","","","","","","","",""
"","","","","","html-keyboard-response","91","1084575","0.0-91.0","","null","<div class=""stimulus-container""><img src=""images/causal_sequence/package_causal/package_causal_8.png"" class=""exp-image""></div>","null","","","","","","","","","","","","",""
"","","","","","html-button-response","92","1089568","0.0-92.0","","4991","<div class=""stimulus-container""><img src=""images/causal_sequence/package_causal/package_causal_8.png"" class=""exp-image""><div class=""question-area""><p>Is there a person?</p></div></div>","0","observation","package_causal","causal_sequence","8","","","","","","","","",""
"","","","","","html-keyboard-response","93","1093570","0.0-93.0","","null","<div class=""stimulus-container""><img src=""images/causal_sequence/package_causal/package_causal_9.png"" class=""exp-image""></div>","null","","","","","","","","","","","","",""
"","","","","","html-button-response","94","1096555","0.0-94.0","","2983","<div class=""stimulus-container""><img src=""images/causal_sequence/package_causal/package_causal_9.png"" class=""exp-image""><div class=""question-area""><p>Is there a person?</p></div></div>","0","observation","package_causal","causal_sequence","9","","","","","","","","",""
"","","","","","html-keyboard-response","95","1100557","0.0-95.0","","null","<div class=""stimulus-container""><img src=""images/causal_sequence/package_causal/package_causal_ten.png"" class=""exp-image""></div>","null","","","","","","","","","","","","",""
"","","","","","html-button-response","96","1101720","0.0-96.0","","1162","<div class=""stimulus-container""><img src=""images/causal_sequence/package_causal/package_causal_ten.png"" class=""exp-image""><div class=""question-area""><p>Is there a person?</p></div></div>","0","observation","package_causal","causal_sequence","ten","","","","","","","","",""
"","","","","","html-keyboard-response","97","1103722","0.0-97.0","","null","<div style=""background-color: white; width: 100vw; height: 100vh;""></div>","null","","","","","","","","","","","","",""
"","","","","","html-keyboard-response","98","1107725","0.0-98.0","","null","<div class=""stimulus-container""><img src=""images/semantic_sequence/physical_activity_semantic/physical_activity_semantic_1.png"" class=""exp-image""></div>","null","","","","","","","","","","","","",""
"","","","","","html-button-response","99","1108616","0.0-99.0","","890","<div class=""stimulus-container""><img src=""images/semantic_sequence/physical_activity_semantic/physical_activity_semantic_1.png"" class=""exp-image""><div class=""question-area""><p>Is there a person?</p></div></div>","0","observation","physical_activity_semantic","semantic_sequence","1","","","","","","","","",""
"","","","","","html-keyboard-response","100","1112619","0.0-100.0","","null","<div class=""stimulus-container""><img src=""images/semantic_sequence/physical_activity_semantic/physical_activity_semantic_2.png"" class=""exp-image""></div>","null","","","","","","","","","","","","",""
"","","","","","html-button-response","101","1120793","0.0-101.0","","8173","<div class=""stimulus-container""><img src=""images/semantic_sequence/physical_activity_semantic/physical_activity_semantic_2.png"" class=""exp-image""><div class=""question-area""><p>Is there a person?</p></div></div>","0","observation","physical_activity_semantic","semantic_sequence","2","","","","","","","","",""
"","","","","","html-keyboard-response","102","1124795","0.0-102.0","","null","<div class=""stimulus-container""><img src=""images/semantic_sequence/physical_activity_semantic/physical_activity_semantic_3.png"" class=""exp-image""></div>","null","","","","","","","","","","","","",""
"","","","","","html-button-response","103","1146703","0.0-103.0","","21907","<div class=""stimulus-container""><img src=""images/semantic_sequence/physical_activity_semantic/physical_activity_semantic_3.png"" class=""exp-image""><div class=""question-area""><p>Is there a person?</p></div></div>","0","observation","physical_activity_semantic","semantic_sequence","3","","","","","","","","",""
"","","","","","html-keyboard-response","104","1150706","0.0-104.0","","null","<div class=""stimulus-container""><img src=""images/semantic_sequence/physical_activity_semantic/physical_activity_semantic_4.png"" class=""exp-image""></div>","null","","","","","","","","","","","","",""
"","","","","","html-button-response","105","1153232","0.0-105.0","","2525","<div class=""stimulus-container""><img src=""images/semantic_sequence/physical_activity_semantic/physical_activity_semantic_4.png"" class=""exp-image""><div class=""question-area""><p>Is there a person?</p></div></div>","0","observation","physical_activity_semantic","semantic_sequence","4","","","","","","","","",""
"","","","","","html-keyboard-response","106","1157235","0.0-106.0","","null","<div class=""stimulus-container""><img src=""images/semantic_sequence/physical_activity_semantic/physical_activity_semantic_5.png"" class=""exp-image""></div>","null","","","","","","","","","","","","",""
"","","","","","html-button-response","107","1159547","0.0-107.0","","2311","<div class=""stimulus-container""><img src=""images/semantic_sequence/physical_activity_semantic/physical_activity_semantic_5.png"" class=""exp-image""><div class=""question-area""><p>Is there a person?</p></div></div>","0","observation","physical_activity_semantic","semantic_sequence","5","","","","","","","","",""
"","","","","","html-keyboard-response","108","1163549","0.0-108.0","","null","<div class=""stimulus-container""><img src=""images/semantic_sequence/physical_activity_semantic/physical_activity_semantic_6.png"" class=""exp-image""></div>","null","","","","","","","","","","","","",""
"","","","","","html-button-response","109","1164718","0.0-109.0","","1168","<div class=""stimulus-container""><img src=""images/semantic_sequence/physical_activity_semantic/physical_activity_semantic_6.png"" class=""exp-image""><div class=""question-area""><p>Is there a person?</p></div></div>","0","observation","physical_activity_semantic","semantic_sequence","6","","","","","","","","",""
"","","","","","html-keyboard-response","110","1168722","0.0-110.0","","null","<div class=""stimulus-container""><img src=""images/semantic_sequence/physical_activity_semantic/physical_activity_semantic_7.png"" class=""exp-image""></div>","null","","","","","","","","","","","","",""
"","","","","","html-button-response","111","1175180","0.0-111.0","","6457","<div class=""stimulus-container""><img src=""images/semantic_sequence/physical_activity_semantic/physical_activity_semantic_7.png"" class=""exp-image""><div class=""question-area""><p>Is there a person?</p></div></div>","0","observation","physical_activity_semantic","semantic_sequence","7","","","","","","","","",""
"","","","","","html-keyboard-response","112","1179183","0.0-112.0","","null","<div class=""stimulus-container""><img src=""images/semantic_sequence/physical_activity_semantic/physical_activity_semantic_8.png"" class=""exp-image""></div>","null","","","","","","","","","","","","",""
"","","","","","html-button-response","113","1198705","0.0-113.0","","19521","<div class=""stimulus-container""><img src=""images/semantic_sequence/physical_activity_semantic/physical_activity_semantic_8.png"" class=""exp-image""><div class=""question-area""><p>Is there a person?</p></div></div>","0","observation","physical_activity_semantic","semantic_sequence","8","","","","","","","","",""
"","","","","","html-keyboard-response","114","1202707","0.0-114.0","","null","<div class=""stimulus-container""><img src=""images/semantic_sequence/physical_activity_semantic/physical_activity_semantic_9.png"" class=""exp-image""></div>","null","","","","","","","","","","","","",""
"","","","","","html-button-response","115","1219312","0.0-115.0","","16604","<div class=""stimulus-container""><img src=""images/semantic_sequence/physical_activity_semantic/physical_activity_semantic_9.png"" class=""exp-image""><div class=""question-area""><p>Is there a person?</p></div></div>","0","observation","physical_activity_semantic","semantic_sequence","9","","","","","","","","",""
"","","","","","html-keyboard-response","116","1223314","0.0-116.0","","null","<div class=""stimulus-container""><img src=""images/semantic_sequence/physical_activity_semantic/physical_activity_semantic_ten.png"" class=""exp-image""></div>","null","","","","","","","","","","","","",""
"","","","","","html-button-response","117","1239606","0.0-117.0","","16291","<div class=""stimulus-container""><img src=""images/semantic_sequence/physical_activity_semantic/physical_activity_semantic_ten.png"" class=""exp-image""><div class=""question-area""><p>Is there a person?</p></div></div>","0","observation","physical_activity_semantic","semantic_sequence","ten","","","","","","","","",""
"","","","","","html-keyboard-response","118","1241608","0.0-118.0","","null","<div style=""background-color: white; width: 100vw; height: 100vh;""></div>","null","","","","","","","","","","","","",""
"","","","","","html-keyboard-response","119","1245610","0.0-119.0","","null","<div class=""stimulus-container""><img src=""images/causal_sequence/coin_causal/coin_causal_1.png"" class=""exp-image""></div>","null","","","","","","","","","","","","",""
"","","","","","html-button-response","120","1247822","0.0-120.0","","2211","<div class=""stimulus-container""><img src=""images/causal_sequence/coin_causal/coin_causal_1.png"" class=""exp-image""><div class=""question-area""><p>Is there a person?</p></div></div>","0","observation","coin_causal","causal_sequence","1","","","","","","","","",""
"","","","","","html-keyboard-response","121","1251825","0.0-121.0","","null","<div class=""stimulus-container""><img src=""images/causal_sequence/coin_causal/coin_causal_2.png"" class=""exp-image""></div>","null","","","","","","","","","","","","",""
"","","","","","html-button-response","122","1264649","0.0-122.0","","12823","<div class=""stimulus-container""><img src=""images/causal_sequence/coin_causal/coin_causal_2.png"" class=""exp-image""><div class=""question-area""><p>Is there a person?</p></div></div>","0","observation","coin_causal","causal_sequence","2","","","","","","","","",""
"","","","","","html-keyboard-response","123","1268651","0.0-123.0","","null","<div class=""stimulus-container""><img src=""images/causal_sequence/coin_causal/coin_causal_3.png"" class=""exp-image""></div>","null","","","","","","","","","","","","",""
"","","","","","html-button-response","124","1271758","0.0-124.0","","3106","<div class=""stimulus-container""><img src=""images/causal_sequence/coin_causal/coin_causal_3.png"" class=""exp-image""><div class=""question-area""><p>Is there a person?</p></div></div>","0","observation","coin_causal","causal_sequence","3","","","","","","","","",""
"","","","","","html-keyboard-response","125","1275760","0.0-125.0","","null","<div class=""stimulus-container""><img src=""images/causal_sequence/coin_causal/coin_causal_4.png"" class=""exp-image""></div>","null","","","","","","","","","","","","",""
"","","","","","html-button-response","126","1288227","0.0-126.0","","12465","<div class=""stimulus-container""><img src=""images/causal_sequence/coin_causal/coin_causal_4.png"" class=""exp-image""><div class=""question-area""><p>Is there a person?</p></div></div>","0","observation","coin_causal","causal_sequence","4","","","","","","","","",""
"","","","","","html-keyboard-response","127","1292229","0.0-127.0","","null","<div class=""stimulus-container""><img src=""images/causal_sequence/coin_causal/coin_causal_5.png"" class=""exp-image""></div>","null","","","","","","","","","","","","",""
"","","","","","html-button-response","128","1302032","0.0-128.0","","9802","<div class=""stimulus-container""><img src=""images/causal_sequence/coin_causal/coin_causal_5.png"" class=""exp-image""><div class=""question-area""><p>Is there a person?</p></div></div>","0","observation","coin_causal","causal_sequence","5","","","","","","","","",""
"","","","","","html-keyboard-response","129","1306035","0.0-129.0","","null","<div class=""stimulus-container""><img src=""images/causal_sequence/coin_causal/coin_causal_6.png"" class=""exp-image""></div>","null","","","","","","","","","","","","",""
"","","","","","html-button-response","130","1315377","0.0-130.0","","9341","<div class=""stimulus-container""><img src=""images/causal_sequence/coin_causal/coin_causal_6.png"" class=""exp-image""><div class=""question-area""><p>Is there a person?</p></div></div>","0","observation","coin_causal","causal_sequence","6","","","","","","","","",""
"","","","","","html-keyboard-response","131","1319378","0.0-131.0","","null","<div class=""stimulus-container""><img src=""images/causal_sequence/coin_causal/coin_causal_7.png"" class=""exp-image""></div>","null","","","","","","","","","","","","",""
"","","","","","html-button-response","132","1320435","0.0-132.0","","1056","<div class=""stimulus-container""><img src=""images/causal_sequence/coin_causal/coin_causal_7.png"" class=""exp-image""><div class=""question-area""><p>Is there a person?</p></div></div>","1","observation","coin_causal","causal_sequence","7","","","","","","","","",""
"","","","","","html-keyboard-response","133","1324437","0.0-133.0","","null","<div class=""stimulus-container""><img src=""images/causal_sequence/coin_causal/coin_causal_8.png"" class=""exp-image""></div>","null","","","","","","","","","","","","",""
"","","","","","html-button-response","134","1330577","0.0-134.0","","6138","<div class=""stimulus-container""><img src=""images/causal_sequence/coin_causal/coin_causal_8.png"" class=""exp-image""><div class=""question-area""><p>Is there a person?</p></div></div>","0","observation","coin_causal","causal_sequence","8","","","","","","","","",""
"","","","","","html-keyboard-response","135","1334579","0.0-135.0","","null","<div class=""stimulus-container""><img src=""images/causal_sequence/coin_causal/coin_causal_9.png"" class=""exp-image""></div>","null","","","","","","","","","","","","",""
"","","","","","html-button-response","136","1340254","0.0-136.0","","5675","<div class=""stimulus-container""><img src=""images/causal_sequence/coin_causal/coin_causal_9.png"" class=""exp-image""><div class=""question-area""><p>Is there a person?</p></div></div>","0","observation","coin_causal","causal_sequence","9","","","","","","","","",""
"","","","","","html-keyboard-response","137","1344257","0.0-137.0","","null","<div class=""stimulus-container""><img src=""images/causal_sequence/coin_causal/coin_causal_ten.png"" class=""exp-image""></div>","null","","","","","","","","","","","","",""
"","","","","","html-button-response","138","1346054","0.0-138.0","","1796","<div class=""stimulus-container""><img src=""images/causal_sequence/coin_causal/coin_causal_ten.png"" class=""exp-image""><div class=""question-area""><p>Is there a person?</p></div></div>","0","observation","coin_causal","causal_sequence","ten","","","","","","","","",""
"","","","","","html-keyboard-response","139","1348057","0.0-139.0","","null","<div style=""background-color: white; width: 100vw; height: 100vh;""></div>","null","","","","","","","","","","","","",""
"","","","","","html-keyboard-response","140","1352059","0.0-140.0","","null","<div class=""stimulus-container""><img src=""images/semantic_sequence/visiting_cities_semantic/visiting_cities_semantic_1.png"" class=""exp-image""></div>","null","","","","","","","","","","","","",""
"","","","","","html-button-response","141","1355541","0.0-141.0","","3481","<div class=""stimulus-container""><img src=""images/semantic_sequence/visiting_cities_semantic/visiting_cities_semantic_1.png"" class=""exp-image""><div class=""question-area""><p>Is there a person?</p></div></div>","0","observation","visiting_cities_semantic","semantic_sequence","1","","","","","","","","",""
"","","","","","html-keyboard-response","142","1359544","0.0-142.0","","null","<div class=""stimulus-container""><img src=""images/semantic_sequence/visiting_cities_semantic/visiting_cities_semantic_2.png"" class=""exp-image""></div>","null","","","","","","","","","","","","",""
"","","","","","html-button-response","143","1368036","0.0-143.0","","8491","<div class=""stimulus-container""><img src=""images/semantic_sequence/visiting_cities_semantic/visiting_cities_semantic_2.png"" class=""exp-image""><div class=""question-area""><p>Is there a person?</p></div></div>","1","observation","visiting_cities_semantic","semantic_sequence","2","","","","","","","","",""
"","","","","","html-keyboard-response","144","1372038","0.0-144.0","","null","<div class=""stimulus-container""><img src=""images/semantic_sequence/visiting_cities_semantic/visiting_cities_semantic_3.png"" class=""exp-image""></div>","null","","","","","","","","","","","","",""
"","","","","","html-button-response","145","1378618","0.0-145.0","","6579","<div class=""stimulus-container""><img src=""images/semantic_sequence/visiting_cities_semantic/visiting_cities_semantic_3.png"" class=""exp-image""><div class=""question-area""><p>Is there a person?</p></div></div>","1","observation","visiting_cities_semantic","semantic_sequence","3","","","","","","","","",""
"","","","","","html-keyboard-response","146","1382620","0.0-146.0","","null","<div class=""stimulus-container""><img src=""images/semantic_sequence/visiting_cities_semantic/visiting_cities_semantic_4.png"" class=""exp-image""></div>","null","","","","","","","","","","","","",""
"","","","","","html-button-response","147","1383589","0.0-147.0","","967","<div class=""stimulus-container""><img src=""images/semantic_sequence/visiting_cities_semantic/visiting_cities_semantic_4.png"" class=""exp-image""><div class=""question-area""><p>Is there a person?</p></div></div>","1","observation","visiting_cities_semantic","semantic_sequence","4","","","","","","","","",""
"","","","","","html-keyboard-response","148","1387591","0.0-148.0","","null","<div class=""stimulus-container""><img src=""images/semantic_sequence/visiting_cities_semantic/visiting_cities_semantic_5.png"" class=""exp-image""></div>","null","","","","","","","","","","","","",""
"","","","","","html-button-response","149","1389938","0.0-149.0","","2346","<div class=""stimulus-container""><img src=""images/semantic_sequence/visiting_cities_semantic/visiting_cities_semantic_5.png"" class=""exp-image""><div class=""question-area""><p>Is there a person?</p></div></div>","1","observation","visiting_cities_semantic","semantic_sequence","5","","","","","","","","",""
"","","","","","html-keyboard-response","150","1393941","0.0-150.0","","null","<div class=""stimulus-container""><img src=""images/semantic_sequence/visiting_cities_semantic/visiting_cities_semantic_6.png"" class=""exp-image""></div>","null","","","","","","","","","","","","",""
"","","","","","html-button-response","151","1394467","0.0-151.0","","523","<div class=""stimulus-container""><img src=""images/semantic_sequence/visiting_cities_semantic/visiting_cities_semantic_6.png"" class=""exp-image""><div class=""question-area""><p>Is there a person?</p></div></div>","1","observation","visiting_cities_semantic","semantic_sequence","6","","","","","","","","",""
"","","","","","html-keyboard-response","152","1398469","0.0-152.0","","null","<div class=""stimulus-container""><img src=""images/semantic_sequence/visiting_cities_semantic/visiting_cities_semantic_7.png"" class=""exp-image""></div>","null","","","","","","","","","","","","",""
"","","","","","html-button-response","153","1399121","0.0-153.0","","651","<div class=""stimulus-container""><img src=""images/semantic_sequence/visiting_cities_semantic/visiting_cities_semantic_7.png"" class=""exp-image""><div class=""question-area""><p>Is there a person?</p></div></div>","0","observation","visiting_cities_semantic","semantic_sequence","7","","","","","","","","",""
"","","","","","html-keyboard-response","154","1403124","0.0-154.0","","null","<div class=""stimulus-container""><img src=""images/semantic_sequence/visiting_cities_semantic/visiting_cities_semantic_8.png"" class=""exp-image""></div>","null","","","","","","","","","","","","",""
"","","","","","html-button-response","155","1404195","0.0-155.0","","1070","<div class=""stimulus-container""><img src=""images/semantic_sequence/visiting_cities_semantic/visiting_cities_semantic_8.png"" class=""exp-image""><div class=""question-area""><p>Is there a person?</p></div></div>","0","observation","visiting_cities_semantic","semantic_sequence","8","","","","","","","","",""
"","","","","","html-keyboard-response","156","1408197","0.0-156.0","","null","<div class=""stimulus-container""><img src=""images/semantic_sequence/visiting_cities_semantic/visiting_cities_semantic_9.png"" class=""exp-image""></div>","null","","","","","","","","","","","","",""
"","","","","","html-button-response","157","1409041","0.0-157.0","","843","<div class=""stimulus-container""><img src=""images/semantic_sequence/visiting_cities_semantic/visiting_cities_semantic_9.png"" class=""exp-image""><div class=""question-area""><p>Is there a person?</p></div></div>","0","observation","visiting_cities_semantic","semantic_sequence","9","","","","","","","","",""
"","","","","","html-keyboard-response","158","1413043","0.0-158.0","","null","<div class=""stimulus-container""><img src=""images/semantic_sequence/visiting_cities_semantic/visiting_cities_semantic_ten.png"" class=""exp-image""></div>","null","","","","","","","","","","","","",""
"","","","","","html-button-response","159","1413804","0.0-159.0","","759","<div class=""stimulus-container""><img src=""images/semantic_sequence/visiting_cities_semantic/visiting_cities_semantic_ten.png"" class=""exp-image""><div class=""question-area""><p>Is there a person?</p></div></div>","1","observation","visiting_cities_semantic","semantic_sequence","ten","","","","","","","","",""
"","","","","","html-keyboard-response","160","1415805","0.0-160.0","","null","<div style=""background-color: white; width: 100vw; height: 100vh;""></div>","null","","","","","","","","","","","","",""
"","","","","","html-keyboard-response","161","1419808","0.0-161.0","","null","<div class=""stimulus-container""><img src=""images/semantic_sequence/housework_semantic/housework_semantic_1.png"" class=""exp-image""></div>","null","","","","","","","","","","","","",""
"","","","","","html-button-response","162","1421337","0.0-162.0","","1529","<div class=""stimulus-container""><img src=""images/semantic_sequence/housework_semantic/housework_semantic_1.png"" class=""exp-image""><div class=""question-area""><p>Is there a person?</p></div></div>","0","observation","housework_semantic","semantic_sequence","1","","","","","","","","",""
"","","","","","html-keyboard-response","163","1425340","0.0-163.0","","null","<div class=""stimulus-container""><img src=""images/semantic_sequence/housework_semantic/housework_semantic_2.png"" class=""exp-image""></div>","null","","","","","","","","","","","","",""
"","","","","","html-button-response","164","1426277","0.0-164.0","","936","<div class=""stimulus-container""><img src=""images/semantic_sequence/housework_semantic/housework_semantic_2.png"" class=""exp-image""><div class=""question-area""><p>Is there a person?</p></div></div>","0","observation","housework_semantic","semantic_sequence","2","","","","","","","","",""
"","","","","","html-keyboard-response","165","1430278","0.0-165.0","","null","<div class=""stimulus-container""><img src=""images/semantic_sequence/housework_semantic/housework_semantic_3.png"" class=""exp-image""></div>","null","","","","","","","","","","","","",""
"","","","","","html-button-response","166","1431043","0.0-166.0","","764","<div class=""stimulus-container""><img src=""images/semantic_sequence/housework_semantic/housework_semantic_3.png"" class=""exp-image""><div class=""question-area""><p>Is there a person?</p></div></div>","0","observation","housework_semantic","semantic_sequence","3","","","","","","","","",""
"","","","","","html-keyboard-response","167","1435046","0.0-167.0","","null","<div class=""stimulus-container""><img src=""images/semantic_sequence/housework_semantic/housework_semantic_4.png"" class=""exp-image""></div>","null","","","","","","","","","","","","",""
"","","","","","html-button-response","168","1436822","0.0-168.0","","1775","<div class=""stimulus-container""><img src=""images/semantic_sequence/housework_semantic/housework_semantic_4.png"" class=""exp-image""><div class=""question-area""><p>Is there a person?</p></div></div>","0","observation","housework_semantic","semantic_sequence","4","","","","","","","","",""
"","","","","","html-keyboard-response","169","1440823","0.0-169.0","","null","<div class=""stimulus-container""><img src=""images/semantic_sequence/housework_semantic/housework_semantic_5.png"" class=""exp-image""></div>","null","","","","","","","","","","","","",""
"","","","","","html-button-response","170","1442763","0.0-170.0","","1939","<div class=""stimulus-container""><img src=""images/semantic_sequence/housework_semantic/housework_semantic_5.png"" class=""exp-image""><div class=""question-area""><p>Is there a person?</p></div></div>","0","observation","housework_semantic","semantic_sequence","5","","","","","","","","",""
"","","","","","html-keyboard-response","171","1446765","0.0-171.0","","null","<div class=""stimulus-container""><img src=""images/semantic_sequence/housework_semantic/housework_semantic_6.png"" class=""exp-image""></div>","null","","","","","","","","","","","","",""
"","","","","","html-button-response","172","1449677","0.0-172.0","","2911","<div class=""stimulus-container""><img src=""images/semantic_sequence/housework_semantic/housework_semantic_6.png"" class=""exp-image""><div class=""question-area""><p>Is there a person?</p></div></div>","0","observation","housework_semantic","semantic_sequence","6","","","","","","","","",""
"","","","","","html-keyboard-response","173","1453679","0.0-173.0","","null","<div class=""stimulus-container""><img src=""images/semantic_sequence/housework_semantic/housework_semantic_7.png"" class=""exp-image""></div>","null","","","","","","","","","","","","",""
"","","","","","html-button-response","174","1454319","0.0-174.0","","639","<div class=""stimulus-container""><img src=""images/semantic_sequence/housework_semantic/housework_semantic_7.png"" class=""exp-image""><div class=""question-area""><p>Is there a person?</p></div></div>","0","observation","housework_semantic","semantic_sequence","7","","","","","","","","",""
"","","","","","html-keyboard-response","175","1458322","0.0-175.0","","null","<div class=""stimulus-container""><img src=""images/semantic_sequence/housework_semantic/housework_semantic_8.png"" class=""exp-image""></div>","null","","","","","","","","","","","","",""
"","","","","","html-button-response","176","1459080","0.0-176.0","","757","<div class=""stimulus-container""><img src=""images/semantic_sequence/housework_semantic/housework_semantic_8.png"" class=""exp-image""><div class=""question-area""><p>Is there a person?</p></div></div>","0","observation","housework_semantic","semantic_sequence","8","","","","","","","","",""
"","","","","","html-keyboard-response","177","1463082","0.0-177.0","","null","<div class=""stimulus-container""><img src=""images/semantic_sequence/housework_semantic/housework_semantic_9.png"" class=""exp-image""></div>","null","","","","","","","","","","","","",""
"","","","","","html-button-response","178","1465079","0.0-178.0","","1996","<div class=""stimulus-container""><img src=""images/semantic_sequence/housework_semantic/housework_semantic_9.png"" class=""exp-image""><div class=""question-area""><p>Is there a person?</p></div></div>","0","observation","housework_semantic","semantic_sequence","9","","","","","","","","",""
"","","","","","html-keyboard-response","179","1469081","0.0-179.0","","null","<div class=""stimulus-container""><img src=""images/semantic_sequence/housework_semantic/housework_semantic_ten.png"" class=""exp-image""></div>","null","","","","","","","","","","","","",""
"","","","","","html-button-response","180","1487891","0.0-180.0","","18809","<div class=""stimulus-container""><img src=""images/semantic_sequence/housework_semantic/housework_semantic_ten.png"" class=""exp-image""><div class=""question-area""><p>Is there a person?</p></div></div>","0","observation","housework_semantic","semantic_sequence","ten","","","","","","","","",""
"","","","","","html-keyboard-response","181","1489892","0.0-181.0","","null","<div style=""background-color: white; width: 100vw; height: 100vh;""></div>","null","","","","","","","","","","","","",""
"","","","","","html-keyboard-response","182","1493894","0.0-182.0","","null","<div class=""stimulus-container""><img src=""images/semantic_sequence/kitchen_operations_semantic/kitchen_operations_semantic_1.png"" class=""exp-image""></div>","null","","","","","","","","","","","","",""
"","","","","","html-button-response","183","1496588","0.0-183.0","","2693","<div class=""stimulus-container""><img src=""images/semantic_sequence/kitchen_operations_semantic/kitchen_operations_semantic_1.png"" class=""exp-image""><div class=""question-area""><p>Is there a person?</p></div></div>","0","observation","kitchen_operations_semantic","semantic_sequence","1","","","","","","","","",""
"","","","","","html-keyboard-response","184","1501819","0.0-184.0","","null","<div class=""stimulus-container""><img src=""images/semantic_sequence/kitchen_operations_semantic/kitchen_operations_semantic_2.png"" class=""exp-image""></div>","null","","","","","","","","","","","","",""
"","","","","","html-button-response","185","1503200","0.0-185.0","","1377","<div class=""stimulus-container""><img src=""images/semantic_sequence/kitchen_operations_semantic/kitchen_operations_semantic_2.png"" class=""exp-image""><div class=""question-area""><p>Is there a person?</p></div></div>","0","observation","kitchen_operations_semantic","semantic_sequence","2","","","","","","","","",""
"","","","","","html-keyboard-response","186","1507202","0.0-186.0","","null","<div class=""stimulus-container""><img src=""images/semantic_sequence/kitchen_operations_semantic/kitchen_operations_semantic_3.png"" class=""exp-image""></div>","null","","","","","","","","","","","","",""
"","","","","","html-button-response","187","1507958","0.0-187.0","","755","<div class=""stimulus-container""><img src=""images/semantic_sequence/kitchen_operations_semantic/kitchen_operations_semantic_3.png"" class=""exp-image""><div class=""question-area""><p>Is there a person?</p></div></div>","0","observation","kitchen_operations_semantic","semantic_sequence","3","","","","","","","","",""
"","","","","","html-keyboard-response","188","1511960","0.0-188.0","","null","<div class=""stimulus-container""><img src=""images/semantic_sequence/kitchen_operations_semantic/kitchen_operations_semantic_4.png"" class=""exp-image""></div>","null","","","","","","","","","","","","",""
"","","","","","html-button-response","189","1512480","0.0-189.0","","518","<div class=""stimulus-container""><img src=""images/semantic_sequence/kitchen_operations_semantic/kitchen_operations_semantic_4.png"" class=""exp-image""><div class=""question-area""><p>Is there a person?</p></div></div>","0","observation","kitchen_operations_semantic","semantic_sequence","4","","","","","","","","",""
"","","","","","html-keyboard-response","190","1516482","0.0-190.0","","null","<div class=""stimulus-container""><img src=""images/semantic_sequence/kitchen_operations_semantic/kitchen_operations_semantic_5.png"" class=""exp-image""></div>","null","","","","","","","","","","","","",""
"","","","","","html-button-response","191","1517021","0.0-191.0","","537","<div class=""stimulus-container""><img src=""images/semantic_sequence/kitchen_operations_semantic/kitchen_operations_semantic_5.png"" class=""exp-image""><div class=""question-area""><p>Is there a person?</p></div></div>","0","observation","kitchen_operations_semantic","semantic_sequence","5","","","","","","","","",""
"","","","","","html-keyboard-response","192","1521023","0.0-192.0","","null","<div class=""stimulus-container""><img src=""images/semantic_sequence/kitchen_operations_semantic/kitchen_operations_semantic_6.png"" class=""exp-image""></div>","null","","","","","","","","","","","","",""
"","","","","","html-button-response","193","1521476","0.0-193.0","","452","<div class=""stimulus-container""><img src=""images/semantic_sequence/kitchen_operations_semantic/kitchen_operations_semantic_6.png"" class=""exp-image""><div class=""question-area""><p>Is there a person?</p></div></div>","0","observation","kitchen_operations_semantic","semantic_sequence","6","","","","","","","","",""
"","","","","","html-keyboard-response","194","1525479","0.0-194.0","","null","<div class=""stimulus-container""><img src=""images/semantic_sequence/kitchen_operations_semantic/kitchen_operations_semantic_7.png"" class=""exp-image""></div>","null","","","","","","","","","","","","",""
"","","","","","html-button-response","195","1525964","0.0-195.0","","485","<div class=""stimulus-container""><img src=""images/semantic_sequence/kitchen_operations_semantic/kitchen_operations_semantic_7.png"" class=""exp-image""><div class=""question-area""><p>Is there a person?</p></div></div>","0","observation","kitchen_operations_semantic","semantic_sequence","7","","","","","","","","",""
"","","","","","html-keyboard-response","196","1529967","0.0-196.0","","null","<div class=""stimulus-container""><img src=""images/semantic_sequence/kitchen_operations_semantic/kitchen_operations_semantic_8.png"" class=""exp-image""></div>","null","","","","","","","","","","","","",""
"","","","","","html-button-response","197","1530756","0.0-197.0","","788","<div class=""stimulus-container""><img src=""images/semantic_sequence/kitchen_operations_semantic/kitchen_operations_semantic_8.png"" class=""exp-image""><div class=""question-area""><p>Is there a person?</p></div></div>","0","observation","kitchen_operations_semantic","semantic_sequence","8","","","","","","","","",""
"","","","","","html-keyboard-response","198","1534757","0.0-198.0","","null","<div class=""stimulus-container""><img src=""images/semantic_sequence/kitchen_operations_semantic/kitchen_operations_semantic_9.png"" class=""exp-image""></div>","null","","","","","","","","","","","","",""
"","","","","","html-button-response","199","1535329","0.0-199.0","","571","<div class=""stimulus-container""><img src=""images/semantic_sequence/kitchen_operations_semantic/kitchen_operations_semantic_9.png"" class=""exp-image""><div class=""question-area""><p>Is there a person?</p></div></div>","0","observation","kitchen_operations_semantic","semantic_sequence","9","","","","","","","","",""
"","","","","","html-keyboard-response","200","1539331","0.0-200.0","","null","<div class=""stimulus-container""><img src=""images/semantic_sequence/kitchen_operations_semantic/kitchen_operations_semantic_ten.png"" class=""exp-image""></div>","null","","","","","","","","","","","","",""
"","","","","","html-button-response","201","1539900","0.0-201.0","","568","<div class=""stimulus-container""><img src=""images/semantic_sequence/kitchen_operations_semantic/kitchen_operations_semantic_ten.png"" class=""exp-image""><div class=""question-area""><p>Is there a person?</p></div></div>","0","observation","kitchen_operations_semantic","semantic_sequence","ten","","","","","","","","",""
"","","","","","html-keyboard-response","202","1541902","0.0-202.0","","null","<div style=""background-color: white; width: 100vw; height: 100vh;""></div>","null","","","","","","","","","","","","",""
"","","","","","html-keyboard-response","203","1545904","0.0-203.0","","null","<div class=""stimulus-container""><img src=""images/causal_sequence/the_performance_causal/the_performance_causal_1.png"" class=""exp-image""></div>","null","","","","","","","","","","","","",""
"","","","","","html-button-response","204","1546561","0.0-204.0","","656","<div class=""stimulus-container""><img src=""images/causal_sequence/the_performance_causal/the_performance_causal_1.png"" class=""exp-image""><div class=""question-area""><p>Is there a person?</p></div></div>","0","observation","the_performance_causal","causal_sequence","1","","","","","","","","",""
"","","","","","html-keyboard-response","205","1550563","0.0-205.0","","null","<div class=""stimulus-container""><img src=""images/causal_sequence/the_performance_causal/the_performance_causal_2.png"" class=""exp-image""></div>","null","","","","","","","","","","","","",""
"","","","","","html-button-response","206","1551176","0.0-206.0","","612","<div class=""stimulus-container""><img src=""images/causal_sequence/the_performance_causal/the_performance_causal_2.png"" class=""exp-image""><div class=""question-area""><p>Is there a person?</p></div></div>","0","observation","the_performance_causal","causal_sequence","2","","","","","","","","",""
"","","","","","html-keyboard-response","207","1555179","0.0-207.0","","null","<div class=""stimulus-container""><img src=""images/causal_sequence/the_performance_causal/the_performance_causal_3.png"" class=""exp-image""></div>","null","","","","","","","","","","","","",""
"","","","","","html-button-response","208","1555863","0.0-208.0","","683","<div class=""stimulus-container""><img src=""images/causal_sequence/the_performance_causal/the_performance_causal_3.png"" class=""exp-image""><div class=""question-area""><p>Is there a person?</p></div></div>","0","observation","the_performance_causal","causal_sequence","3","","","","","","","","",""
"","","","","","html-keyboard-response","209","1559865","0.0-209.0","","null","<div class=""stimulus-container""><img src=""images/causal_sequence/the_performance_causal/the_performance_causal_4.png"" class=""exp-image""></div>","null","","","","","","","","","","","","",""
"","","","","","html-button-response","210","1561172","0.0-210.0","","1306","<div class=""stimulus-container""><img src=""images/causal_sequence/the_performance_causal/the_performance_causal_4.png"" class=""exp-image""><div class=""question-area""><p>Is there a person?</p></div></div>","0","observation","the_performance_causal","causal_sequence","4","","","","","","","","",""
"","","","","","html-keyboard-response","211","1565175","0.0-211.0","","null","<div class=""stimulus-container""><img src=""images/causal_sequence/the_performance_causal/the_performance_causal_5.png"" class=""exp-image""></div>","null","","","","","","","","","","","","",""
"","","","","","html-button-response","212","1565862","0.0-212.0","","686","<div class=""stimulus-container""><img src=""images/causal_sequence/the_performance_causal/the_performance_causal_5.png"" class=""exp-image""><div class=""question-area""><p>Is there a person?</p></div></div>","0","observation","the_performance_causal","causal_sequence","5","","","","","","","","",""
"","","","","","html-keyboard-response","213","1569864","0.0-213.0","","null","<div class=""stimulus-container""><img src=""images/causal_sequence/the_performance_causal/the_performance_causal_6.png"" class=""exp-image""></div>","null","","","","","","","","","","","","",""
"","","","","","html-button-response","214","1570819","0.0-214.0","","954","<div class=""stimulus-container""><img src=""images/causal_sequence/the_performance_causal/the_performance_causal_6.png"" class=""exp-image""><div class=""question-area""><p>Is there a person?</p></div></div>","0","observation","the_performance_causal","causal_sequence","6","","","","","","","","",""
"","","","","","html-keyboard-response","215","1574822","0.0-215.0","","null","<div class=""stimulus-container""><img src=""images/causal_sequence/the_performance_causal/the_performance_causal_7.png"" class=""exp-image""></div>","null","","","","","","","","","","","","",""
"","","","","","html-button-response","216","1576325","0.0-216.0","","1503","<div class=""stimulus-container""><img src=""images/causal_sequence/the_performance_causal/the_performance_causal_7.png"" class=""exp-image""><div class=""question-area""><p>Is there a person?</p></div></div>","1","observation","the_performance_causal","causal_sequence","7","","","","","","","","",""
"","","","","","html-keyboard-response","217","1580327","0.0-217.0","","null","<div class=""stimulus-container""><img src=""images/causal_sequence/the_performance_causal/the_performance_causal_8.png"" class=""exp-image""></div>","null","","","","","","","","","","","","",""
"","","","","","html-button-response","218","1581152","0.0-218.0","","824","<div class=""stimulus-container""><img src=""images/causal_sequence/the_performance_causal/the_performance_causal_8.png"" class=""exp-image""><div class=""question-area""><p>Is there a person?</p></div></div>","1","observation","the_performance_causal","causal_sequence","8","","","","","","","","",""
"","","","","","html-keyboard-response","219","1585156","0.0-219.0","","null","<div class=""stimulus-container""><img src=""images/causal_sequence/the_performance_causal/the_performance_causal_9.png"" class=""exp-image""></div>","null","","","","","","","","","","","","",""
"","","","","","html-button-response","220","1586046","0.0-220.0","","890","<div class=""stimulus-container""><img src=""images/causal_sequence/the_performance_causal/the_performance_causal_9.png"" class=""exp-image""><div class=""question-area""><p>Is there a person?</p></div></div>","1","observation","the_performance_causal","causal_sequence","9","","","","","","","","",""
"","","","","","html-keyboard-response","221","1590048","0.0-221.0","","null","<div class=""stimulus-container""><img src=""images/causal_sequence/the_performance_causal/the_performance_causal_ten.png"" class=""exp-image""></div>","null","","","","","","","","","","","","",""
"","","","","","html-button-response","222","1590547","0.0-222.0","","498","<div class=""stimulus-container""><img src=""images/causal_sequence/the_performance_causal/the_performance_causal_ten.png"" class=""exp-image""><div class=""question-area""><p>Is there a person?</p></div></div>","1","observation","the_performance_causal","causal_sequence","ten","","","","","","","","",""
"","","","","","html-keyboard-response","223","1592549","0.0-223.0","","null","<div style=""background-color: white; width: 100vw; height: 100vh;""></div>","null","","","","","","","","","","","","",""
"","","","","","html-keyboard-response","224","1596551","0.0-224.0","","null","<div class=""stimulus-container""><img src=""images/semantic_sequence/maintaining_a_car_semantic/maintaining_a_car_semantic_1.png"" class=""exp-image""></div>","null","","","","","","","","","","","","",""
"","","","","","html-button-response","225","1597152","0.0-225.0","","600","<div class=""stimulus-container""><img src=""images/semantic_sequence/maintaining_a_car_semantic/maintaining_a_car_semantic_1.png"" class=""exp-image""><div class=""question-area""><p>Is there a person?</p></div></div>","0","observation","maintaining_a_car_semantic","semantic_sequence","1","","","","","","","","",""
"","","","","","html-keyboard-response","226","1601153","0.0-226.0","","null","<div class=""stimulus-container""><img src=""images/semantic_sequence/maintaining_a_car_semantic/maintaining_a_car_semantic_2.png"" class=""exp-image""></div>","null","","","","","","","","","","","","",""
"","","","","","html-button-response","227","1601629","0.0-227.0","","475","<div class=""stimulus-container""><img src=""images/semantic_sequence/maintaining_a_car_semantic/maintaining_a_car_semantic_2.png"" class=""exp-image""><div class=""question-area""><p>Is there a person?</p></div></div>","0","observation","maintaining_a_car_semantic","semantic_sequence","2","","","","","","","","",""
"","","","","","html-keyboard-response","228","1605630","0.0-228.0","","null","<div class=""stimulus-container""><img src=""images/semantic_sequence/maintaining_a_car_semantic/maintaining_a_car_semantic_3.png"" class=""exp-image""></div>","null","","","","","","","","","","","","",""
"","","","","","html-button-response","229","1606071","0.0-229.0","","440","<div class=""stimulus-container""><img src=""images/semantic_sequence/maintaining_a_car_semantic/maintaining_a_car_semantic_3.png"" class=""exp-image""><div class=""question-area""><p>Is there a person?</p></div></div>","0","observation","maintaining_a_car_semantic","semantic_sequence","3","","","","","","","","",""
"","","","","","html-keyboard-response","230","1610074","0.0-230.0","","null","<div class=""stimulus-container""><img src=""images/semantic_sequence/maintaining_a_car_semantic/maintaining_a_car_semantic_4.png"" class=""exp-image""></div>","null","","","","","","","","","","","","",""
"","","","","","html-button-response","231","1610670","0.0-231.0","","595","<div class=""stimulus-container""><img src=""images/semantic_sequence/maintaining_a_car_semantic/maintaining_a_car_semantic_4.png"" class=""exp-image""><div class=""question-area""><p>Is there a person?</p></div></div>","0","observation","maintaining_a_car_semantic","semantic_sequence","4","","","","","","","","",""
"","","","","","html-keyboard-response","232","1614672","0.0-232.0","","null","<div class=""stimulus-container""><img src=""images/semantic_sequence/maintaining_a_car_semantic/maintaining_a_car_semantic_5.png"" class=""exp-image""></div>","null","","","","","","","","","","","","",""
"","","","","","html-button-response","233","1615200","0.0-233.0","","527","<div class=""stimulus-container""><img src=""images/semantic_sequence/maintaining_a_car_semantic/maintaining_a_car_semantic_5.png"" class=""exp-image""><div class=""question-area""><p>Is there a person?</p></div></div>","0","observation","maintaining_a_car_semantic","semantic_sequence","5","","","","","","","","",""
"","","","","","html-keyboard-response","234","1619202","0.0-234.0","","null","<div class=""stimulus-container""><img src=""images/semantic_sequence/maintaining_a_car_semantic/maintaining_a_car_semantic_6.png"" class=""exp-image""></div>","null","","","","","","","","","","","","",""
"","","","","","html-button-response","235","1619722","0.0-235.0","","519","<div class=""stimulus-container""><img src=""images/semantic_sequence/maintaining_a_car_semantic/maintaining_a_car_semantic_6.png"" class=""exp-image""><div class=""question-area""><p>Is there a person?</p></div></div>","0","observation","maintaining_a_car_semantic","semantic_sequence","6","","","","","","","","",""
"","","","","","html-keyboard-response","236","1623725","0.0-236.0","","null","<div class=""stimulus-container""><img src=""images/semantic_sequence/maintaining_a_car_semantic/maintaining_a_car_semantic_7.png"" class=""exp-image""></div>","null","","","","","","","","","","","","",""
"","","","","","html-button-response","237","1624481","0.0-237.0","","755","<div class=""stimulus-container""><img src=""images/semantic_sequence/maintaining_a_car_semantic/maintaining_a_car_semantic_7.png"" class=""exp-image""><div class=""question-area""><p>Is there a person?</p></div></div>","0","observation","maintaining_a_car_semantic","semantic_sequence","7","","","","","","","","",""
"","","","","","html-keyboard-response","238","1628483","0.0-238.0","","null","<div class=""stimulus-container""><img src=""images/semantic_sequence/maintaining_a_car_semantic/maintaining_a_car_semantic_8.png"" class=""exp-image""></div>","null","","","","","","","","","","","","",""
"","","","","","html-button-response","239","1629737","0.0-239.0","","1253","<div class=""stimulus-container""><img src=""images/semantic_sequence/maintaining_a_car_semantic/maintaining_a_car_semantic_8.png"" class=""exp-image""><div class=""question-area""><p>Is there a person?</p></div></div>","0","observation","maintaining_a_car_semantic","semantic_sequence","8","","","","","","","","",""
"","","","","","html-keyboard-response","240","1633740","0.0-240.0","","null","<div class=""stimulus-container""><img src=""images/semantic_sequence/maintaining_a_car_semantic/maintaining_a_car_semantic_9.png"" class=""exp-image""></div>","null","","","","","","","","","","","","",""
"","","","","","html-button-response","241","1635307","0.0-241.0","","1566","<div class=""stimulus-container""><img src=""images/semantic_sequence/maintaining_a_car_semantic/maintaining_a_car_semantic_9.png"" class=""exp-image""><div class=""question-area""><p>Is there a person?</p></div></div>","0","observation","maintaining_a_car_semantic","semantic_sequence","9","","","","","","","","",""
"","","","","","html-keyboard-response","242","1639309","0.0-242.0","","null","<div class=""stimulus-container""><img src=""images/semantic_sequence/maintaining_a_car_semantic/maintaining_a_car_semantic_ten.png"" class=""exp-image""></div>","null","","","","","","","","","","","","",""
"","","","","","html-button-response","243","1639828","0.0-243.0","","518","<div class=""stimulus-container""><img src=""images/semantic_sequence/maintaining_a_car_semantic/maintaining_a_car_semantic_ten.png"" class=""exp-image""><div class=""question-area""><p>Is there a person?</p></div></div>","0","observation","maintaining_a_car_semantic","semantic_sequence","ten","","","","","","","","",""
"","","","","","html-keyboard-response","244","1641830","0.0-244.0","","null","<div style=""background-color: white; width: 100vw; height: 100vh;""></div>","null","","","","","","","","","","","","",""
"","","","","","html-keyboard-response","245","1645832","0.0-245.0","","null","<div class=""stimulus-container""><img src=""images/causal_sequence/saving_a_cat_causal/saving_a_cat_causal_1.png"" class=""exp-image""></div>","null","","","","","","","","","","","","",""
"","","","","","html-button-response","246","1662147","0.0-246.0","","16314","<div class=""stimulus-container""><img src=""images/causal_sequence/saving_a_cat_causal/saving_a_cat_causal_1.png"" class=""exp-image""><div class=""question-area""><p>Is there a person?</p></div></div>","1","observation","saving_a_cat_causal","causal_sequence","1","","","","","","","","",""
"","","","","","html-keyboard-response","247","1666150","0.0-247.0","","null","<div class=""stimulus-container""><img src=""images/causal_sequence/saving_a_cat_causal/saving_a_cat_causal_2.png"" class=""exp-image""></div>","null","","","","","","","","","","","","",""
"","","","","","html-button-response","248","1667042","0.0-248.0","","891","<div class=""stimulus-container""><img src=""images/causal_sequence/saving_a_cat_causal/saving_a_cat_causal_2.png"" class=""exp-image""><div class=""question-area""><p>Is there a person?</p></div></div>","1","observation","saving_a_cat_causal","causal_sequence","2","","","","","","","","",""
"","","","","","html-keyboard-response","249","1671044","0.0-249.0","","null","<div class=""stimulus-container""><img src=""images/causal_sequence/saving_a_cat_causal/saving_a_cat_causal_3.png"" class=""exp-image""></div>","null","","","","","","","","","","","","",""
"","","","","","html-button-response","250","1671627","0.0-250.0","","583","<div class=""stimulus-container""><img src=""images/causal_sequence/saving_a_cat_causal/saving_a_cat_causal_3.png"" class=""exp-image""><div class=""question-area""><p>Is there a person?</p></div></div>","1","observation","saving_a_cat_causal","causal_sequence","3","","","","","","","","",""
"","","","","","html-keyboard-response","251","1675630","0.0-251.0","","null","<div class=""stimulus-container""><img src=""images/causal_sequence/saving_a_cat_causal/saving_a_cat_causal_4.png"" class=""exp-image""></div>","null","","","","","","","","","","","","",""
"","","","","","html-button-response","252","1676257","0.0-252.0","","626","<div class=""stimulus-container""><img src=""images/causal_sequence/saving_a_cat_causal/saving_a_cat_causal_4.png"" class=""exp-image""><div class=""question-area""><p>Is there a person?</p></div></div>","1","observation","saving_a_cat_causal","causal_sequence","4","","","","","","","","",""
"","","","","","html-keyboard-response","253","1680259","0.0-253.0","","null","<div class=""stimulus-container""><img src=""images/causal_sequence/saving_a_cat_causal/saving_a_cat_causal_5.png"" class=""exp-image""></div>","null","","","","","","","","","","","","",""
"","","","","","html-button-response","254","1689843","0.0-254.0","","9583","<div class=""stimulus-container""><img src=""images/causal_sequence/saving_a_cat_causal/saving_a_cat_causal_5.png"" class=""exp-image""><div class=""question-area""><p>Is there a person?</p></div></div>","0","observation","saving_a_cat_causal","causal_sequence","5","","","","","","","","",""
"","","","","","html-keyboard-response","255","1693845","0.0-255.0","","null","<div class=""stimulus-container""><img src=""images/causal_sequence/saving_a_cat_causal/saving_a_cat_causal_6.png"" class=""exp-image""></div>","null","","","","","","","","","","","","",""
"","","","","","html-button-response","256","1697541","0.0-256.0","","3695","<div class=""stimulus-container""><img src=""images/causal_sequence/saving_a_cat_causal/saving_a_cat_causal_6.png"" class=""exp-image""><div class=""question-area""><p>Is there a person?</p></div></div>","1","observation","saving_a_cat_causal","causal_sequence","6","","","","","","","","",""
"","","","","","html-keyboard-response","257","1701543","0.0-257.0","","null","<div class=""stimulus-container""><img src=""images/causal_sequence/saving_a_cat_causal/saving_a_cat_causal_7.png"" class=""exp-image""></div>","null","","","","","","","","","","","","",""
"","","","","","html-button-response","258","1705104","0.0-258.0","","3559","<div class=""stimulus-container""><img src=""images/causal_sequence/saving_a_cat_causal/saving_a_cat_causal_7.png"" class=""exp-image""><div class=""question-area""><p>Is there a person?</p></div></div>","1","observation","saving_a_cat_causal","causal_sequence","7","","","","","","","","",""
"","","","","","html-keyboard-response","259","1709106","0.0-259.0","","null","<div class=""stimulus-container""><img src=""images/causal_sequence/saving_a_cat_causal/saving_a_cat_causal_8.png"" class=""exp-image""></div>","null","","","","","","","","","","","","",""
"","","","","","html-button-response","260","1711097","0.0-260.0","","1990","<div class=""stimulus-container""><img src=""images/causal_sequence/saving_a_cat_causal/saving_a_cat_causal_8.png"" class=""exp-image""><div class=""question-area""><p>Is there a person?</p></div></div>","1","observation","saving_a_cat_causal","causal_sequence","8","","","","","","","","",""
"","","","","","html-keyboard-response","261","1715100","0.0-261.0","","null","<div class=""stimulus-container""><img src=""images/causal_sequence/saving_a_cat_causal/saving_a_cat_causal_9.png"" class=""exp-image""></div>","null","","","","","","","","","","","","",""
"","","","","","html-button-response","262","1717525","0.0-262.0","","2424","<div class=""stimulus-container""><img src=""images/causal_sequence/saving_a_cat_causal/saving_a_cat_causal_9.png"" class=""exp-image""><div class=""question-area""><p>Is there a person?</p></div></div>","1","observation","saving_a_cat_causal","causal_sequence","9","","","","","","","","",""
"","","","","","html-keyboard-response","263","1721528","0.0-263.0","","null","<div class=""stimulus-container""><img src=""images/causal_sequence/saving_a_cat_causal/saving_a_cat_causal_ten.png"" class=""exp-image""></div>","null","","","","","","","","","","","","",""
"","","","","","html-button-response","264","1723525","0.0-264.0","","1997","<div class=""stimulus-container""><img src=""images/causal_sequence/saving_a_cat_causal/saving_a_cat_causal_ten.png"" class=""exp-image""><div class=""question-area""><p>Is there a person?</p></div></div>","1","observation","saving_a_cat_causal","causal_sequence","ten","","","","","","","","",""
"","","","","","instructions","265","1729322","0.0-265.0","[{""page_index"":0,""viewing_time"":5795}]","5795","","","","","","","","","","","","","","",""
"","","","","","html-button-response","266","1734845","0.0-266.0","","5521","<div class=""stimulus-container""><img src=""images/causal_sequence/saving_a_cat_causal/saving_a_cat_causal_4.png"" class=""exp-image""><div style=""height:100px;""></div></div>","0","","","","","","","","","","","","",""
"","","","","","html-keyboard-response","267","1738847","0.0-267.0","","null","
                <div class=""stimulus-container"" style=""display:flex; align-items:center; justify-content:center; gap:40px;"">
                    <img src=""images/causal_sequence/saving_a_cat_causal/saving_a_cat_causal_4.png"" class=""exp-image"">
                    <div style=""text-align:center;"">
                        <img src=""images/dollar.png"" style=""width:150px; border:5px solid green; border-radius:15px;"">
                        <p style=""color:green; font-weight:bold; font-size:28px;"">WORTH MONEY</p>
                    </div>
                </div>","null","value_learning","saving_a_cat_causal","","","valuable","4","","","","","","",""
"","","","","","html-button-response","268","1740351","0.0-268.0","","1503","<div class=""stimulus-container""><img src=""images/semantic_sequence/physical_activity_semantic/physical_activity_semantic_4.png"" class=""exp-image""><div style=""height:100px;""></div></div>","0","","","","","","","","","","","","",""
"","","","","","html-keyboard-response","269","1744353","0.0-269.0","","null","
                <div class=""stimulus-container"" style=""display:flex; align-items:center; justify-content:center; gap:40px;"">
                    <img src=""images/semantic_sequence/physical_activity_semantic/physical_activity_semantic_4.png"" class=""exp-image"">
                    <div style=""text-align:center;"">
                        <img src=""images/gray.png"" style=""width:150px; border:5px solid grey; border-radius:15px;"">
                        <p style=""color:grey; font-weight:bold; font-size:28px;"">NEUTRAL</p>
                    </div>
                </div>","null","value_learning","physical_activity_semantic","","","neutral","4","","","","","","",""
"","","","","","html-button-response","270","1745824","0.0-270.0","","1469","<div class=""stimulus-container""><img src=""images/causal_sequence/the_performance_causal/the_performance_causal_7.png"" class=""exp-image""><div style=""height:100px;""></div></div>","0","","","","","","","","","","","","",""
"","","","","","html-keyboard-response","271","1749826","0.0-271.0","","null","
                <div class=""stimulus-container"" style=""display:flex; align-items:center; justify-content:center; gap:40px;"">
                    <img src=""images/causal_sequence/the_performance_causal/the_performance_causal_7.png"" class=""exp-image"">
                    <div style=""text-align:center;"">
                        <img src=""images/gray.png"" style=""width:150px; border:5px solid grey; border-radius:15px;"">
                        <p style=""color:grey; font-weight:bold; font-size:28px;"">NEUTRAL</p>
                    </div>
                </div>","null","value_learning","the_performance_causal","","","neutral","7","","","","","","",""
"","","","","","html-button-response","272","1752051","0.0-272.0","","2223","<div class=""stimulus-container""><img src=""images/semantic_sequence/maintaining_a_car_semantic/maintaining_a_car_semantic_4.png"" class=""exp-image""><div style=""height:100px;""></div></div>","0","","","","","","","","","","","","",""
"","","","","","html-keyboard-response","273","1756053","0.0-273.0","","null","
                <div class=""stimulus-container"" style=""display:flex; align-items:center; justify-content:center; gap:40px;"">
                    <img src=""images/semantic_sequence/maintaining_a_car_semantic/maintaining_a_car_semantic_4.png"" class=""exp-image"">
                    <div style=""text-align:center;"">
                        <img src=""images/gray.png"" style=""width:150px; border:5px solid grey; border-radius:15px;"">
                        <p style=""color:grey; font-weight:bold; font-size:28px;"">NEUTRAL</p>
                    </div>
                </div>","null","value_learning","maintaining_a_car_semantic","","","neutral","4","","","","","","",""
"","","","","","html-button-response","274","1787601","0.0-274.0","","31547","<div class=""stimulus-container""><img src=""images/semantic_sequence/self_care_activities_semantic/self_care_activities_semantic_5.png"" class=""exp-image""><div style=""height:100px;""></div></div>","0","","","","","","","","","","","","",""
"","","","","","html-keyboard-response","275","1791604","0.0-275.0","","null","
                <div class=""stimulus-container"" style=""display:flex; align-items:center; justify-content:center; gap:40px;"">
                    <img src=""images/semantic_sequence/self_care_activities_semantic/self_care_activities_semantic_5.png"" class=""exp-image"">
                    <div style=""text-align:center;"">
                        <img src=""images/dollar.png"" style=""width:150px; border:5px solid green; border-radius:15px;"">
                        <p style=""color:green; font-weight:bold; font-size:28px;"">WORTH MONEY</p>
                    </div>
                </div>","null","value_learning","self_care_activities_semantic","","","valuable","5","","","","","","",""
"","","","","","html-button-response","276","1795663","0.0-276.0","","4058","<div class=""stimulus-container""><img src=""images/causal_sequence/coin_causal/coin_causal_4.png"" class=""exp-image""><div style=""height:100px;""></div></div>","0","","","","","","","","","","","","",""
"","","","","","html-keyboard-response","277","1799665","0.0-277.0","","null","
                <div class=""stimulus-container"" style=""display:flex; align-items:center; justify-content:center; gap:40px;"">
                    <img src=""images/causal_sequence/coin_causal/coin_causal_4.png"" class=""exp-image"">
                    <div style=""text-align:center;"">
                        <img src=""images/dollar.png"" style=""width:150px; border:5px solid green; border-radius:15px;"">
                        <p style=""color:green; font-weight:bold; font-size:28px;"">WORTH MONEY</p>
                    </div>
                </div>","null","value_learning","coin_causal","","","valuable","4","","","","","","",""
"","","","","","html-button-response","278","1833237","0.0-278.0","","33570","<div class=""stimulus-container""><img src=""images/causal_sequence/package_causal/package_causal_7.png"" class=""exp-image""><div style=""height:100px;""></div></div>","0","","","","","","","","","","","","",""
"","","","","","html-keyboard-response","279","1837239","0.0-279.0","","null","
                <div class=""stimulus-container"" style=""display:flex; align-items:center; justify-content:center; gap:40px;"">
                    <img src=""images/causal_sequence/package_causal/package_causal_7.png"" class=""exp-image"">
                    <div style=""text-align:center;"">
                        <img src=""images/gray.png"" style=""width:150px; border:5px solid grey; border-radius:15px;"">
                        <p style=""color:grey; font-weight:bold; font-size:28px;"">NEUTRAL</p>
                    </div>
                </div>","null","value_learning","package_causal","","","neutral","7","","","","","","",""
"","","","","","html-button-response","280","1853111","0.0-280.0","","15870","<div class=""stimulus-container""><img src=""images/causal_sequence/dog_causal/dog_causal_7.png"" class=""exp-image""><div style=""height:100px;""></div></div>","0","","","","","","","","","","","","",""
"","","","","","html-keyboard-response","281","1857113","0.0-281.0","","null","
                <div class=""stimulus-container"" style=""display:flex; align-items:center; justify-content:center; gap:40px;"">
                    <img src=""images/causal_sequence/dog_causal/dog_causal_7.png"" class=""exp-image"">
                    <div style=""text-align:center;"">
                        <img src=""images/gray.png"" style=""width:150px; border:5px solid grey; border-radius:15px;"">
                        <p style=""color:grey; font-weight:bold; font-size:28px;"">NEUTRAL</p>
                    </div>
                </div>","null","value_learning","dog_causal","","","neutral","7","","","","","","",""
"","","","","","html-button-response","282","1877803","0.0-282.0","","20690","<div class=""stimulus-container""><img src=""images/semantic_sequence/visiting_cities_semantic/visiting_cities_semantic_5.png"" class=""exp-image""><div style=""height:100px;""></div></div>","0","","","","","","","","","","","","",""
"","","","","","html-keyboard-response","283","1881806","0.0-283.0","","null","
                <div class=""stimulus-container"" style=""display:flex; align-items:center; justify-content:center; gap:40px;"">
                    <img src=""images/semantic_sequence/visiting_cities_semantic/visiting_cities_semantic_5.png"" class=""exp-image"">
                    <div style=""text-align:center;"">
                        <img src=""images/dollar.png"" style=""width:150px; border:5px solid green; border-radius:15px;"">
                        <p style=""color:green; font-weight:bold; font-size:28px;"">WORTH MONEY</p>
                    </div>
                </div>","null","value_learning","visiting_cities_semantic","","","valuable","5","","","","","","",""
"","","","","","html-button-response","284","1973592","0.0-284.0","","91785","<div class=""stimulus-container""><img src=""images/semantic_sequence/kitchen_operations_semantic/kitchen_operations_semantic_6.png"" class=""exp-image""><div style=""height:100px;""></div></div>","0","","","","","","","","","","","","",""
"","","","","","html-keyboard-response","285","1977595","0.0-285.0","","null","
                <div class=""stimulus-container"" style=""display:flex; align-items:center; justify-content:center; gap:40px;"">
                    <img src=""images/semantic_sequence/kitchen_operations_semantic/kitchen_operations_semantic_6.png"" class=""exp-image"">
                    <div style=""text-align:center;"">
                        <img src=""images/gray.png"" style=""width:150px; border:5px solid grey; border-radius:15px;"">
                        <p style=""color:grey; font-weight:bold; font-size:28px;"">NEUTRAL</p>
                    </div>
                </div>","null","value_learning","kitchen_operations_semantic","","","neutral","6","","","","","","",""
"","","","","","html-button-response","286","1998853","0.0-286.0","","21256","<div class=""stimulus-container""><img src=""images/causal_sequence/museum_causal/museum_causal_5.png"" class=""exp-image""><div style=""height:100px;""></div></div>","0","","","","","","","","","","","","",""
"","","","","","html-keyboard-response","287","2002854","0.0-287.0","","null","
                <div class=""stimulus-container"" style=""display:flex; align-items:center; justify-content:center; gap:40px;"">
                    <img src=""images/causal_sequence/museum_causal/museum_causal_5.png"" class=""exp-image"">
                    <div style=""text-align:center;"">
                        <img src=""images/dollar.png"" style=""width:150px; border:5px solid green; border-radius:15px;"">
                        <p style=""color:green; font-weight:bold; font-size:28px;"">WORTH MONEY</p>
                    </div>
                </div>","null","value_learning","museum_causal","","","valuable","5","","","","","","",""
"","","","","","html-button-response","288","2022996","0.0-288.0","","20141","<div class=""stimulus-container""><img src=""images/semantic_sequence/housework_semantic/housework_semantic_6.png"" class=""exp-image""><div style=""height:100px;""></div></div>","0","","","","","","","","","","","","",""
"","","","","","html-keyboard-response","289","2026998","0.0-289.0","","null","
                <div class=""stimulus-container"" style=""display:flex; align-items:center; justify-content:center; gap:40px;"">
                    <img src=""images/semantic_sequence/housework_semantic/housework_semantic_6.png"" class=""exp-image"">
                    <div style=""text-align:center;"">
                        <img src=""images/dollar.png"" style=""width:150px; border:5px solid green; border-radius:15px;"">
                        <p style=""color:green; font-weight:bold; font-size:28px;"">WORTH MONEY</p>
                    </div>
                </div>","null","value_learning","housework_semantic","","","valuable","6","","","","","","",""
"","","","","","instructions","290","2207055","0.0-290.0","[{""page_index"":0,""viewing_time"":180056}]","180056","","","","","","","","","","","","","","",""
"","","","","","html-keyboard-response","291","2210058","0.0-291.0-0.0","","null","<div class=""stimulus-container"" style=""display:flex; gap:30px; justify-content:center;"">
                                    <img src=""images/semantic_sequence/visiting_cities_semantic/visiting_cities_semantic_5.png"" class=""small-image"">
                                    <img src=""images/semantic_sequence/kitchen_operations_semantic/kitchen_operations_semantic_5.png"" class=""small-image"">
                                </div>","null","","","","","","","","","","","","",""
"","","","","","html-button-response","292","2211915","0.0-291.0-1.0","","1856","<h3>Which is worth more money?</h3>","0","cross_block_test","","","","","","true","","","","","",""
"","","","","","html-keyboard-response","293","2214920","0.0-292.0-0.0","","null","<div style=""font-family: Arial; margin-bottom: 20px;""><h3>Which image is worth <b>more money</b>?</h3></div>
                                    <div class=""stimulus-container"" style=""display: flex; width: 800px; justify-content: center; gap: 30px;"">
                                        <img src=""images/semantic_sequence/housework_semantic/housework_semantic_7.png"" class=""small-image"">
                                        <img src=""images/semantic_sequence/housework_semantic/housework_semantic_4.png"" class=""small-image"">
                                    </div>","null","","","","","","","","","","","","",""
"","","","","","html-button-response","294","2216056","0.0-292.0-1.0","","1135","<h3>Which image is worth <b>more money</b>?</h3>","0","choice_test","housework_semantic","","","","","","6","1","-2","7","1","1"
"","","","","","html-keyboard-response","295","2219059","0.0-293.0-0.0","","null","<div class=""stimulus-container"" style=""display:flex; gap:30px; justify-content:center;"">
                                    <img src=""images/semantic_sequence/physical_activity_semantic/physical_activity_semantic_5.png"" class=""small-image"">
                                    <img src=""images/causal_sequence/coin_causal/coin_causal_5.png"" class=""small-image"">
                                </div>","null","","","","","","","","","","","","",""
"","","","","","html-button-response","296","2219771","0.0-293.0-1.0","","711","<h3>Which is worth more money?</h3>","0","cross_block_test","","","","","","false","","","","","",""
"","","","","","html-keyboard-response","297","2222774","0.0-294.0-0.0","","null","<div style=""font-family: Arial; margin-bottom: 20px;""><h3>Which image is worth <b>more money</b>?</h3></div>
                                    <div class=""stimulus-container"" style=""display: flex; width: 800px; justify-content: center; gap: 30px;"">
                                        <img src=""images/causal_sequence/the_performance_causal/the_performance_causal_6.png"" class=""small-image"">
                                        <img src=""images/causal_sequence/the_performance_causal/the_performance_causal_ten.png"" class=""small-image"">
                                    </div>","null","","","","","","","","","","","","",""
"","","","","","html-button-response","298","2223516","0.0-294.0-1.0","","741","<h3>Which image is worth <b>more money</b>?</h3>","1","choice_test","the_performance_causal","","","","","","7","-1","3","10","3","1"
"","","","","","html-keyboard-response","299","2226519","0.0-295.0-0.0","","null","<div style=""font-family: Arial; margin-bottom: 20px;""><h3>Which image is worth <b>more money</b>?</h3></div>
                                    <div class=""stimulus-container"" style=""display: flex; width: 800px; justify-content: center; gap: 30px;"">
                                        <img src=""images/causal_sequence/coin_causal/coin_causal_6.png"" class=""small-image"">
                                        <img src=""images/causal_sequence/coin_causal/coin_causal_1.png"" class=""small-image"">
