"success","timeout","failed_images","failed_audio","failed_video","trial_type","trial_index","time_elapsed","internal_node_id","subject_id","study_id","session_id","view_history","rt","stimulus","response","task","image_index","folder","sequence_type","presentation_order","valuable_image_index","reward_type","distance_from_x","target_X","chosen_image_index","is_x_plus_dist","correct_choice"
"true","false","[]","[]","[]","preload","0","351898","0.0-0.0","113710B7E64C4F6EA692CFEB8C6E6A29","019d065b-b445-7a7f-b554-8f43d7eb264a","019d0640-0a2d-7740-a972-9c73365b2dcb","","","","","","","","","","","","","","","",""
"","","","","","instructions","1","361156","0.0-1.0","113710B7E64C4F6EA692CFEB8C6E6A29","019d065b-b445-7a7f-b554-8f43d7eb264a","019d0640-0a2d-7740-a972-9c73365b2dcb","[{""page_index"":0,""viewing_time"":9257}]","9257","","","","","","","","","","","","","",""
"","","","","","instructions","2","393211","0.0-2.0","113710B7E64C4F6EA692CFEB8C6E6A29","019d065b-b445-7a7f-b554-8f43d7eb264a","019d0640-0a2d-7740-a972-9c73365b2dcb","[{""page_index"":0,""viewing_time"":32055}]","32055","","","","","","","","","","","","","",""
"true","","","","","fullscreen","3","397664","0.0-3.0","113710B7E64C4F6EA692CFEB8C6E6A29","019d065b-b445-7a7f-b554-8f43d7eb264a","019d0640-0a2d-7740-a972-9c73365b2dcb","","3444","","","","","","","","","","","","","",""
"","","","","","instructions","4","415170","0.0-4.0","113710B7E64C4F6EA692CFEB8C6E6A29","019d065b-b445-7a7f-b554-8f43d7eb264a","019d0640-0a2d-7740-a972-9c73365b2dcb","[{""page_index"":0,""viewing_time"":17506}]","17506","","","","","","","","","","","","","",""
"","","","","","instructions","5","430563","0.0-5.0","113710B7E64C4F6EA692CFEB8C6E6A29","019d065b-b445-7a7f-b554-8f43d7eb264a","019d0640-0a2d-7740-a972-9c73365b2dcb","[{""page_index"":0,""viewing_time"":15392}]","15392","","","","","","","","","","","","","",""
"","","","","","html-keyboard-response","6","434565","0.0-6.0","113710B7E64C4F6EA692CFEB8C6E6A29","019d065b-b445-7a7f-b554-8f43d7eb264a","019d0640-0a2d-7740-a972-9c73365b2dcb","","null","
                <div class=""stimulus-container"">
                    <img src=""images/instructions/movie_1.png"" class=""exp-image"">
                    <div class=""question-area""></div> 
                </div>","null","","","","","","","","","","","",""
"","","","","","html-button-response","7","437567","0.0-7.0","113710B7E64C4F6EA692CFEB8C6E6A29","019d065b-b445-7a7f-b554-8f43d7eb264a","019d0640-0a2d-7740-a972-9c73365b2dcb","","null","
                <div class=""stimulus-container"">
                    <img src=""images/instructions/movie_1.png"" class=""exp-image"">
                    <div class=""question-area"">
                        <p style=""font-size: 20px; font-weight: bold; margin: 0;"">Was there a person in this image?</p>
                    </div>
                </div>","null","example_question","1","","","","","","","","","",""
"","","","","","html-keyboard-response","8","441569","0.0-8.0","113710B7E64C4F6EA692CFEB8C6E6A29","019d065b-b445-7a7f-b554-8f43d7eb264a","019d0640-0a2d-7740-a972-9c73365b2dcb","","null","
                <div class=""stimulus-container"">
                    <img src=""images/instructions/movie_2.png"" class=""exp-image"">
                    <div class=""question-area""></div> 
                </div>","null","","","","","","","","","","","",""
"","","","","","html-button-response","9","442562","0.0-9.0","113710B7E64C4F6EA692CFEB8C6E6A29","019d065b-b445-7a7f-b554-8f43d7eb264a","019d0640-0a2d-7740-a972-9c73365b2dcb","","992","
                <div class=""stimulus-container"">
                    <img src=""images/instructions/movie_2.png"" class=""exp-image"">
                    <div class=""question-area"">
                        <p style=""font-size: 20px; font-weight: bold; margin: 0;"">Was there a person in this image?</p>
                    </div>
                </div>","0","example_question","2","","","","","","","","","",""
"","","","","","html-keyboard-response","10","446563","0.0-10.0","113710B7E64C4F6EA692CFEB8C6E6A29","019d065b-b445-7a7f-b554-8f43d7eb264a","019d0640-0a2d-7740-a972-9c73365b2dcb","","null","
                <div class=""stimulus-container"">
                    <img src=""images/instructions/movie_3.png"" class=""exp-image"">
                    <div class=""question-area""></div> 
                </div>","null","","","","","","","","","","","",""
"","","","","","html-button-response","11","447403","0.0-11.0","113710B7E64C4F6EA692CFEB8C6E6A29","019d065b-b445-7a7f-b554-8f43d7eb264a","019d0640-0a2d-7740-a972-9c73365b2dcb","","838","
                <div class=""stimulus-container"">
                    <img src=""images/instructions/movie_3.png"" class=""exp-image"">
                    <div class=""question-area"">
                        <p style=""font-size: 20px; font-weight: bold; margin: 0;"">Was there a person in this image?</p>
                    </div>
                </div>","0","example_question","3","","","","","","","","","",""
"","","","","","html-keyboard-response","12","451405","0.0-12.0","113710B7E64C4F6EA692CFEB8C6E6A29","019d065b-b445-7a7f-b554-8f43d7eb264a","019d0640-0a2d-7740-a972-9c73365b2dcb","","null","
                <div class=""stimulus-container"">
                    <img src=""images/instructions/movie_4.png"" class=""exp-image"">
                    <div class=""question-area""></div> 
                </div>","null","","","","","","","","","","","",""
"","","","","","html-button-response","13","452327","0.0-13.0","113710B7E64C4F6EA692CFEB8C6E6A29","019d065b-b445-7a7f-b554-8f43d7eb264a","019d0640-0a2d-7740-a972-9c73365b2dcb","","919","
                <div class=""stimulus-container"">
                    <img src=""images/instructions/movie_4.png"" class=""exp-image"">
                    <div class=""question-area"">
                        <p style=""font-size: 20px; font-weight: bold; margin: 0;"">Was there a person in this image?</p>
                    </div>
                </div>","0","example_question","4","","","","","","","","","",""
"","","","","","instructions","14","455996","0.0-14.0","113710B7E64C4F6EA692CFEB8C6E6A29","019d065b-b445-7a7f-b554-8f43d7eb264a","019d0640-0a2d-7740-a972-9c73365b2dcb","[{""page_index"":0,""viewing_time"":3668}]","3668","","","","","","","","","","","","","",""
"","","","","","instructions","15","462823","0.0-15.0","113710B7E64C4F6EA692CFEB8C6E6A29","019d065b-b445-7a7f-b554-8f43d7eb264a","019d0640-0a2d-7740-a972-9c73365b2dcb","[{""page_index"":0,""viewing_time"":6827}]","6827","","","","","","","","","","","","","",""
"","","","","","html-keyboard-response","16","467824","0.0-16.0","113710B7E64C4F6EA692CFEB8C6E6A29","019d065b-b445-7a7f-b554-8f43d7eb264a","019d0640-0a2d-7740-a972-9c73365b2dcb","","null","<div style=""background-color: white; width: 100vw; height: 100vh;""></div>","null","","","","","","","","","","","",""
"","","","","","html-keyboard-response","17","472825","0.0-17.0","113710B7E64C4F6EA692CFEB8C6E6A29","019d065b-b445-7a7f-b554-8f43d7eb264a","019d0640-0a2d-7740-a972-9c73365b2dcb","","null","
                <div class=""stimulus-container"">
                    <img src=""images/causal_sequence/coin_causal/coin_causal_1.png"" class=""exp-image"">
                    <div class=""question-area""></div> 
                </div>","null","","","","","","","","","","","",""
"","","","","","html-button-response","18","474146","0.0-18.0","113710B7E64C4F6EA692CFEB8C6E6A29","019d065b-b445-7a7f-b554-8f43d7eb264a","019d0640-0a2d-7740-a972-9c73365b2dcb","","1319","
                <div class=""stimulus-container"">
                    <img src=""images/causal_sequence/coin_causal/coin_causal_1.png"" class=""exp-image"">
                    <div class=""question-area"">
                        <p style=""font-size: 20px; font-weight: bold; margin: 0;"">Is there a person in this image?</p>
                    </div>
                </div>","0","main_experiment_trial","1","coin_causal","causal_sequence","chronological","","","","","","",""
"","","","","","html-keyboard-response","19","479148","0.0-19.0","113710B7E64C4F6EA692CFEB8C6E6A29","019d065b-b445-7a7f-b554-8f43d7eb264a","019d0640-0a2d-7740-a972-9c73365b2dcb","","null","
                <div class=""stimulus-container"">
                    <img src=""images/causal_sequence/coin_causal/coin_causal_2.png"" class=""exp-image"">
                    <div class=""question-area""></div> 
                </div>","null","","","","","","","","","","","",""
"","","","","","html-button-response","20","480042","0.0-20.0","113710B7E64C4F6EA692CFEB8C6E6A29","019d065b-b445-7a7f-b554-8f43d7eb264a","019d0640-0a2d-7740-a972-9c73365b2dcb","","892","
                <div class=""stimulus-container"">
                    <img src=""images/causal_sequence/coin_causal/coin_causal_2.png"" class=""exp-image"">
                    <div class=""question-area"">
                        <p style=""font-size: 20px; font-weight: bold; margin: 0;"">Is there a person in this image?</p>
                    </div>
                </div>","0","main_experiment_trial","2","coin_causal","causal_sequence","chronological","","","","","","",""
"","","","","","html-keyboard-response","21","485043","0.0-21.0","113710B7E64C4F6EA692CFEB8C6E6A29","019d065b-b445-7a7f-b554-8f43d7eb264a","019d0640-0a2d-7740-a972-9c73365b2dcb","","null","
                <div class=""stimulus-container"">
                    <img src=""images/causal_sequence/coin_causal/coin_causal_3.png"" class=""exp-image"">
                    <div class=""question-area""></div> 
                </div>","null","","","","","","","","","","","",""
"","","","","","html-button-response","22","485836","0.0-22.0","113710B7E64C4F6EA692CFEB8C6E6A29","019d065b-b445-7a7f-b554-8f43d7eb264a","019d0640-0a2d-7740-a972-9c73365b2dcb","","791","
                <div class=""stimulus-container"">
                    <img src=""images/causal_sequence/coin_causal/coin_causal_3.png"" class=""exp-image"">
                    <div class=""question-area"">
                        <p style=""font-size: 20px; font-weight: bold; margin: 0;"">Is there a person in this image?</p>
                    </div>
                </div>","0","main_experiment_trial","3","coin_causal","causal_sequence","chronological","","","","","","",""
"","","","","","html-keyboard-response","23","490837","0.0-23.0","113710B7E64C4F6EA692CFEB8C6E6A29","019d065b-b445-7a7f-b554-8f43d7eb264a","019d0640-0a2d-7740-a972-9c73365b2dcb","","null","
                <div class=""stimulus-container"">
                    <img src=""images/causal_sequence/coin_causal/coin_causal_4.png"" class=""exp-image"">
                    <div class=""question-area""></div> 
                </div>","null","","","","","","","","","","","",""
"","","","","","html-button-response","24","491562","0.0-24.0","113710B7E64C4F6EA692CFEB8C6E6A29","019d065b-b445-7a7f-b554-8f43d7eb264a","019d0640-0a2d-7740-a972-9c73365b2dcb","","723","
                <div class=""stimulus-container"">
                    <img src=""images/causal_sequence/coin_causal/coin_causal_4.png"" class=""exp-image"">
                    <div class=""question-area"">
                        <p style=""font-size: 20px; font-weight: bold; margin: 0;"">Is there a person in this image?</p>
                    </div>
                </div>","0","main_experiment_trial","4","coin_causal","causal_sequence","chronological","","","","","","",""
"","","","","","html-keyboard-response","25","496563","0.0-25.0","113710B7E64C4F6EA692CFEB8C6E6A29","019d065b-b445-7a7f-b554-8f43d7eb264a","019d0640-0a2d-7740-a972-9c73365b2dcb","","null","
                <div class=""stimulus-container"">
                    <img src=""images/causal_sequence/coin_causal/coin_causal_5.png"" class=""exp-image"">
                    <div class=""question-area""></div> 
                </div>","null","","","","","","","","","","","",""
"","","","","","html-button-response","26","497029","0.0-26.0","113710B7E64C4F6EA692CFEB8C6E6A29","019d065b-b445-7a7f-b554-8f43d7eb264a","019d0640-0a2d-7740-a972-9c73365b2dcb","","465","
                <div class=""stimulus-container"">
                    <img src=""images/causal_sequence/coin_causal/coin_causal_5.png"" class=""exp-image"">
                    <div class=""question-area"">
                        <p style=""font-size: 20px; font-weight: bold; margin: 0;"">Is there a person in this image?</p>
                    </div>
                </div>","0","main_experiment_trial","5","coin_causal","causal_sequence","chronological","","","","","","",""
"","","","","","html-keyboard-response","27","502030","0.0-27.0","113710B7E64C4F6EA692CFEB8C6E6A29","019d065b-b445-7a7f-b554-8f43d7eb264a","019d0640-0a2d-7740-a972-9c73365b2dcb","","null","
                <div class=""stimulus-container"">
                    <img src=""images/causal_sequence/coin_causal/coin_causal_6.png"" class=""exp-image"">
                    <div class=""question-area""></div> 
                </div>","null","","","","","","","","","","","",""
"","","","","","html-button-response","28","502590","0.0-28.0","113710B7E64C4F6EA692CFEB8C6E6A29","019d065b-b445-7a7f-b554-8f43d7eb264a","019d0640-0a2d-7740-a972-9c73365b2dcb","","559","
                <div class=""stimulus-container"">
                    <img src=""images/causal_sequence/coin_causal/coin_causal_6.png"" class=""exp-image"">
                    <div class=""question-area"">
                        <p style=""font-size: 20px; font-weight: bold; margin: 0;"">Is there a person in this image?</p>
                    </div>
                </div>","0","main_experiment_trial","6","coin_causal","causal_sequence","chronological","","","","","","",""
"","","","","","html-keyboard-response","29","507592","0.0-29.0","113710B7E64C4F6EA692CFEB8C6E6A29","019d065b-b445-7a7f-b554-8f43d7eb264a","019d0640-0a2d-7740-a972-9c73365b2dcb","","null","
                <div class=""stimulus-container"">
                    <img src=""images/causal_sequence/coin_causal/coin_causal_7.png"" class=""exp-image"">
                    <div class=""question-area""></div> 
                </div>","null","","","","","","","","","","","",""
"","","","","","html-button-response","30","508572","0.0-30.0","113710B7E64C4F6EA692CFEB8C6E6A29","019d065b-b445-7a7f-b554-8f43d7eb264a","019d0640-0a2d-7740-a972-9c73365b2dcb","","979","
                <div class=""stimulus-container"">
                    <img src=""images/causal_sequence/coin_causal/coin_causal_7.png"" class=""exp-image"">
                    <div class=""question-area"">
                        <p style=""font-size: 20px; font-weight: bold; margin: 0;"">Is there a person in this image?</p>
                    </div>
                </div>","1","main_experiment_trial","7","coin_causal","causal_sequence","chronological","","","","","","",""
"","","","","","html-keyboard-response","31","513573","0.0-31.0","113710B7E64C4F6EA692CFEB8C6E6A29","019d065b-b445-7a7f-b554-8f43d7eb264a","019d0640-0a2d-7740-a972-9c73365b2dcb","","null","
                <div class=""stimulus-container"">
                    <img src=""images/causal_sequence/coin_causal/coin_causal_8.png"" class=""exp-image"">
                    <div class=""question-area""></div> 
                </div>","null","","","","","","","","","","","",""
"","","","","","html-button-response","32","514535","0.0-32.0","113710B7E64C4F6EA692CFEB8C6E6A29","019d065b-b445-7a7f-b554-8f43d7eb264a","019d0640-0a2d-7740-a972-9c73365b2dcb","","961","
                <div class=""stimulus-container"">
                    <img src=""images/causal_sequence/coin_causal/coin_causal_8.png"" class=""exp-image"">
                    <div class=""question-area"">
                        <p style=""font-size: 20px; font-weight: bold; margin: 0;"">Is there a person in this image?</p>
                    </div>
                </div>","0","main_experiment_trial","8","coin_causal","causal_sequence","chronological","","","","","","",""
"","","","","","html-keyboard-response","33","519536","0.0-33.0","113710B7E64C4F6EA692CFEB8C6E6A29","019d065b-b445-7a7f-b554-8f43d7eb264a","019d0640-0a2d-7740-a972-9c73365b2dcb","","null","
                <div class=""stimulus-container"">
                    <img src=""images/causal_sequence/coin_causal/coin_causal_9.png"" class=""exp-image"">
                    <div class=""question-area""></div> 
                </div>","null","","","","","","","","","","","",""
"","","","","","html-button-response","34","520621","0.0-34.0","113710B7E64C4F6EA692CFEB8C6E6A29","019d065b-b445-7a7f-b554-8f43d7eb264a","019d0640-0a2d-7740-a972-9c73365b2dcb","","1084","
                <div class=""stimulus-container"">
                    <img src=""images/causal_sequence/coin_causal/coin_causal_9.png"" class=""exp-image"">
                    <div class=""question-area"">
                        <p style=""font-size: 20px; font-weight: bold; margin: 0;"">Is there a person in this image?</p>
                    </div>
                </div>","0","main_experiment_trial","9","coin_causal","causal_sequence","chronological","","","","","","",""
"","","","","","html-keyboard-response","35","525623","0.0-35.0","113710B7E64C4F6EA692CFEB8C6E6A29","019d065b-b445-7a7f-b554-8f43d7eb264a","019d0640-0a2d-7740-a972-9c73365b2dcb","","null","
                <div class=""stimulus-container"">
                    <img src=""images/causal_sequence/coin_causal/coin_causal_ten.png"" class=""exp-image"">
                    <div class=""question-area""></div> 
                </div>","null","","","","","","","","","","","",""
"","","","","","html-button-response","36","526474","0.0-36.0","113710B7E64C4F6EA692CFEB8C6E6A29","019d065b-b445-7a7f-b554-8f43d7eb264a","019d0640-0a2d-7740-a972-9c73365b2dcb","","850","
                <div class=""stimulus-container"">
                    <img src=""images/causal_sequence/coin_causal/coin_causal_ten.png"" class=""exp-image"">
                    <div class=""question-area"">
                        <p style=""font-size: 20px; font-weight: bold; margin: 0;"">Is there a person in this image?</p>
                    </div>
                </div>","0","main_experiment_trial","ten","coin_causal","causal_sequence","chronological","","","","","","",""
"","","","","","html-keyboard-response","37","531475","0.0-37.0","113710B7E64C4F6EA692CFEB8C6E6A29","019d065b-b445-7a7f-b554-8f43d7eb264a","019d0640-0a2d-7740-a972-9c73365b2dcb","","null","<div style=""background-color: white; width: 100vw; height: 100vh;""></div>","null","","","","","","","","","","","",""
"","","","","","html-keyboard-response","38","536477","0.0-38.0","113710B7E64C4F6EA692CFEB8C6E6A29","019d065b-b445-7a7f-b554-8f43d7eb264a","019d0640-0a2d-7740-a972-9c73365b2dcb","","null","
                <div class=""stimulus-container"">
                    <img src=""images/schematic_sequence/dinner_party_scheme/dinner_party_scheme_1.png"" class=""exp-image"">
                    <div class=""question-area""></div> 
                </div>","null","","","","","","","","","","","",""
"","","","","","html-button-response","39","537413","0.0-39.0","113710B7E64C4F6EA692CFEB8C6E6A29","019d065b-b445-7a7f-b554-8f43d7eb264a","019d0640-0a2d-7740-a972-9c73365b2dcb","","935","
                <div class=""stimulus-container"">
                    <img src=""images/schematic_sequence/dinner_party_scheme/dinner_party_scheme_1.png"" class=""exp-image"">
                    <div class=""question-area"">
                        <p style=""font-size: 20px; font-weight: bold; margin: 0;"">Is there a person in this image?</p>
                    </div>
                </div>","0","main_experiment_trial","1","dinner_party_scheme","schematic_sequence","chronological","","","","","","",""
"","","","","","html-keyboard-response","40","542414","0.0-40.0","113710B7E64C4F6EA692CFEB8C6E6A29","019d065b-b445-7a7f-b554-8f43d7eb264a","019d0640-0a2d-7740-a972-9c73365b2dcb","","null","
                <div class=""stimulus-container"">
                    <img src=""images/schematic_sequence/dinner_party_scheme/dinner_party_scheme_2.png"" class=""exp-image"">
                    <div class=""question-area""></div> 
                </div>","null","","","","","","","","","","","",""
"","","","","","html-button-response","41","543188","0.0-41.0","113710B7E64C4F6EA692CFEB8C6E6A29","019d065b-b445-7a7f-b554-8f43d7eb264a","019d0640-0a2d-7740-a972-9c73365b2dcb","","772","
                <div class=""stimulus-container"">
                    <img src=""images/schematic_sequence/dinner_party_scheme/dinner_party_scheme_2.png"" class=""exp-image"">
                    <div class=""question-area"">
                        <p style=""font-size: 20px; font-weight: bold; margin: 0;"">Is there a person in this image?</p>
                    </div>
                </div>","0","main_experiment_trial","2","dinner_party_scheme","schematic_sequence","chronological","","","","","","",""
"","","","","","html-keyboard-response","42","548189","0.0-42.0","113710B7E64C4F6EA692CFEB8C6E6A29","019d065b-b445-7a7f-b554-8f43d7eb264a","019d0640-0a2d-7740-a972-9c73365b2dcb","","null","
                <div class=""stimulus-container"">
                    <img src=""images/schematic_sequence/dinner_party_scheme/dinner_party_scheme_3.png"" class=""exp-image"">
                    <div class=""question-area""></div> 
                </div>","null","","","","","","","","","","","",""
"","","","","","html-button-response","43","549182","0.0-43.0","113710B7E64C4F6EA692CFEB8C6E6A29","019d065b-b445-7a7f-b554-8f43d7eb264a","019d0640-0a2d-7740-a972-9c73365b2dcb","","992","
                <div class=""stimulus-container"">
                    <img src=""images/schematic_sequence/dinner_party_scheme/dinner_party_scheme_3.png"" class=""exp-image"">
                    <div class=""question-area"">
                        <p style=""font-size: 20px; font-weight: bold; margin: 0;"">Is there a person in this image?</p>
                    </div>
                </div>","0","main_experiment_trial","3","dinner_party_scheme","schematic_sequence","chronological","","","","","","",""
"","","","","","html-keyboard-response","44","554184","0.0-44.0","113710B7E64C4F6EA692CFEB8C6E6A29","019d065b-b445-7a7f-b554-8f43d7eb264a","019d0640-0a2d-7740-a972-9c73365b2dcb","","null","
                <div class=""stimulus-container"">
                    <img src=""images/schematic_sequence/dinner_party_scheme/dinner_party_scheme_4.png"" class=""exp-image"">
                    <div class=""question-area""></div> 
                </div>","null","","","","","","","","","","","",""
"","","","","","html-button-response","45","554754","0.0-45.0","113710B7E64C4F6EA692CFEB8C6E6A29","019d065b-b445-7a7f-b554-8f43d7eb264a","019d0640-0a2d-7740-a972-9c73365b2dcb","","569","
                <div class=""stimulus-container"">
                    <img src=""images/schematic_sequence/dinner_party_scheme/dinner_party_scheme_4.png"" class=""exp-image"">
                    <div class=""question-area"">
                        <p style=""font-size: 20px; font-weight: bold; margin: 0;"">Is there a person in this image?</p>
                    </div>
                </div>","0","main_experiment_trial","4","dinner_party_scheme","schematic_sequence","chronological","","","","","","",""
"","","","","","html-keyboard-response","46","559755","0.0-46.0","113710B7E64C4F6EA692CFEB8C6E6A29","019d065b-b445-7a7f-b554-8f43d7eb264a","019d0640-0a2d-7740-a972-9c73365b2dcb","","null","
                <div class=""stimulus-container"">
                    <img src=""images/schematic_sequence/dinner_party_scheme/dinner_party_scheme_5.png"" class=""exp-image"">
                    <div class=""question-area""></div> 
                </div>","null","","","","","","","","","","","",""
"","","","","","html-button-response","47","560484","0.0-47.0","113710B7E64C4F6EA692CFEB8C6E6A29","019d065b-b445-7a7f-b554-8f43d7eb264a","019d0640-0a2d-7740-a972-9c73365b2dcb","","728","
                <div class=""stimulus-container"">
                    <img src=""images/schematic_sequence/dinner_party_scheme/dinner_party_scheme_5.png"" class=""exp-image"">
                    <div class=""question-area"">
                        <p style=""font-size: 20px; font-weight: bold; margin: 0;"">Is there a person in this image?</p>
                    </div>
                </div>","0","main_experiment_trial","5","dinner_party_scheme","schematic_sequence","chronological","","","","","","",""
"","","","","","html-keyboard-response","48","565484","0.0-48.0","113710B7E64C4F6EA692CFEB8C6E6A29","019d065b-b445-7a7f-b554-8f43d7eb264a","019d0640-0a2d-7740-a972-9c73365b2dcb","","null","
                <div class=""stimulus-container"">
                    <img src=""images/schematic_sequence/dinner_party_scheme/dinner_party_scheme_6.png"" class=""exp-image"">
                    <div class=""question-area""></div> 
                </div>","null","","","","","","","","","","","",""
"","","","","","html-button-response","49","566336","0.0-49.0","113710B7E64C4F6EA692CFEB8C6E6A29","019d065b-b445-7a7f-b554-8f43d7eb264a","019d0640-0a2d-7740-a972-9c73365b2dcb","","851","
                <div class=""stimulus-container"">
                    <img src=""images/schematic_sequence/dinner_party_scheme/dinner_party_scheme_6.png"" class=""exp-image"">
                    <div class=""question-area"">
                        <p style=""font-size: 20px; font-weight: bold; margin: 0;"">Is there a person in this image?</p>
                    </div>
                </div>","0","main_experiment_trial","6","dinner_party_scheme","schematic_sequence","chronological","","","","","","",""
"","","","","","html-keyboard-response","50","571337","0.0-50.0","113710B7E64C4F6EA692CFEB8C6E6A29","019d065b-b445-7a7f-b554-8f43d7eb264a","019d0640-0a2d-7740-a972-9c73365b2dcb","","null","
                <div class=""stimulus-container"">
                    <img src=""images/schematic_sequence/dinner_party_scheme/dinner_party_scheme_7.png"" class=""exp-image"">
                    <div class=""question-area""></div> 
                </div>","null","","","","","","","","","","","",""
"","","","","","html-button-response","51","572287","0.0-51.0","113710B7E64C4F6EA692CFEB8C6E6A29","019d065b-b445-7a7f-b554-8f43d7eb264a","019d0640-0a2d-7740-a972-9c73365b2dcb","","949","
                <div class=""stimulus-container"">
                    <img src=""images/schematic_sequence/dinner_party_scheme/dinner_party_scheme_7.png"" class=""exp-image"">
                    <div class=""question-area"">
                        <p style=""font-size: 20px; font-weight: bold; margin: 0;"">Is there a person in this image?</p>
                    </div>
                </div>","0","main_experiment_trial","7","dinner_party_scheme","schematic_sequence","chronological","","","","","","",""
"","","","","","html-keyboard-response","52","577289","0.0-52.0","113710B7E64C4F6EA692CFEB8C6E6A29","019d065b-b445-7a7f-b554-8f43d7eb264a","019d0640-0a2d-7740-a972-9c73365b2dcb","","null","
                <div class=""stimulus-container"">
                    <img src=""images/schematic_sequence/dinner_party_scheme/dinner_party_scheme_8.png"" class=""exp-image"">
                    <div class=""question-area""></div> 
                </div>","null","","","","","","","","","","","",""
"","","","","","html-button-response","53","578070","0.0-53.0","113710B7E64C4F6EA692CFEB8C6E6A29","019d065b-b445-7a7f-b554-8f43d7eb264a","019d0640-0a2d-7740-a972-9c73365b2dcb","","780","
                <div class=""stimulus-container"">
                    <img src=""images/schematic_sequence/dinner_party_scheme/dinner_party_scheme_8.png"" class=""exp-image"">
                    <div class=""question-area"">
                        <p style=""font-size: 20px; font-weight: bold; margin: 0;"">Is there a person in this image?</p>
                    </div>
                </div>","0","main_experiment_trial","8","dinner_party_scheme","schematic_sequence","chronological","","","","","","",""
"","","","","","html-keyboard-response","54","583072","0.0-54.0","113710B7E64C4F6EA692CFEB8C6E6A29","019d065b-b445-7a7f-b554-8f43d7eb264a","019d0640-0a2d-7740-a972-9c73365b2dcb","","null","
                <div class=""stimulus-container"">
                    <img src=""images/schematic_sequence/dinner_party_scheme/dinner_party_scheme_9.png"" class=""exp-image"">
                    <div class=""question-area""></div> 
                </div>","null","","","","","","","","","","","",""
"","","","","","html-button-response","55","584046","0.0-55.0","113710B7E64C4F6EA692CFEB8C6E6A29","019d065b-b445-7a7f-b554-8f43d7eb264a","019d0640-0a2d-7740-a972-9c73365b2dcb","","973","
                <div class=""stimulus-container"">
                    <img src=""images/schematic_sequence/dinner_party_scheme/dinner_party_scheme_9.png"" class=""exp-image"">
                    <div class=""question-area"">
                        <p style=""font-size: 20px; font-weight: bold; margin: 0;"">Is there a person in this image?</p>
                    </div>
                </div>","0","main_experiment_trial","9","dinner_party_scheme","schematic_sequence","chronological","","","","","","",""
"","","","","","html-keyboard-response","56","589047","0.0-56.0","113710B7E64C4F6EA692CFEB8C6E6A29","019d065b-b445-7a7f-b554-8f43d7eb264a","019d0640-0a2d-7740-a972-9c73365b2dcb","","null","
                <div class=""stimulus-container"">
                    <img src=""images/schematic_sequence/dinner_party_scheme/dinner_party_scheme_ten.png"" class=""exp-image"">
                    <div class=""question-area""></div> 
                </div>","null","","","","","","","","","","","",""
"","","","","","html-button-response","57","589652","0.0-57.0","113710B7E64C4F6EA692CFEB8C6E6A29","019d065b-b445-7a7f-b554-8f43d7eb264a","019d0640-0a2d-7740-a972-9c73365b2dcb","","604","
                <div class=""stimulus-container"">
                    <img src=""images/schematic_sequence/dinner_party_scheme/dinner_party_scheme_ten.png"" class=""exp-image"">
                    <div class=""question-area"">
                        <p style=""font-size: 20px; font-weight: bold; margin: 0;"">Is there a person in this image?</p>
                    </div>
                </div>","0","main_experiment_trial","ten","dinner_party_scheme","schematic_sequence","chronological","","","","","","",""
"","","","","","html-keyboard-response","58","594654","0.0-58.0","113710B7E64C4F6EA692CFEB8C6E6A29","019d065b-b445-7a7f-b554-8f43d7eb264a","019d0640-0a2d-7740-a972-9c73365b2dcb","","null","<div style=""background-color: white; width: 100vw; height: 100vh;""></div>","null","","","","","","","","","","","",""
"","","","","","html-keyboard-response","59","599656","0.0-59.0","113710B7E64C4F6EA692CFEB8C6E6A29","019d065b-b445-7a7f-b554-8f43d7eb264a","019d0640-0a2d-7740-a972-9c73365b2dcb","","null","
                <div class=""stimulus-container"">
                    <img src=""images/causal_sequence/the_performance_causal/the_performance_causal_1.png"" class=""exp-image"">
                    <div class=""question-area""></div> 
                </div>","null","","","","","","","","","","","",""
"","","","","","html-button-response","60","600442","0.0-60.0","113710B7E64C4F6EA692CFEB8C6E6A29","019d065b-b445-7a7f-b554-8f43d7eb264a","019d0640-0a2d-7740-a972-9c73365b2dcb","","784","
                <div class=""stimulus-container"">
                    <img src=""images/causal_sequence/the_performance_causal/the_performance_causal_1.png"" class=""exp-image"">
                    <div class=""question-area"">
                        <p style=""font-size: 20px; font-weight: bold; margin: 0;"">Is there a person in this image?</p>
                    </div>
                </div>","0","main_experiment_trial","1","the_performance_causal","causal_sequence","chronological","","","","","","",""
"","","","","","html-keyboard-response","61","605444","0.0-61.0","113710B7E64C4F6EA692CFEB8C6E6A29","019d065b-b445-7a7f-b554-8f43d7eb264a","019d0640-0a2d-7740-a972-9c73365b2dcb","","null","
                <div class=""stimulus-container"">
                    <img src=""images/causal_sequence/the_performance_causal/the_performance_causal_2.png"" class=""exp-image"">
                    <div class=""question-area""></div> 
                </div>","null","","","","","","","","","","","",""
"","","","","","html-button-response","62","606130","0.0-62.0","113710B7E64C4F6EA692CFEB8C6E6A29","019d065b-b445-7a7f-b554-8f43d7eb264a","019d0640-0a2d-7740-a972-9c73365b2dcb","","684","
                <div class=""stimulus-container"">
                    <img src=""images/causal_sequence/the_performance_causal/the_performance_causal_2.png"" class=""exp-image"">
                    <div class=""question-area"">
                        <p style=""font-size: 20px; font-weight: bold; margin: 0;"">Is there a person in this image?</p>
                    </div>
                </div>","0","main_experiment_trial","2","the_performance_causal","causal_sequence","chronological","","","","","","",""
"","","","","","html-keyboard-response","63","611132","0.0-63.0","113710B7E64C4F6EA692CFEB8C6E6A29","019d065b-b445-7a7f-b554-8f43d7eb264a","019d0640-0a2d-7740-a972-9c73365b2dcb","","null","
                <div class=""stimulus-container"">
                    <img src=""images/causal_sequence/the_performance_causal/the_performance_causal_3.png"" class=""exp-image"">
                    <div class=""question-area""></div> 
                </div>","null","","","","","","","","","","","",""
"","","","","","html-button-response","64","611758","0.0-64.0","113710B7E64C4F6EA692CFEB8C6E6A29","019d065b-b445-7a7f-b554-8f43d7eb264a","019d0640-0a2d-7740-a972-9c73365b2dcb","","625","
                <div class=""stimulus-container"">
                    <img src=""images/causal_sequence/the_performance_causal/the_performance_causal_3.png"" class=""exp-image"">
                    <div class=""question-area"">
                        <p style=""font-size: 20px; font-weight: bold; margin: 0;"">Is there a person in this image?</p>
                    </div>
                </div>","0","main_experiment_trial","3","the_performance_causal","causal_sequence","chronological","","","","","","",""
"","","","","","html-keyboard-response","65","616760","0.0-65.0","113710B7E64C4F6EA692CFEB8C6E6A29","019d065b-b445-7a7f-b554-8f43d7eb264a","019d0640-0a2d-7740-a972-9c73365b2dcb","","null","
                <div class=""stimulus-container"">
                    <img src=""images/causal_sequence/the_performance_causal/the_performance_causal_4.png"" class=""exp-image"">
                    <div class=""question-area""></div> 
                </div>","null","","","","","","","","","","","",""
"","","","","","html-button-response","66","618680","0.0-66.0","113710B7E64C4F6EA692CFEB8C6E6A29","019d065b-b445-7a7f-b554-8f43d7eb264a","019d0640-0a2d-7740-a972-9c73365b2dcb","","1919","
                <div class=""stimulus-container"">
                    <img src=""images/causal_sequence/the_performance_causal/the_performance_causal_4.png"" class=""exp-image"">
                    <div class=""question-area"">
                        <p style=""font-size: 20px; font-weight: bold; margin: 0;"">Is there a person in this image?</p>
                    </div>
                </div>","0","main_experiment_trial","4","the_performance_causal","causal_sequence","chronological","","","","","","",""
"","","","","","html-keyboard-response","67","623682","0.0-67.0","113710B7E64C4F6EA692CFEB8C6E6A29","019d065b-b445-7a7f-b554-8f43d7eb264a","019d0640-0a2d-7740-a972-9c73365b2dcb","","null","
                <div class=""stimulus-container"">
                    <img src=""images/causal_sequence/the_performance_causal/the_performance_causal_5.png"" class=""exp-image"">
                    <div class=""question-area""></div> 
                </div>","null","","","","","","","","","","","",""
"","","","","","html-button-response","68","624234","0.0-68.0","113710B7E64C4F6EA692CFEB8C6E6A29","019d065b-b445-7a7f-b554-8f43d7eb264a","019d0640-0a2d-7740-a972-9c73365b2dcb","","551","
                <div class=""stimulus-container"">
                    <img src=""images/causal_sequence/the_performance_causal/the_performance_causal_5.png"" class=""exp-image"">
                    <div class=""question-area"">
                        <p style=""font-size: 20px; font-weight: bold; margin: 0;"">Is there a person in this image?</p>
                    </div>
                </div>","0","main_experiment_trial","5","the_performance_causal","causal_sequence","chronological","","","","","","",""
"","","","","","html-keyboard-response","69","629236","0.0-69.0","113710B7E64C4F6EA692CFEB8C6E6A29","019d065b-b445-7a7f-b554-8f43d7eb264a","019d0640-0a2d-7740-a972-9c73365b2dcb","","null","
                <div class=""stimulus-container"">
                    <img src=""images/causal_sequence/the_performance_causal/the_performance_causal_6.png"" class=""exp-image"">
                    <div class=""question-area""></div> 
                </div>","null","","","","","","","","","","","",""
"","","","","","html-button-response","70","629814","0.0-70.0","113710B7E64C4F6EA692CFEB8C6E6A29","019d065b-b445-7a7f-b554-8f43d7eb264a","019d0640-0a2d-7740-a972-9c73365b2dcb","","577","
                <div class=""stimulus-container"">
                    <img src=""images/causal_sequence/the_performance_causal/the_performance_causal_6.png"" class=""exp-image"">
                    <div class=""question-area"">
                        <p style=""font-size: 20px; font-weight: bold; margin: 0;"">Is there a person in this image?</p>
                    </div>
                </div>","0","main_experiment_trial","6","the_performance_causal","causal_sequence","chronological","","","","","","",""
"","","","","","html-keyboard-response","71","634815","0.0-71.0","113710B7E64C4F6EA692CFEB8C6E6A29","019d065b-b445-7a7f-b554-8f43d7eb264a","019d0640-0a2d-7740-a972-9c73365b2dcb","","null","
                <div class=""stimulus-container"">
                    <img src=""images/causal_sequence/the_performance_causal/the_performance_causal_7.png"" class=""exp-image"">
                    <div class=""question-area""></div> 
                </div>","null","","","","","","","","","","","",""
"","","","","","html-button-response","72","635686","0.0-72.0","113710B7E64C4F6EA692CFEB8C6E6A29","019d065b-b445-7a7f-b554-8f43d7eb264a","019d0640-0a2d-7740-a972-9c73365b2dcb","","870","
                <div class=""stimulus-container"">
                    <img src=""images/causal_sequence/the_performance_causal/the_performance_causal_7.png"" class=""exp-image"">
                    <div class=""question-area"">
                        <p style=""font-size: 20px; font-weight: bold; margin: 0;"">Is there a person in this image?</p>
                    </div>
                </div>","0","main_experiment_trial","7","the_performance_causal","causal_sequence","chronological","","","","","","",""
"","","","","","html-keyboard-response","73","640688","0.0-73.0","113710B7E64C4F6EA692CFEB8C6E6A29","019d065b-b445-7a7f-b554-8f43d7eb264a","019d0640-0a2d-7740-a972-9c73365b2dcb","","null","
                <div class=""stimulus-container"">
                    <img src=""images/causal_sequence/the_performance_causal/the_performance_causal_8.png"" class=""exp-image"">
                    <div class=""question-area""></div> 
                </div>","null","","","","","","","","","","","",""
"","","","","","html-button-response","74","641634","0.0-74.0","113710B7E64C4F6EA692CFEB8C6E6A29","019d065b-b445-7a7f-b554-8f43d7eb264a","019d0640-0a2d-7740-a972-9c73365b2dcb","","945","
                <div class=""stimulus-container"">
                    <img src=""images/causal_sequence/the_performance_causal/the_performance_causal_8.png"" class=""exp-image"">
                    <div class=""question-area"">
                        <p style=""font-size: 20px; font-weight: bold; margin: 0;"">Is there a person in this image?</p>
                    </div>
                </div>","0","main_experiment_trial","8","the_performance_causal","causal_sequence","chronological","","","","","","",""
"","","","","","html-keyboard-response","75","646636","0.0-75.0","113710B7E64C4F6EA692CFEB8C6E6A29","019d065b-b445-7a7f-b554-8f43d7eb264a","019d0640-0a2d-7740-a972-9c73365b2dcb","","null","
                <div class=""stimulus-container"">
                    <img src=""images/causal_sequence/the_performance_causal/the_performance_causal_9.png"" class=""exp-image"">
                    <div class=""question-area""></div> 
                </div>","null","","","","","","","","","","","",""
"","","","","","html-button-response","76","647149","0.0-76.0","113710B7E64C4F6EA692CFEB8C6E6A29","019d065b-b445-7a7f-b554-8f43d7eb264a","019d0640-0a2d-7740-a972-9c73365b2dcb","","512","
                <div class=""stimulus-container"">
                    <img src=""images/causal_sequence/the_performance_causal/the_performance_causal_9.png"" class=""exp-image"">
                    <div class=""question-area"">
                        <p style=""font-size: 20px; font-weight: bold; margin: 0;"">Is there a person in this image?</p>
                    </div>
                </div>","0","main_experiment_trial","9","the_performance_causal","causal_sequence","chronological","","","","","","",""
"","","","","","html-keyboard-response","77","652152","0.0-77.0","113710B7E64C4F6EA692CFEB8C6E6A29","019d065b-b445-7a7f-b554-8f43d7eb264a","019d0640-0a2d-7740-a972-9c73365b2dcb","","null","
                <div class=""stimulus-container"">
                    <img src=""images/causal_sequence/the_performance_causal/the_performance_causal_ten.png"" class=""exp-image"">
                    <div class=""question-area""></div> 
                </div>","null","","","","","","","","","","","",""
"","","","","","html-button-response","78","653067","0.0-78.0","113710B7E64C4F6EA692CFEB8C6E6A29","019d065b-b445-7a7f-b554-8f43d7eb264a","019d0640-0a2d-7740-a972-9c73365b2dcb","","915","
                <div class=""stimulus-container"">
                    <img src=""images/causal_sequence/the_performance_causal/the_performance_causal_ten.png"" class=""exp-image"">
                    <div class=""question-area"">
                        <p style=""font-size: 20px; font-weight: bold; margin: 0;"">Is there a person in this image?</p>
                    </div>
                </div>","0","main_experiment_trial","ten","the_performance_causal","causal_sequence","chronological","","","","","","",""
"","","","","","html-keyboard-response","79","658069","0.0-79.0","113710B7E64C4F6EA692CFEB8C6E6A29","019d065b-b445-7a7f-b554-8f43d7eb264a","019d0640-0a2d-7740-a972-9c73365b2dcb","","null","<div style=""background-color: white; width: 100vw; height: 100vh;""></div>","null","","","","","","","","","","","",""
"","","","","","html-keyboard-response","80","663070","0.0-80.0","113710B7E64C4F6EA692CFEB8C6E6A29","019d065b-b445-7a7f-b554-8f43d7eb264a","019d0640-0a2d-7740-a972-9c73365b2dcb","","null","
                <div class=""stimulus-container"">
                    <img src=""images/schematic_sequence/flight_scheme/flight_scheme_1.png"" class=""exp-image"">
                    <div class=""question-area""></div> 
                </div>","null","","","","","","","","","","","",""
"","","","","","html-button-response","81","664438","0.0-81.0","113710B7E64C4F6EA692CFEB8C6E6A29","019d065b-b445-7a7f-b554-8f43d7eb264a","019d0640-0a2d-7740-a972-9c73365b2dcb","","1367","
                <div class=""stimulus-container"">
                    <img src=""images/schematic_sequence/flight_scheme/flight_scheme_1.png"" class=""exp-image"">
                    <div class=""question-area"">
                        <p style=""font-size: 20px; font-weight: bold; margin: 0;"">Is there a person in this image?</p>
                    </div>
                </div>","0","main_experiment_trial","1","flight_scheme","schematic_sequence","chronological","","","","","","",""
"","","","","","html-keyboard-response","82","669440","0.0-82.0","113710B7E64C4F6EA692CFEB8C6E6A29","019d065b-b445-7a7f-b554-8f43d7eb264a","019d0640-0a2d-7740-a972-9c73365b2dcb","","null","
                <div class=""stimulus-container"">
                    <img src=""images/schematic_sequence/flight_scheme/flight_scheme_2.png"" class=""exp-image"">
                    <div class=""question-area""></div> 
                </div>","null","","","","","","","","","","","",""
"","","","","","html-button-response","83","670382","0.0-83.0","113710B7E64C4F6EA692CFEB8C6E6A29","019d065b-b445-7a7f-b554-8f43d7eb264a","019d0640-0a2d-7740-a972-9c73365b2dcb","","940","
                <div class=""stimulus-container"">
                    <img src=""images/schematic_sequence/flight_scheme/flight_scheme_2.png"" class=""exp-image"">
                    <div class=""question-area"">
                        <p style=""font-size: 20px; font-weight: bold; margin: 0;"">Is there a person in this image?</p>
                    </div>
                </div>","1","main_experiment_trial","2","flight_scheme","schematic_sequence","chronological","","","","","","",""
"","","","","","html-keyboard-response","84","675384","0.0-84.0","113710B7E64C4F6EA692CFEB8C6E6A29","019d065b-b445-7a7f-b554-8f43d7eb264a","019d0640-0a2d-7740-a972-9c73365b2dcb","","null","
                <div class=""stimulus-container"">
                    <img src=""images/schematic_sequence/flight_scheme/flight_scheme_3.png"" class=""exp-image"">
                    <div class=""question-area""></div> 
                </div>","null","","","","","","","","","","","",""
"","","","","","html-button-response","85","676126","0.0-85.0","113710B7E64C4F6EA692CFEB8C6E6A29","019d065b-b445-7a7f-b554-8f43d7eb264a","019d0640-0a2d-7740-a972-9c73365b2dcb","","742","
                <div class=""stimulus-container"">
                    <img src=""images/schematic_sequence/flight_scheme/flight_scheme_3.png"" class=""exp-image"">
                    <div class=""question-area"">
                        <p style=""font-size: 20px; font-weight: bold; margin: 0;"">Is there a person in this image?</p>
                    </div>
                </div>","0","main_experiment_trial","3","flight_scheme","schematic_sequence","chronological","","","","","","",""
"","","","","","html-keyboard-response","86","681128","0.0-86.0","113710B7E64C4F6EA692CFEB8C6E6A29","019d065b-b445-7a7f-b554-8f43d7eb264a","019d0640-0a2d-7740-a972-9c73365b2dcb","","null","
                <div class=""stimulus-container"">
                    <img src=""images/schematic_sequence/flight_scheme/flight_scheme_4.png"" class=""exp-image"">
                    <div class=""question-area""></div> 
                </div>","null","","","","","","","","","","","",""
"","","","","","html-button-response","87","681976","0.0-87.0","113710B7E64C4F6EA692CFEB8C6E6A29","019d065b-b445-7a7f-b554-8f43d7eb264a","019d0640-0a2d-7740-a972-9c73365b2dcb","","847","
                <div class=""stimulus-container"">
                    <img src=""images/schematic_sequence/flight_scheme/flight_scheme_4.png"" class=""exp-image"">
                    <div class=""question-area"">
                        <p style=""font-size: 20px; font-weight: bold; margin: 0;"">Is there a person in this image?</p>
                    </div>
                </div>","0","main_experiment_trial","4","flight_scheme","schematic_sequence","chronological","","","","","","",""
"","","","","","html-keyboard-response","88","686977","0.0-88.0","113710B7E64C4F6EA692CFEB8C6E6A29","019d065b-b445-7a7f-b554-8f43d7eb264a","019d0640-0a2d-7740-a972-9c73365b2dcb","","null","
                <div class=""stimulus-container"">
                    <img src=""images/schematic_sequence/flight_scheme/flight_scheme_5.png"" class=""exp-image"">
                    <div class=""question-area""></div> 
                </div>","null","","","","","","","","","","","",""
"","","","","","html-button-response","89","687548","0.0-89.0","113710B7E64C4F6EA692CFEB8C6E6A29","019d065b-b445-7a7f-b554-8f43d7eb264a","019d0640-0a2d-7740-a972-9c73365b2dcb","","570","
                <div class=""stimulus-container"">
                    <img src=""images/schematic_sequence/flight_scheme/flight_scheme_5.png"" class=""exp-image"">
                    <div class=""question-area"">
                        <p style=""font-size: 20px; font-weight: bold; margin: 0;"">Is there a person in this image?</p>
                    </div>
                </div>","0","main_experiment_trial","5","flight_scheme","schematic_sequence","chronological","","","","","","",""
"","","","","","html-keyboard-response","90","692551","0.0-90.0","113710B7E64C4F6EA692CFEB8C6E6A29","019d065b-b445-7a7f-b554-8f43d7eb264a","019d0640-0a2d-7740-a972-9c73365b2dcb","","null","
                <div class=""stimulus-container"">
                    <img src=""images/schematic_sequence/flight_scheme/flight_scheme_6.png"" class=""exp-image"">
                    <div class=""question-area""></div> 
                </div>","null","","","","","","","","","","","",""
"","","","","","html-button-response","91","693348","0.0-91.0","113710B7E64C4F6EA692CFEB8C6E6A29","019d065b-b445-7a7f-b554-8f43d7eb264a","019d0640-0a2d-7740-a972-9c73365b2dcb","","795","
                <div class=""stimulus-container"">
                    <img src=""images/schematic_sequence/flight_scheme/flight_scheme_6.png"" class=""exp-image"">
                    <div class=""question-area"">
                        <p style=""font-size: 20px; font-weight: bold; margin: 0;"">Is there a person in this image?</p>
                    </div>
                </div>","0","main_experiment_trial","6","flight_scheme","schematic_sequence","chronological","","","","","","",""
"","","","","","html-keyboard-response","92","698349","0.0-92.0","113710B7E64C4F6EA692CFEB8C6E6A29","019d065b-b445-7a7f-b554-8f43d7eb264a","019d0640-0a2d-7740-a972-9c73365b2dcb","","null","
                <div class=""stimulus-container"">
                    <img src=""images/schematic_sequence/flight_scheme/flight_scheme_7.png"" class=""exp-image"">
                    <div class=""question-area""></div> 
                </div>","null","","","","","","","","","","","",""
"","","","","","html-button-response","93","700882","0.0-93.0","113710B7E64C4F6EA692CFEB8C6E6A29","019d065b-b445-7a7f-b554-8f43d7eb264a","019d0640-0a2d-7740-a972-9c73365b2dcb","","2531","
                <div class=""stimulus-container"">
                    <img src=""images/schematic_sequence/flight_scheme/flight_scheme_7.png"" class=""exp-image"">
                    <div class=""question-area"">
                        <p style=""font-size: 20px; font-weight: bold; margin: 0;"">Is there a person in this image?</p>
                    </div>
                </div>","1","main_experiment_trial","7","flight_scheme","schematic_sequence","chronological","","","","","","",""
"","","","","","html-keyboard-response","94","705882","0.0-94.0","113710B7E64C4F6EA692CFEB8C6E6A29","019d065b-b445-7a7f-b554-8f43d7eb264a","019d0640-0a2d-7740-a972-9c73365b2dcb","","null","
                <div class=""stimulus-container"">
                    <img src=""images/schematic_sequence/flight_scheme/flight_scheme_8.png"" class=""exp-image"">
                    <div class=""question-area""></div> 
                </div>","null","","","","","","","","","","","",""
"","","","","","html-button-response","95","707288","0.0-95.0","113710B7E64C4F6EA692CFEB8C6E6A29","019d065b-b445-7a7f-b554-8f43d7eb264a","019d0640-0a2d-7740-a972-9c73365b2dcb","","1404","
                <div class=""stimulus-container"">
                    <img src=""images/schematic_sequence/flight_scheme/flight_scheme_8.png"" class=""exp-image"">
                    <div class=""question-area"">
                        <p style=""font-size: 20px; font-weight: bold; margin: 0;"">Is there a person in this image?</p>
                    </div>
                </div>","1","main_experiment_trial","8","flight_scheme","schematic_sequence","chronological","","","","","","",""
"","","","","","html-keyboard-response","96","712289","0.0-96.0","113710B7E64C4F6EA692CFEB8C6E6A29","019d065b-b445-7a7f-b554-8f43d7eb264a","019d0640-0a2d-7740-a972-9c73365b2dcb","","null","
                <div class=""stimulus-container"">
                    <img src=""images/schematic_sequence/flight_scheme/flight_scheme_9.png"" class=""exp-image"">
                    <div class=""question-area""></div> 
                </div>","null","","","","","","","","","","","",""
"","","","","","html-button-response","97","713020","0.0-97.0","113710B7E64C4F6EA692CFEB8C6E6A29","019d065b-b445-7a7f-b554-8f43d7eb264a","019d0640-0a2d-7740-a972-9c73365b2dcb","","730","
                <div class=""stimulus-container"">
                    <img src=""images/schematic_sequence/flight_scheme/flight_scheme_9.png"" class=""exp-image"">
                    <div class=""question-area"">
                        <p style=""font-size: 20px; font-weight: bold; margin: 0;"">Is there a person in this image?</p>
                    </div>
                </div>","0","main_experiment_trial","9","flight_scheme","schematic_sequence","chronological","","","","","","",""
"","","","","","html-keyboard-response","98","718021","0.0-98.0","113710B7E64C4F6EA692CFEB8C6E6A29","019d065b-b445-7a7f-b554-8f43d7eb264a","019d0640-0a2d-7740-a972-9c73365b2dcb","","null","
                <div class=""stimulus-container"">
                    <img src=""images/schematic_sequence/flight_scheme/flight_scheme_ten.png"" class=""exp-image"">
                    <div class=""question-area""></div> 
                </div>","null","","","","","","","","","","","",""
"","","","","","html-button-response","99","718730","0.0-99.0","113710B7E64C4F6EA692CFEB8C6E6A29","019d065b-b445-7a7f-b554-8f43d7eb264a","019d0640-0a2d-7740-a972-9c73365b2dcb","","708","
                <div class=""stimulus-container"">
                    <img src=""images/schematic_sequence/flight_scheme/flight_scheme_ten.png"" class=""exp-image"">
                    <div class=""question-area"">
                        <p style=""font-size: 20px; font-weight: bold; margin: 0;"">Is there a person in this image?</p>
                    </div>
                </div>","0","main_experiment_trial","ten","flight_scheme","schematic_sequence","chronological","","","","","","",""
"","","","","","html-keyboard-response","100","723731","0.0-100.0","113710B7E64C4F6EA692CFEB8C6E6A29","019d065b-b445-7a7f-b554-8f43d7eb264a","019d0640-0a2d-7740-a972-9c73365b2dcb","","null","<div style=""background-color: white; width: 100vw; height: 100vh;""></div>","null","","","","","","","","","","","",""
"","","","","","html-keyboard-response","101","728734","0.0-101.0","113710B7E64C4F6EA692CFEB8C6E6A29","019d065b-b445-7a7f-b554-8f43d7eb264a","019d0640-0a2d-7740-a972-9c73365b2dcb","","null","
                <div class=""stimulus-container"">
                    <img src=""images/causal_sequence/saving_a_cat_causal/saving_a_cat_causal_1.png"" class=""exp-image"">
                    <div class=""question-area""></div> 
                </div>","null","","","","","","","","","","","",""
"","","","","","html-button-response","102","729300","0.0-102.0","113710B7E64C4F6EA692CFEB8C6E6A29","019d065b-b445-7a7f-b554-8f43d7eb264a","019d0640-0a2d-7740-a972-9c73365b2dcb","","564","
                <div class=""stimulus-container"">
                    <img src=""images/causal_sequence/saving_a_cat_causal/saving_a_cat_causal_1.png"" class=""exp-image"">
                    <div class=""question-area"">
                        <p style=""font-size: 20px; font-weight: bold; margin: 0;"">Is there a person in this image?</p>
                    </div>
                </div>","0","main_experiment_trial","1","saving_a_cat_causal","causal_sequence","chronological","","","","","","",""
"","","","","","html-keyboard-response","103","734302","0.0-103.0","113710B7E64C4F6EA692CFEB8C6E6A29","019d065b-b445-7a7f-b554-8f43d7eb264a","019d0640-0a2d-7740-a972-9c73365b2dcb","","null","
                <div class=""stimulus-container"">
                    <img src=""images/causal_sequence/saving_a_cat_causal/saving_a_cat_causal_2.png"" class=""exp-image"">
                    <div class=""question-area""></div> 
                </div>","null","","","","","","","","","","","",""
"","","","","","html-button-response","104","736268","0.0-104.0","113710B7E64C4F6EA692CFEB8C6E6A29","019d065b-b445-7a7f-b554-8f43d7eb264a","019d0640-0a2d-7740-a972-9c73365b2dcb","","1965","
                <div class=""stimulus-container"">
                    <img src=""images/causal_sequence/saving_a_cat_causal/saving_a_cat_causal_2.png"" class=""exp-image"">
                    <div class=""question-area"">
                        <p style=""font-size: 20px; font-weight: bold; margin: 0;"">Is there a person in this image?</p>
                    </div>
                </div>","1","main_experiment_trial","2","saving_a_cat_causal","causal_sequence","chronological","","","","","","",""
"","","","","","html-keyboard-response","105","741270","0.0-105.0","113710B7E64C4F6EA692CFEB8C6E6A29","019d065b-b445-7a7f-b554-8f43d7eb264a","019d0640-0a2d-7740-a972-9c73365b2dcb","","null","
                <div class=""stimulus-container"">
                    <img src=""images/causal_sequence/saving_a_cat_causal/saving_a_cat_causal_3.png"" class=""exp-image"">
                    <div class=""question-area""></div> 
                </div>","null","","","","","","","","","","","",""
"","","","","","html-button-response","106","742650","0.0-106.0","113710B7E64C4F6EA692CFEB8C6E6A29","019d065b-b445-7a7f-b554-8f43d7eb264a","019d0640-0a2d-7740-a972-9c73365b2dcb","","1380","
                <div class=""stimulus-container"">
                    <img src=""images/causal_sequence/saving_a_cat_causal/saving_a_cat_causal_3.png"" class=""exp-image"">
                    <div class=""question-area"">
                        <p style=""font-size: 20px; font-weight: bold; margin: 0;"">Is there a person in this image?</p>
                    </div>
                </div>","1","main_experiment_trial","3","saving_a_cat_causal","causal_sequence","chronological","","","","","","",""
"","","","","","html-keyboard-response","107","747653","0.0-107.0","113710B7E64C4F6EA692CFEB8C6E6A29","019d065b-b445-7a7f-b554-8f43d7eb264a","019d0640-0a2d-7740-a972-9c73365b2dcb","","null","
                <div class=""stimulus-container"">
                    <img src=""images/causal_sequence/saving_a_cat_causal/saving_a_cat_causal_4.png"" class=""exp-image"">
                    <div class=""question-area""></div> 
                </div>","null","","","","","","","","","","","",""
"","","","","","html-button-response","108","749438","0.0-108.0","113710B7E64C4F6EA692CFEB8C6E6A29","019d065b-b445-7a7f-b554-8f43d7eb264a","019d0640-0a2d-7740-a972-9c73365b2dcb","","1784","
                <div class=""stimulus-container"">
                    <img src=""images/causal_sequence/saving_a_cat_causal/saving_a_cat_causal_4.png"" class=""exp-image"">
                    <div class=""question-area"">
                        <p style=""font-size: 20px; font-weight: bold; margin: 0;"">Is there a person in this image?</p>
                    </div>
                </div>","0","main_experiment_trial","4","saving_a_cat_causal","causal_sequence","chronological","","","","","","",""
"","","","","","html-keyboard-response","109","754440","0.0-109.0","113710B7E64C4F6EA692CFEB8C6E6A29","019d065b-b445-7a7f-b554-8f43d7eb264a","019d0640-0a2d-7740-a972-9c73365b2dcb","","null","
                <div class=""stimulus-container"">
                    <img src=""images/causal_sequence/saving_a_cat_causal/saving_a_cat_causal_5.png"" class=""exp-image"">
                    <div class=""question-area""></div> 
                </div>","null","","","","","","","","","","","",""
"","","","","","html-button-response","110","756832","0.0-110.0","113710B7E64C4F6EA692CFEB8C6E6A29","019d065b-b445-7a7f-b554-8f43d7eb264a","019d0640-0a2d-7740-a972-9c73365b2dcb","","2391","
                <div class=""stimulus-container"">
                    <img src=""images/causal_sequence/saving_a_cat_causal/saving_a_cat_causal_5.png"" class=""exp-image"">
                    <div class=""question-area"">
                        <p style=""font-size: 20px; font-weight: bold; margin: 0;"">Is there a person in this image?</p>
                    </div>
                </div>","0","main_experiment_trial","5","saving_a_cat_causal","causal_sequence","chronological","","","","","","",""
"","","","","","html-keyboard-response","111","761834","0.0-111.0","113710B7E64C4F6EA692CFEB8C6E6A29","019d065b-b445-7a7f-b554-8f43d7eb264a","019d0640-0a2d-7740-a972-9c73365b2dcb","","null","
                <div class=""stimulus-container"">
                    <img src=""images/causal_sequence/saving_a_cat_causal/saving_a_cat_causal_6.png"" class=""exp-image"">
                    <div class=""question-area""></div> 
                </div>","null","","","","","","","","","","","",""
"","","","","","html-button-response","112","763208","0.0-112.0","113710B7E64C4F6EA692CFEB8C6E6A29","019d065b-b445-7a7f-b554-8f43d7eb264a","019d0640-0a2d-7740-a972-9c73365b2dcb","","1373","
                <div class=""stimulus-container"">
                    <img src=""images/causal_sequence/saving_a_cat_causal/saving_a_cat_causal_6.png"" class=""exp-image"">
                    <div class=""question-area"">
                        <p style=""font-size: 20px; font-weight: bold; margin: 0;"">Is there a person in this image?</p>
                    </div>
                </div>","0","main_experiment_trial","6","saving_a_cat_causal","causal_sequence","chronological","","","","","","",""
"","","","","","html-keyboard-response","113","768210","0.0-113.0","113710B7E64C4F6EA692CFEB8C6E6A29","019d065b-b445-7a7f-b554-8f43d7eb264a","019d0640-0a2d-7740-a972-9c73365b2dcb","","null","
                <div class=""stimulus-container"">
                    <img src=""images/causal_sequence/saving_a_cat_causal/saving_a_cat_causal_7.png"" class=""exp-image"">
                    <div class=""question-area""></div> 
                </div>","null","","","","","","","","","","","",""
"","","","","","html-button-response","114","769872","0.0-114.0","113710B7E64C4F6EA692CFEB8C6E6A29","019d065b-b445-7a7f-b554-8f43d7eb264a","019d0640-0a2d-7740-a972-9c73365b2dcb","","1660","
                <div class=""stimulus-container"">
                    <img src=""images/causal_sequence/saving_a_cat_causal/saving_a_cat_causal_7.png"" class=""exp-image"">
                    <div class=""question-area"">
                        <p style=""font-size: 20px; font-weight: bold; margin: 0;"">Is there a person in this image?</p>
                    </div>
                </div>","0","main_experiment_trial","7","saving_a_cat_causal","causal_sequence","chronological","","","","","","",""
"","","","","","html-keyboard-response","115","774873","0.0-115.0","113710B7E64C4F6EA692CFEB8C6E6A29","019d065b-b445-7a7f-b554-8f43d7eb264a","019d0640-0a2d-7740-a972-9c73365b2dcb","","null","
                <div class=""stimulus-container"">
                    <img src=""images/causal_sequence/saving_a_cat_causal/saving_a_cat_causal_8.png"" class=""exp-image"">
                    <div class=""question-area""></div> 
                </div>","null","","","","","","","","","","","",""
"","","","","","html-button-response","116","776520","0.0-116.0","113710B7E64C4F6EA692CFEB8C6E6A29","019d065b-b445-7a7f-b554-8f43d7eb264a","019d0640-0a2d-7740-a972-9c73365b2dcb","","1646","
                <div class=""stimulus-container"">
                    <img src=""images/causal_sequence/saving_a_cat_causal/saving_a_cat_causal_8.png"" class=""exp-image"">
                    <div class=""question-area"">
                        <p style=""font-size: 20px; font-weight: bold; margin: 0;"">Is there a person in this image?</p>
                    </div>
                </div>","0","main_experiment_trial","8","saving_a_cat_causal","causal_sequence","chronological","","","","","","",""
"","","","","","html-keyboard-response","117","781522","0.0-117.0","113710B7E64C4F6EA692CFEB8C6E6A29","019d065b-b445-7a7f-b554-8f43d7eb264a","019d0640-0a2d-7740-a972-9c73365b2dcb","","null","
                <div class=""stimulus-container"">
                    <img src=""images/causal_sequence/saving_a_cat_causal/saving_a_cat_causal_9.png"" class=""exp-image"">
                    <div class=""question-area""></div> 
                </div>","null","","","","","","","","","","","",""
"","","","","","html-button-response","118","783698","0.0-118.0","113710B7E64C4F6EA692CFEB8C6E6A29","019d065b-b445-7a7f-b554-8f43d7eb264a","019d0640-0a2d-7740-a972-9c73365b2dcb","","2176","
                <div class=""stimulus-container"">
                    <img src=""images/causal_sequence/saving_a_cat_causal/saving_a_cat_causal_9.png"" class=""exp-image"">
                    <div class=""question-area"">
                        <p style=""font-size: 20px; font-weight: bold; margin: 0;"">Is there a person in this image?</p>
                    </div>
                </div>","0","main_experiment_trial","9","saving_a_cat_causal","causal_sequence","chronological","","","","","","",""
"","","","","","html-keyboard-response","119","788699","0.0-119.0","113710B7E64C4F6EA692CFEB8C6E6A29","019d065b-b445-7a7f-b554-8f43d7eb264a","019d0640-0a2d-7740-a972-9c73365b2dcb","","null","
                <div class=""stimulus-container"">
                    <img src=""images/causal_sequence/saving_a_cat_causal/saving_a_cat_causal_ten.png"" class=""exp-image"">
                    <div class=""question-area""></div> 
                </div>","null","","","","","","","","","","","",""
"","","","","","html-button-response","120","790008","0.0-120.0","113710B7E64C4F6EA692CFEB8C6E6A29","019d065b-b445-7a7f-b554-8f43d7eb264a","019d0640-0a2d-7740-a972-9c73365b2dcb","","1308","
                <div class=""stimulus-container"">
                    <img src=""images/causal_sequence/saving_a_cat_causal/saving_a_cat_causal_ten.png"" class=""exp-image"">
                    <div class=""question-area"">
                        <p style=""font-size: 20px; font-weight: bold; margin: 0;"">Is there a person in this image?</p>
                    </div>
                </div>","0","main_experiment_trial","ten","saving_a_cat_causal","causal_sequence","chronological","","","","","","",""
"","","","","","html-keyboard-response","121","795010","0.0-121.0","113710B7E64C4F6EA692CFEB8C6E6A29","019d065b-b445-7a7f-b554-8f43d7eb264a","019d0640-0a2d-7740-a972-9c73365b2dcb","","null","<div style=""background-color: white; width: 100vw; height: 100vh;""></div>","null","","","","","","","","","","","",""
"","","","","","html-keyboard-response","122","800012","0.0-122.0","113710B7E64C4F6EA692CFEB8C6E6A29","019d065b-b445-7a7f-b554-8f43d7eb264a","019d0640-0a2d-7740-a972-9c73365b2dcb","","null","
                <div class=""stimulus-container"">
                    <img src=""images/semantic_sequence/physical_activity_semantic/physical_activity_semantic_1.png"" class=""exp-image"">
                    <div class=""question-area""></div> 
                </div>","null","","","","","","","","","","","",""
"","","","","","html-button-response","123","800938","0.0-123.0","113710B7E64C4F6EA692CFEB8C6E6A29","019d065b-b445-7a7f-b554-8f43d7eb264a","019d0640-0a2d-7740-a972-9c73365b2dcb","","925","
                <div class=""stimulus-container"">
                    <img src=""images/semantic_sequence/physical_activity_semantic/physical_activity_semantic_1.png"" class=""exp-image"">
                    <div class=""question-area"">
                        <p style=""font-size: 20px; font-weight: bold; margin: 0;"">Is there a person in this image?</p>
                    </div>
                </div>","0","main_experiment_trial","1","physical_activity_semantic","semantic_sequence","chronological","","","","","","",""
"","","","","","html-keyboard-response","124","805940","0.0-124.0","113710B7E64C4F6EA692CFEB8C6E6A29","019d065b-b445-7a7f-b554-8f43d7eb264a","019d0640-0a2d-7740-a972-9c73365b2dcb","","null","
                <div class=""stimulus-container"">
                    <img src=""images/semantic_sequence/physical_activity_semantic/physical_activity_semantic_2.png"" class=""exp-image"">
                    <div class=""question-area""></div> 
                </div>","null","","","","","","","","","","","",""
"","","","","","html-button-response","125","806706","0.0-125.0","113710B7E64C4F6EA692CFEB8C6E6A29","019d065b-b445-7a7f-b554-8f43d7eb264a","019d0640-0a2d-7740-a972-9c73365b2dcb","","765","
                <div class=""stimulus-container"">
                    <img src=""images/semantic_sequence/physical_activity_semantic/physical_activity_semantic_2.png"" class=""exp-image"">
                    <div class=""question-area"">
                        <p style=""font-size: 20px; font-weight: bold; margin: 0;"">Is there a person in this image?</p>
                    </div>
                </div>","0","main_experiment_trial","2","physical_activity_semantic","semantic_sequence","chronological","","","","","","",""
"","","","","","html-keyboard-response","126","811708","0.0-126.0","113710B7E64C4F6EA692CFEB8C6E6A29","019d065b-b445-7a7f-b554-8f43d7eb264a","019d0640-0a2d-7740-a972-9c73365b2dcb","","null","
                <div class=""stimulus-container"">
                    <img src=""images/semantic_sequence/physical_activity_semantic/physical_activity_semantic_3.png"" class=""exp-image"">
                    <div class=""question-area""></div> 
                </div>","null","","","","","","","","","","","",""
"","","","","","html-button-response","127","813294","0.0-127.0","113710B7E64C4F6EA692CFEB8C6E6A29","019d065b-b445-7a7f-b554-8f43d7eb264a","019d0640-0a2d-7740-a972-9c73365b2dcb","","1585","
                <div class=""stimulus-container"">
                    <img src=""images/semantic_sequence/physical_activity_semantic/physical_activity_semantic_3.png"" class=""exp-image"">
                    <div class=""question-area"">
                        <p style=""font-size: 20px; font-weight: bold; margin: 0;"">Is there a person in this image?</p>
                    </div>
                </div>","0","main_experiment_trial","3","physical_activity_semantic","semantic_sequence","chronological","","","","","","",""
"","","","","","html-keyboard-response","128","818296","0.0-128.0","113710B7E64C4F6EA692CFEB8C6E6A29","019d065b-b445-7a7f-b554-8f43d7eb264a","019d0640-0a2d-7740-a972-9c73365b2dcb","","null","
                <div class=""stimulus-container"">
                    <img src=""images/semantic_sequence/physical_activity_semantic/physical_activity_semantic_4.png"" class=""exp-image"">
                    <div class=""question-area""></div> 
                </div>","null","","","","","","","","","","","",""
"","","","","","html-button-response","129","820066","0.0-129.0","113710B7E64C4F6EA692CFEB8C6E6A29","019d065b-b445-7a7f-b554-8f43d7eb264a","019d0640-0a2d-7740-a972-9c73365b2dcb","","1769","
                <div class=""stimulus-container"">
                    <img src=""images/semantic_sequence/physical_activity_semantic/physical_activity_semantic_4.png"" class=""exp-image"">
                    <div class=""question-area"">
                        <p style=""font-size: 20px; font-weight: bold; margin: 0;"">Is there a person in this image?</p>
                    </div>
                </div>","0","main_experiment_trial","4","physical_activity_semantic","semantic_sequence","chronological","","","","","","",""
"","","","","","html-keyboard-response","130","825068","0.0-130.0","113710B7E64C4F6EA692CFEB8C6E6A29","019d065b-b445-7a7f-b554-8f43d7eb264a","019d0640-0a2d-7740-a972-9c73365b2dcb","","null","
                <div class=""stimulus-container"">
                    <img src=""images/semantic_sequence/physical_activity_semantic/physical_activity_semantic_5.png"" class=""exp-image"">
                    <div class=""question-area""></div> 
                </div>","null","","","","","","","","","","","",""
"","","","","","html-button-response","131","826652","0.0-131.0","113710B7E64C4F6EA692CFEB8C6E6A29","019d065b-b445-7a7f-b554-8f43d7eb264a","019d0640-0a2d-7740-a972-9c73365b2dcb","","1583","
                <div class=""stimulus-container"">
                    <img src=""images/semantic_sequence/physical_activity_semantic/physical_activity_semantic_5.png"" class=""exp-image"">
                    <div class=""question-area"">
                        <p style=""font-size: 20px; font-weight: bold; margin: 0;"">Is there a person in this image?</p>
                    </div>
                </div>","0","main_experiment_trial","5","physical_activity_semantic","semantic_sequence","chronological","","","","","","",""
"","","","","","html-keyboard-response","132","831654","0.0-132.0","113710B7E64C4F6EA692CFEB8C6E6A29","019d065b-b445-7a7f-b554-8f43d7eb264a","019d0640-0a2d-7740-a972-9c73365b2dcb","","null","
                <div class=""stimulus-container"">
                    <img src=""images/semantic_sequence/physical_activity_semantic/physical_activity_semantic_6.png"" class=""exp-image"">
                    <div class=""question-area""></div> 
                </div>","null","","","","","","","","","","","",""
"","","","","","html-button-response","133","832240","0.0-133.0","113710B7E64C4F6EA692CFEB8C6E6A29","019d065b-b445-7a7f-b554-8f43d7eb264a","019d0640-0a2d-7740-a972-9c73365b2dcb","","586","
                <div class=""stimulus-container"">
                    <img src=""images/semantic_sequence/physical_activity_semantic/physical_activity_semantic_6.png"" class=""exp-image"">
                    <div class=""question-area"">
                        <p style=""font-size: 20px; font-weight: bold; margin: 0;"">Is there a person in this image?</p>
                    </div>
                </div>","0","main_experiment_trial","6","physical_activity_semantic","semantic_sequence","chronological","","","","","","",""
"","","","","","html-keyboard-response","134","837242","0.0-134.0","113710B7E64C4F6EA692CFEB8C6E6A29","019d065b-b445-7a7f-b554-8f43d7eb264a","019d0640-0a2d-7740-a972-9c73365b2dcb","","null","
                <div class=""stimulus-container"">
                    <img src=""images/semantic_sequence/physical_activity_semantic/physical_activity_semantic_7.png"" class=""exp-image"">
                    <div class=""question-area""></div> 
                </div>","null","","","","","","","","","","","",""
"","","","","","html-button-response","135","838306","0.0-135.0","113710B7E64C4F6EA692CFEB8C6E6A29","019d065b-b445-7a7f-b554-8f43d7eb264a","019d0640-0a2d-7740-a972-9c73365b2dcb","","1063","
                <div class=""stimulus-container"">
                    <img src=""images/semantic_sequence/physical_activity_semantic/physical_activity_semantic_7.png"" class=""exp-image"">
                    <div class=""question-area"">
                        <p style=""font-size: 20px; font-weight: bold; margin: 0;"">Is there a person in this image?</p>
                    </div>
                </div>","0","main_experiment_trial","7","physical_activity_semantic","semantic_sequence","chronological","","","","","","",""
"","","","","","html-keyboard-response","136","843308","0.0-136.0","113710B7E64C4F6EA692CFEB8C6E6A29","019d065b-b445-7a7f-b554-8f43d7eb264a","019d0640-0a2d-7740-a972-9c73365b2dcb","","null","
                <div class=""stimulus-container"">
                    <img src=""images/semantic_sequence/physical_activity_semantic/physical_activity_semantic_8.png"" class=""exp-image"">
                    <div class=""question-area""></div> 
                </div>","null","","","","","","","","","","","",""
"","","","","","html-button-response","137","844960","0.0-137.0","113710B7E64C4F6EA692CFEB8C6E6A29","019d065b-b445-7a7f-b554-8f43d7eb264a","019d0640-0a2d-7740-a972-9c73365b2dcb","","1651","
                <div class=""stimulus-container"">
                    <img src=""images/semantic_sequence/physical_activity_semantic/physical_activity_semantic_8.png"" class=""exp-image"">
                    <div class=""question-area"">
                        <p style=""font-size: 20px; font-weight: bold; margin: 0;"">Is there a person in this image?</p>
                    </div>
                </div>","0","main_experiment_trial","8","physical_activity_semantic","semantic_sequence","chronological","","","","","","",""
"","","","","","html-keyboard-response","138","849962","0.0-138.0","113710B7E64C4F6EA692CFEB8C6E6A29","019d065b-b445-7a7f-b554-8f43d7eb264a","019d0640-0a2d-7740-a972-9c73365b2dcb","","null","
                <div class=""stimulus-container"">
                    <img src=""images/semantic_sequence/physical_activity_semantic/physical_activity_semantic_9.png"" class=""exp-image"">
                    <div class=""question-area""></div> 
                </div>","null","","","","","","","","","","","",""
"","","","","","html-button-response","139","851638","0.0-139.0","113710B7E64C4F6EA692CFEB8C6E6A29","019d065b-b445-7a7f-b554-8f43d7eb264a","019d0640-0a2d-7740-a972-9c73365b2dcb","","1674","
                <div class=""stimulus-container"">
                    <img src=""images/semantic_sequence/physical_activity_semantic/physical_activity_semantic_9.png"" class=""exp-image"">
                    <div class=""question-area"">
                        <p style=""font-size: 20px; font-weight: bold; margin: 0;"">Is there a person in this image?</p>
                    </div>
                </div>","0","main_experiment_trial","9","physical_activity_semantic","semantic_sequence","chronological","","","","","","",""
"","","","","","html-keyboard-response","140","856640","0.0-140.0","113710B7E64C4F6EA692CFEB8C6E6A29","019d065b-b445-7a7f-b554-8f43d7eb264a","019d0640-0a2d-7740-a972-9c73365b2dcb","","null","
                <div class=""stimulus-container"">
                    <img src=""images/semantic_sequence/physical_activity_semantic/physical_activity_semantic_ten.png"" class=""exp-image"">
                    <div class=""question-area""></div> 
                </div>","null","","","","","","","","","","","",""
"","","","","","html-button-response","141","858712","0.0-141.0","113710B7E64C4F6EA692CFEB8C6E6A29","019d065b-b445-7a7f-b554-8f43d7eb264a","019d0640-0a2d-7740-a972-9c73365b2dcb","","2071","
                <div class=""stimulus-container"">
                    <img src=""images/semantic_sequence/physical_activity_semantic/physical_activity_semantic_ten.png"" class=""exp-image"">
                    <div class=""question-area"">
                        <p style=""font-size: 20px; font-weight: bold; margin: 0;"">Is there a person in this image?</p>
                    </div>
                </div>","0","main_experiment_trial","ten","physical_activity_semantic","semantic_sequence","chronological","","","","","","",""
"","","","","","html-keyboard-response","142","863713","0.0-142.0","113710B7E64C4F6EA692CFEB8C6E6A29","019d065b-b445-7a7f-b554-8f43d7eb264a","019d0640-0a2d-7740-a972-9c73365b2dcb","","null","<div style=""background-color: white; width: 100vw; height: 100vh;""></div>","null","","","","","","","","","","","",""
"","","","","","html-keyboard-response","143","868714","0.0-143.0","113710B7E64C4F6EA692CFEB8C6E6A29","019d065b-b445-7a7f-b554-8f43d7eb264a","019d0640-0a2d-7740-a972-9c73365b2dcb","","null","
                <div class=""stimulus-container"">
                    <img src=""images/semantic_sequence/visiting_cities_semantic/visiting_cities_semantic_1.png"" class=""exp-image"">
                    <div class=""question-area""></div> 
                </div>","null","","","","","","","","","","","",""
"","","","","","html-button-response","144","869944","0.0-144.0","113710B7E64C4F6EA692CFEB8C6E6A29","019d065b-b445-7a7f-b554-8f43d7eb264a","019d0640-0a2d-7740-a972-9c73365b2dcb","","1229","
                <div class=""stimulus-container"">
                    <img src=""images/semantic_sequence/visiting_cities_semantic/visiting_cities_semantic_1.png"" class=""exp-image"">
                    <div class=""question-area"">
                        <p style=""font-size: 20px; font-weight: bold; margin: 0;"">Is there a person in this image?</p>
                    </div>
                </div>","1","main_experiment_trial","1","visiting_cities_semantic","semantic_sequence","chronological","","","","","","",""
"","","","","","html-keyboard-response","145","874948","0.0-145.0","113710B7E64C4F6EA692CFEB8C6E6A29","019d065b-b445-7a7f-b554-8f43d7eb264a","019d0640-0a2d-7740-a972-9c73365b2dcb","","null","
                <div class=""stimulus-container"">
                    <img src=""images/semantic_sequence/visiting_cities_semantic/visiting_cities_semantic_2.png"" class=""exp-image"">
                    <div class=""question-area""></div> 
                </div>","null","","","","","","","","","","","",""
"","","","","","html-button-response","146","875514","0.0-146.0","113710B7E64C4F6EA692CFEB8C6E6A29","019d065b-b445-7a7f-b554-8f43d7eb264a","019d0640-0a2d-7740-a972-9c73365b2dcb","","565","
                <div class=""stimulus-container"">
                    <img src=""images/semantic_sequence/visiting_cities_semantic/visiting_cities_semantic_2.png"" class=""exp-image"">
                    <div class=""question-area"">
                        <p style=""font-size: 20px; font-weight: bold; margin: 0;"">Is there a person in this image?</p>
                    </div>
                </div>","1","main_experiment_trial","2","visiting_cities_semantic","semantic_sequence","chronological","","","","","","",""
"","","","","","html-keyboard-response","147","880517","0.0-147.0","113710B7E64C4F6EA692CFEB8C6E6A29","019d065b-b445-7a7f-b554-8f43d7eb264a","019d0640-0a2d-7740-a972-9c73365b2dcb","","null","
                <div class=""stimulus-container"">
                    <img src=""images/semantic_sequence/visiting_cities_semantic/visiting_cities_semantic_3.png"" class=""exp-image"">
                    <div class=""question-area""></div> 
                </div>","null","","","","","","","","","","","",""
"","","","","","html-button-response","148","882068","0.0-148.0","113710B7E64C4F6EA692CFEB8C6E6A29","019d065b-b445-7a7f-b554-8f43d7eb264a","019d0640-0a2d-7740-a972-9c73365b2dcb","","1551","
                <div class=""stimulus-container"">
                    <img src=""images/semantic_sequence/visiting_cities_semantic/visiting_cities_semantic_3.png"" class=""exp-image"">
                    <div class=""question-area"">
                        <p style=""font-size: 20px; font-weight: bold; margin: 0;"">Is there a person in this image?</p>
                    </div>
                </div>","1","main_experiment_trial","3","visiting_cities_semantic","semantic_sequence","chronological","","","","","","",""
"","","","","","html-keyboard-response","149","887070","0.0-149.0","113710B7E64C4F6EA692CFEB8C6E6A29","019d065b-b445-7a7f-b554-8f43d7eb264a","019d0640-0a2d-7740-a972-9c73365b2dcb","","null","
                <div class=""stimulus-container"">
                    <img src=""images/semantic_sequence/visiting_cities_semantic/visiting_cities_semantic_4.png"" class=""exp-image"">
                    <div class=""question-area""></div> 
                </div>","null","","","","","","","","","","","",""
"","","","","","html-button-response","150","887800","0.0-150.0","113710B7E64C4F6EA692CFEB8C6E6A29","019d065b-b445-7a7f-b554-8f43d7eb264a","019d0640-0a2d-7740-a972-9c73365b2dcb","","730","
                <div class=""stimulus-container"">
                    <img src=""images/semantic_sequence/visiting_cities_semantic/visiting_cities_semantic_4.png"" class=""exp-image"">
                    <div class=""question-area"">
                        <p style=""font-size: 20px; font-weight: bold; margin: 0;"">Is there a person in this image?</p>
                    </div>
                </div>","1","main_experiment_trial","4","visiting_cities_semantic","semantic_sequence","chronological","","","","","","",""
"","","","","","html-keyboard-response","151","892802","0.0-151.0","113710B7E64C4F6EA692CFEB8C6E6A29","019d065b-b445-7a7f-b554-8f43d7eb264a","019d0640-0a2d-7740-a972-9c73365b2dcb","","null","
                <div class=""stimulus-container"">
                    <img src=""images/semantic_sequence/visiting_cities_semantic/visiting_cities_semantic_5.png"" class=""exp-image"">
                    <div class=""question-area""></div> 
                </div>","null","","","","","","","","","","","",""
"","","","","","html-button-response","152","893716","0.0-152.0","113710B7E64C4F6EA692CFEB8C6E6A29","019d065b-b445-7a7f-b554-8f43d7eb264a","019d0640-0a2d-7740-a972-9c73365b2dcb","","913","
                <div class=""stimulus-container"">
                    <img src=""images/semantic_sequence/visiting_cities_semantic/visiting_cities_semantic_5.png"" class=""exp-image"">
                    <div class=""question-area"">
                        <p style=""font-size: 20px; font-weight: bold; margin: 0;"">Is there a person in this image?</p>
                    </div>
                </div>","1","main_experiment_trial","5","visiting_cities_semantic","semantic_sequence","chronological","","","","","","",""
"","","","","","html-keyboard-response","153","898718","0.0-153.0","113710B7E64C4F6EA692CFEB8C6E6A29","019d065b-b445-7a7f-b554-8f43d7eb264a","019d0640-0a2d-7740-a972-9c73365b2dcb","","null","
                <div class=""stimulus-container"">
                    <img src=""images/semantic_sequence/visiting_cities_semantic/visiting_cities_semantic_6.png"" class=""exp-image"">
                    <div class=""question-area""></div> 
                </div>","null","","","","","","","","","","","",""
"","","","","","html-button-response","154","899246","0.0-154.0","113710B7E64C4F6EA692CFEB8C6E6A29","019d065b-b445-7a7f-b554-8f43d7eb264a","019d0640-0a2d-7740-a972-9c73365b2dcb","","528","
                <div class=""stimulus-container"">
                    <img src=""images/semantic_sequence/visiting_cities_semantic/visiting_cities_semantic_6.png"" class=""exp-image"">
                    <div class=""question-area"">
                        <p style=""font-size: 20px; font-weight: bold; margin: 0;"">Is there a person in this image?</p>
                    </div>
                </div>","1","main_experiment_trial","6","visiting_cities_semantic","semantic_sequence","chronological","","","","","","",""
"","","","","","html-keyboard-response","155","904248","0.0-155.0","113710B7E64C4F6EA692CFEB8C6E6A29","019d065b-b445-7a7f-b554-8f43d7eb264a","019d0640-0a2d-7740-a972-9c73365b2dcb","","null","
                <div class=""stimulus-container"">
                    <img src=""images/semantic_sequence/visiting_cities_semantic/visiting_cities_semantic_7.png"" class=""exp-image"">
                    <div class=""question-area""></div> 
                </div>","null","","","","","","","","","","","",""
"","","","","","html-button-response","156","904908","0.0-156.0","113710B7E64C4F6EA692CFEB8C6E6A29","019d065b-b445-7a7f-b554-8f43d7eb264a","019d0640-0a2d-7740-a972-9c73365b2dcb","","659","
                <div class=""stimulus-container"">
                    <img src=""images/semantic_sequence/visiting_cities_semantic/visiting_cities_semantic_7.png"" class=""exp-image"">
                    <div class=""question-area"">
                        <p style=""font-size: 20px; font-weight: bold; margin: 0;"">Is there a person in this image?</p>
                    </div>
                </div>","1","main_experiment_trial","7","visiting_cities_semantic","semantic_sequence","chronological","","","","","","",""
"","","","","","html-keyboard-response","157","909910","0.0-157.0","113710B7E64C4F6EA692CFEB8C6E6A29","019d065b-b445-7a7f-b554-8f43d7eb264a","019d0640-0a2d-7740-a972-9c73365b2dcb","","null","
                <div class=""stimulus-container"">
                    <img src=""images/semantic_sequence/visiting_cities_semantic/visiting_cities_semantic_8.png"" class=""exp-image"">
                    <div class=""question-area""></div> 
                </div>","null","","","","","","","","","","","",""
"","","","","","html-button-response","158","910554","0.0-158.0","113710B7E64C4F6EA692CFEB8C6E6A29","019d065b-b445-7a7f-b554-8f43d7eb264a","019d0640-0a2d-7740-a972-9c73365b2dcb","","643","
                <div class=""stimulus-container"">
                    <img src=""images/semantic_sequence/visiting_cities_semantic/visiting_cities_semantic_8.png"" class=""exp-image"">
                    <div class=""question-area"">
                        <p style=""font-size: 20px; font-weight: bold; margin: 0;"">Is there a person in this image?</p>
                    </div>
                </div>","1","main_experiment_trial","8","visiting_cities_semantic","semantic_sequence","chronological","","","","","","",""
"","","","","","html-keyboard-response","159","915556","0.0-159.0","113710B7E64C4F6EA692CFEB8C6E6A29","019d065b-b445-7a7f-b554-8f43d7eb264a","019d0640-0a2d-7740-a972-9c73365b2dcb","","null","
                <div class=""stimulus-container"">
                    <img src=""images/semantic_sequence/visiting_cities_semantic/visiting_cities_semantic_9.png"" class=""exp-image"">
                    <div class=""question-area""></div> 
                </div>","null","","","","","","","","","","","",""
"","","","","","html-button-response","160","916106","0.0-160.0","113710B7E64C4F6EA692CFEB8C6E6A29","019d065b-b445-7a7f-b554-8f43d7eb264a","019d0640-0a2d-7740-a972-9c73365b2dcb","","549","
                <div class=""stimulus-container"">
                    <img src=""images/semantic_sequence/visiting_cities_semantic/visiting_cities_semantic_9.png"" class=""exp-image"">
                    <div class=""question-area"">
                        <p style=""font-size: 20px; font-weight: bold; margin: 0;"">Is there a person in this image?</p>
                    </div>
                </div>","1","main_experiment_trial","9","visiting_cities_semantic","semantic_sequence","chronological","","","","","","",""
"","","","","","html-keyboard-response","161","921108","0.0-161.0","113710B7E64C4F6EA692CFEB8C6E6A29","019d065b-b445-7a7f-b554-8f43d7eb264a","019d0640-0a2d-7740-a972-9c73365b2dcb","","null","
                <div class=""stimulus-container"">
                    <img src=""images/semantic_sequence/visiting_cities_semantic/visiting_cities_semantic_ten.png"" class=""exp-image"">
                    <div class=""question-area""></div> 
                </div>","null","","","","","","","","","","","",""
"","","","","","html-button-response","162","923282","0.0-162.0","113710B7E64C4F6EA692CFEB8C6E6A29","019d065b-b445-7a7f-b554-8f43d7eb264a","019d0640-0a2d-7740-a972-9c73365b2dcb","","2173","
                <div class=""stimulus-container"">
                    <img src=""images/semantic_sequence/visiting_cities_semantic/visiting_cities_semantic_ten.png"" class=""exp-image"">
                    <div class=""question-area"">
                        <p style=""font-size: 20px; font-weight: bold; margin: 0;"">Is there a person in this image?</p>
                    </div>
                </div>","1","main_experiment_trial","ten","visiting_cities_semantic","semantic_sequence","chronological","","","","","","",""
"","","","","","html-keyboard-response","163","928283","0.0-163.0","113710B7E64C4F6EA692CFEB8C6E6A29","019d065b-b445-7a7f-b554-8f43d7eb264a","019d0640-0a2d-7740-a972-9c73365b2dcb","","null","<div style=""background-color: white; width: 100vw; height: 100vh;""></div>","null","","","","","","","","","","","",""
"","","","","","html-keyboard-response","164","933285","0.0-164.0","113710B7E64C4F6EA692CFEB8C6E6A29","019d065b-b445-7a7f-b554-8f43d7eb264a","019d0640-0a2d-7740-a972-9c73365b2dcb","","null","
                <div class=""stimulus-container"">
                    <img src=""images/causal_sequence/museum_causal/museum_causal_1.png"" class=""exp-image"">
                    <div class=""question-area""></div> 
                </div>","null","","","","","","","","","","","",""
"","","","","","html-button-response","165","934794","0.0-165.0","113710B7E64C4F6EA692CFEB8C6E6A29","019d065b-b445-7a7f-b554-8f43d7eb264a","019d0640-0a2d-7740-a972-9c73365b2dcb","","1508","
                <div class=""stimulus-container"">
                    <img src=""images/causal_sequence/museum_causal/museum_causal_1.png"" class=""exp-image"">
                    <div class=""question-area"">
                        <p style=""font-size: 20px; font-weight: bold; margin: 0;"">Is there a person in this image?</p>
                    </div>
                </div>","0","main_experiment_trial","1","museum_causal","causal_sequence","chronological","","","","","","",""
"","","","","","html-keyboard-response","166","939796","0.0-166.0","113710B7E64C4F6EA692CFEB8C6E6A29","019d065b-b445-7a7f-b554-8f43d7eb264a","019d0640-0a2d-7740-a972-9c73365b2dcb","","null","
                <div class=""stimulus-container"">
                    <img src=""images/causal_sequence/museum_causal/museum_causal_2.png"" class=""exp-image"">
                    <div class=""question-area""></div> 
                </div>","null","","","","","","","","","","","",""
"","","","","","html-button-response","167","940862","0.0-167.0","113710B7E64C4F6EA692CFEB8C6E6A29","019d065b-b445-7a7f-b554-8f43d7eb264a","019d0640-0a2d-7740-a972-9c73365b2dcb","","1065","
                <div class=""stimulus-container"">
                    <img src=""images/causal_sequence/museum_causal/museum_causal_2.png"" class=""exp-image"">
                    <div class=""question-area"">
                        <p style=""font-size: 20px; font-weight: bold; margin: 0;"">Is there a person in this image?</p>
                    </div>
                </div>","0","main_experiment_trial","2","museum_causal","causal_sequence","chronological","","","","","","",""
"","","","","","html-keyboard-response","168","945863","0.0-168.0","113710B7E64C4F6EA692CFEB8C6E6A29","019d065b-b445-7a7f-b554-8f43d7eb264a","019d0640-0a2d-7740-a972-9c73365b2dcb","","null","
                <div class=""stimulus-container"">
                    <img src=""images/causal_sequence/museum_causal/museum_causal_3.png"" class=""exp-image"">
                    <div class=""question-area""></div> 
                </div>","null","","","","","","","","","","","",""
"","","","","","html-button-response","169","946998","0.0-169.0","113710B7E64C4F6EA692CFEB8C6E6A29","019d065b-b445-7a7f-b554-8f43d7eb264a","019d0640-0a2d-7740-a972-9c73365b2dcb","","1135","
                <div class=""stimulus-container"">
                    <img src=""images/causal_sequence/museum_causal/museum_causal_3.png"" class=""exp-image"">
                    <div class=""question-area"">
                        <p style=""font-size: 20px; font-weight: bold; margin: 0;"">Is there a person in this image?</p>
                    </div>
                </div>","0","main_experiment_trial","3","museum_causal","causal_sequence","chronological","","","","","","",""
"","","","","","html-keyboard-response","170","952000","0.0-170.0","113710B7E64C4F6EA692CFEB8C6E6A29","019d065b-b445-7a7f-b554-8f43d7eb264a","019d0640-0a2d-7740-a972-9c73365b2dcb","","null","
                <div class=""stimulus-container"">
                    <img src=""images/causal_sequence/museum_causal/museum_causal_4.png"" class=""exp-image"">
                    <div class=""question-area""></div> 
                </div>","null","","","","","","","","","","","",""
"","","","","","html-button-response","171","954650","0.0-171.0","113710B7E64C4F6EA692CFEB8C6E6A29","019d065b-b445-7a7f-b554-8f43d7eb264a","019d0640-0a2d-7740-a972-9c73365b2dcb","","2649","
                <div class=""stimulus-container"">
                    <img src=""images/causal_sequence/museum_causal/museum_causal_4.png"" class=""exp-image"">
                    <div class=""question-area"">
                        <p style=""font-size: 20px; font-weight: bold; margin: 0;"">Is there a person in this image?</p>
                    </div>
                </div>","1","main_experiment_trial","4","museum_causal","causal_sequence","chronological","","","","","","",""
"","","","","","html-keyboard-response","172","959652","0.0-172.0","113710B7E64C4F6EA692CFEB8C6E6A29","019d065b-b445-7a7f-b554-8f43d7eb264a","019d0640-0a2d-7740-a972-9c73365b2dcb","","null","
                <div class=""stimulus-container"">
                    <img src=""images/causal_sequence/museum_causal/museum_causal_5.png"" class=""exp-image"">
                    <div class=""question-area""></div> 
                </div>","null","","","","","","","","","","","",""
"","","","","","html-button-response","173","962653","0.0-173.0","113710B7E64C4F6EA692CFEB8C6E6A29","019d065b-b445-7a7f-b554-8f43d7eb264a","019d0640-0a2d-7740-a972-9c73365b2dcb","","null","
                <div class=""stimulus-container"">
                    <img src=""images/causal_sequence/museum_causal/museum_causal_5.png"" class=""exp-image"">
                    <div class=""question-area"">
                        <p style=""font-size: 20px; font-weight: bold; margin: 0;"">Is there a person in this image?</p>
                    </div>
                </div>","null","main_experiment_trial","5","museum_causal","causal_sequence","chronological","","","","","","",""
"","","","","","html-keyboard-response","174","967655","0.0-174.0","113710B7E64C4F6EA692CFEB8C6E6A29","019d065b-b445-7a7f-b554-8f43d7eb264a","019d0640-0a2d-7740-a972-9c73365b2dcb","","null","
                <div class=""stimulus-container"">
                    <img src=""images/causal_sequence/museum_causal/museum_causal_6.png"" class=""exp-image"">
                    <div class=""question-area""></div> 
                </div>","null","","","","","","","","","","","",""
"","","","","","html-button-response","175","969164","0.0-175.0","113710B7E64C4F6EA692CFEB8C6E6A29","019d065b-b445-7a7f-b554-8f43d7eb264a","019d0640-0a2d-7740-a972-9c73365b2dcb","","1508","
                <div class=""stimulus-container"">
                    <img src=""images/causal_sequence/museum_causal/museum_causal_6.png"" class=""exp-image"">
                    <div class=""question-area"">
                        <p style=""font-size: 20px; font-weight: bold; margin: 0;"">Is there a person in this image?</p>
                    </div>
                </div>","0","main_experiment_trial","6","museum_causal","causal_sequence","chronological","","","","","","",""
"","","","","","html-keyboard-response","176","974166","0.0-176.0","113710B7E64C4F6EA692CFEB8C6E6A29","019d065b-b445-7a7f-b554-8f43d7eb264a","019d0640-0a2d-7740-a972-9c73365b2dcb","","null","
                <div class=""stimulus-container"">
                    <img src=""images/causal_sequence/museum_causal/museum_causal_7.png"" class=""exp-image"">
                    <div class=""question-area""></div> 
                </div>","null","","","","","","","","","","","",""
